Time,acce_x,acce_y,acce_z,gyro_x,gyro_y,gyro_z
0.000010,0.17,0.14,1.02,1.94,-0.97,1.31
0.000020,0.15,0.14,1.04,3.26,3.35,0.78
0.000030,0.14,0.13,1.04,3.60,1.93,-0.66
0.000050,0.16,0.15,1.06,3.85,2.31,-0.07
0.000060,0.17,0.17,1.09,2.93,3.79,0.69
0.000070,0.15,0.16,1.09,1.58,1.34,0.77
0.000080,0.16,0.15,1.08,1.08,-0.30,-0.66
0.000100,0.17,0.15,1.07,1.53,-2.82,-0.89
0.000110,0.18,0.15,1.06,2.19,-1.50,-0.20
0.000120,0.19,0.15,1.08,1.27,2.31,0.60
0.000140,0.17,0.15,1.08,0.82,1.00,1.35
0.000150,0.15,0.14,1.06,1.05,-3.61,1.68
0.000160,0.15,0.14,1.08,1.01,-4.42,1.04
0.000180,0.15,0.14,1.07,1.15,-4.27,-0.01
0.000190,0.15,0.14,1.06,1.88,-3.99,-0.71
0.000200,0.15,0.14,1.06,1.70,-5.94,-1.31
0.000220,0.18,0.15,1.03,2.15,-0.34,-0.49
0.000230,0.19,0.16,1.03,2.43,0.53,0.24
0.000240,0.17,0.15,1.06,3.10,2.13,1.15
0.000260,0.17,0.15,1.05,4.60,0.55,1.79
0.000270,0.16,0.16,1.05,5.27,-0.46,2.44
0.000280,0.15,0.16,1.05,4.94,-5.11,2.98
0.000290,0.18,0.16,1.03,5.02,-8.24,4.66
0.000310,0.17,0.15,1.04,6.25,-6.11,3.40
0.000320,0.18,0.14,1.02,8.87,-4.76,3.95
0.000330,0.18,0.16,1.03,9.50,-1.21,4.60
0.000350,0.17,0.17,1.05,9.93,2.04,3.79
0.000360,0.18,0.16,1.03,9.28,4.89,3.08
0.000370,0.22,0.18,1.04,8.66,9.66,4.67
0.000390,0.15,0.16,1.00,8.64,9.92,7.05
0.000400,0.12,0.16,1.05,12.96,-0.90,4.82
0.000410,0.15,0.17,1.05,12.28,-0.79,5.28
0.000430,0.17,0.17,1.01,11.09,8.52,5.53
0.000440,0.12,0.17,1.02,11.74,5.67,3.85
0.000450,0.14,0.19,1.01,10.47,9.99,4.83
0.000460,0.09,0.14,1.06,14.90,2.73,1.43
0.000480,0.11,0.17,1.02,18.40,-4.69,-5.56
0.000490,0.19,0.21,1.04,19.43,-8.78,-7.41
0.000500,0.24,0.20,1.13,23.27,-15.15,-3.84
0.000520,0.29,0.21,1.16,20.76,-9.53,3.56
0.000530,0.28,0.19,1.20,17.11,1.50,14.27
0.000540,0.21,0.16,1.20,14.22,9.03,17.73
0.000560,0.14,0.12,1.18,13.63,22.10,22.71
0.000570,0.03,0.10,1.25,13.59,20.34,16.70
0.000580,-0.04,0.09,1.26,16.50,9.37,9.37
0.000600,-0.02,0.10,1.24,17.62,-1.23,-3.15
0.000610,0.02,0.12,1.18,18.63,-8.89,-12.85
0.000620,0.09,0.16,1.18,17.53,-13.08,-17.47
0.000640,0.18,0.22,1.20,12.31,-2.21,-17.49
0.000650,0.20,0.23,1.28,6.88,7.62,-13.38
0.000660,0.20,0.23,1.31,-0.30,8.80,-10.37
0.000680,0.17,0.23,1.31,-3.73,6.08,-7.00
0.000690,0.17,0.22,1.29,-7.59,-1.15,-8.31
0.000700,0.20,0.22,1.26,-11.97,-1.55,-8.95
0.000720,0.23,0.22,1.25,-15.18,0.37,-7.92
0.000730,0.24,0.21,1.28,-16.62,4.17,-2.71
0.000740,0.18,0.22,1.38,-17.66,-2.23,0.70
0.000760,0.17,0.21,1.45,-24.89,-9.15,5.34
0.000770,0.16,0.21,1.41,-33.53,-4.63,1.53
0.000780,0.14,0.21,1.35,-40.19,-9.05,-2.35
0.000800,0.16,0.19,1.32,-42.11,-6.58,-3.15
0.000810,0.14,0.19,1.36,-43.49,-10.15,-5.45
0.000820,0.15,0.24,1.33,-48.71,-7.95,-8.23
0.000840,0.15,0.23,1.29,-51.42,-8.02,-6.71
0.000850,0.18,0.21,1.24,-54.86,-6.24,-8.69
0.000860,0.07,0.22,1.09,-60.05,-25.49,-7.08
0.000880,0.08,0.12,1.20,-54.19,-11.49,-2.50
0.000890,0.06,0.07,1.27,-45.02,-12.76,-6.56
0.000910,0.01,0.10,1.35,-44.19,-30.55,-15.77
0.000920,0.04,0.15,1.35,-48.28,-35.95,-26.72
0.000930,0.21,0.20,1.35,-50.86,-31.53,-33.55
0.000950,0.33,0.23,1.40,-52.40,-43.05,-27.44
0.000960,0.45,0.27,1.41,-61.93,-36.74,-17.89
0.000970,0.45,0.28,1.42,-73.62,-27.10,-3.89
0.000990,0.37,0.26,1.34,-83.63,-19.55,8.60
0.001000,0.30,0.21,1.29,-90.94,-12.74,11.24
0.001010,0.20,0.17,1.28,-93.60,-17.40,10.08
0.001030,0.17,0.13,1.28,-89.41,-30.52,8.19
0.001040,0.21,0.17,1.20,-90.16,-41.98,5.10
0.001050,0.27,0.19,1.22,-92.19,-46.03,9.92
0.001070,0.33,0.17,1.28,-97.30,-33.09,18.36
0.001080,0.34,0.19,1.19,-109.12,-14.21,29.14
0.001100,0.27,0.14,1.11,-115.60,-2.50,35.27
0.001110,0.16,0.09,1.03,-118.66,-14.15,32.66
0.001120,0.11,0.03,0.97,-110.62,-33.31,26.21
0.001140,0.19,0.02,0.98,-103.70,-50.18,17.98
0.001150,0.29,0.02,1.03,-102.60,-51.96,15.59
0.001160,0.35,0.01,1.06,-109.08,-47.50,20.47
0.001180,0.37,-0.04,1.01,-114.96,-30.40,28.79
0.001190,0.32,-0.10,0.94,-116.53,-24.89,34.99
0.001200,0.26,-0.18,0.89,-113.36,-20.60,36.02
0.001220,0.21,-0.24,0.88,-108.24,-21.42,32.89
0.001230,0.19,-0.28,0.89,-102.55,-22.92,25.76
0.001250,0.21,-0.30,0.89,-100.18,-23.54,18.40
0.001260,0.28,-0.35,0.86,-97.89,-18.40,14.79
0.001270,0.32,-0.44,0.85,-94.13,-16.99,18.10
0.001290,0.32,-0.48,0.81,-92.37,-14.58,25.24
0.001300,0.22,-0.54,0.78,-84.92,-11.71,27.20
0.001310,0.17,-0.55,0.79,-78.05,-2.24,22.49
0.001330,0.10,-0.51,0.82,-71.37,-5.12,11.42
0.001340,0.14,-0.46,0.86,-66.27,-16.05,0.60
0.001350,0.32,-0.44,0.87,-63.93,8.02,-2.46
0.001370,0.34,-0.36,0.77,-65.50,-2.17,-2.60
0.001380,0.33,-0.35,0.84,-62.80,0.84,0.03
0.001390,0.31,-0.32,0.92,-63.16,-8.05,1.56
0.001410,0.34,-0.29,0.95,-68.27,-15.80,3.52
0.001420,0.37,-0.26,0.96,-76.51,-19.23,8.98
0.001440,0.43,-0.28,0.88,-88.56,-7.02,16.08
0.001450,0.35,-0.33,0.83,-96.08,-6.03,21.50
0.001460,0.32,-0.42,0.77,-97.32,-13.34,26.49
0.001480,0.26,-0.49,0.69,-92.58,-24.27,28.35
0.001490,0.27,-0.52,0.64,-97.05,-28.60,26.81
0.001500,0.20,-0.52,0.64,-87.60,-26.25,27.32
0.001520,0.19,-0.55,0.69,-87.01,-24.56,23.26
0.001530,0.24,-0.59,0.65,-85.82,-24.83,17.91
0.001540,0.30,-0.64,0.59,-83.38,-21.49,18.04
0.001560,0.30,-0.68,0.63,-81.77,-12.98,18.29
0.001570,0.31,-0.72,0.67,-75.91,-17.02,21.50
0.001580,0.27,-0.69,0.66,-71.08,-23.83,23.44
0.001600,0.27,-0.68,0.66,-67.79,-15.43,19.82
0.001610,0.27,-0.70,0.64,-72.34,-22.72,15.18
0.001630,0.31,-0.73,0.70,-70.35,-20.77,16.35
0.001640,0.29,-0.71,0.70,-72.73,-27.45,14.92
0.001650,0.29,-0.69,0.72,-76.73,-26.69,11.05
0.001670,0.27,-0.63,0.68,-81.84,-31.07,7.37
0.001680,0.33,-0.65,0.64,-86.28,-22.61,3.87
0.001690,0.38,-0.67,0.62,-91.92,-10.37,3.21
0.001710,0.36,-0.70,0.58,-99.20,-5.02,3.34
0.001720,0.32,-0.72,0.59,-108.07,2.24,5.97
0.001730,0.30,-0.71,0.58,-101.81,2.69,10.34
0.001750,0.24,-0.71,0.55,-101.55,-9.53,12.98
0.001760,0.20,-0.69,0.53,-102.69,-15.05,14.16
0.001770,0.20,-0.69,0.51,-105.38,-21.14,14.91
0.001790,0.22,-0.68,0.47,-100.53,-29.75,22.90
0.001800,0.20,-0.69,0.46,-101.05,-19.90,24.50
0.001820,0.27,-0.68,0.37,-104.31,-26.05,24.82
0.001830,0.29,-0.67,0.30,-102.53,-24.46,29.21
0.001840,0.29,-0.65,0.30,-101.34,-29.01,35.06
0.001860,0.26,-0.62,0.33,-101.88,-35.11,41.39
0.001870,0.21,-0.60,0.35,-105.91,-34.60,43.61
0.001880,0.17,-0.60,0.26,-113.21,-34.02,36.38
0.001900,0.21,-0.59,0.16,-123.14,-17.14,21.21
0.001910,0.32,-0.58,0.05,-133.56,7.32,7.86
0.001930,0.41,-0.56,-0.11,-142.05,16.90,11.56
0.001940,0.48,-0.68,-0.19,-137.98,17.10,34.04
0.001950,0.32,-0.75,-0.23,-134.81,22.95,63.76
0.001970,0.19,-0.92,-0.25,-111.01,4.94,88.32
0.001980,-0.14,-1.00,-0.26,-96.47,-16.20,94.41
0.001990,-0.32,-1.09,-0.33,-82.94,-31.85,72.30
0.002010,-0.21,-1.11,-0.34,-85.57,-16.34,43.40
0.002020,-0.11,-1.14,-0.25,-79.40,-4.26,19.28
0.002040,-0.02,-1.13,-0.29,-76.58,6.51,12.26
0.002050,0.02,-1.11,-0.35,-69.57,-1.09,14.53
0.002060,0.05,-1.10,-0.39,-62.40,0.84,13.18
0.002080,0.08,-1.08,-0.42,-56.23,-3.53,16.05
0.002090,0.04,-1.02,-0.34,-51.46,-16.48,10.29
0.002100,0.09,-0.97,-0.30,-49.22,-22.62,10.70
0.002120,0.05,-0.89,-0.26,-47.56,-23.18,9.95
0.002130,0.15,-0.90,-0.30,-47.42,-15.72,9.79
0.002140,0.17,-0.87,-0.30,-49.02,-9.70,13.10
0.002160,0.10,-0.83,-0.19,-71.89,13.67,16.58
0.002170,0.06,-0.81,-0.19,-71.96,20.51,15.27
0.002190,0.00,-0.91,-0.24,-63.55,15.27,9.38
0.002200,0.01,-0.92,-0.27,-62.82,9.20,8.67
0.002210,0.01,-0.94,-0.33,-63.66,7.50,4.26
0.002230,-0.00,-0.95,-0.32,-51.23,5.31,4.79
0.002240,0.03,-0.93,-0.33,-35.83,3.08,9.38
0.002250,0.02,-0.91,-0.18,-65.31,9.27,6.32
0.002270,0.02,-0.85,-0.26,-61.39,1.02,8.40
0.002280,0.03,-0.88,-0.25,-66.10,8.70,1.62
0.002290,0.12,-0.88,-0.33,-56.64,0.40,7.05
0.002310,0.12,-0.87,-0.38,-48.37,-5.67,4.57
0.002320,0.13,-0.84,-0.40,-42.90,-1.74,7.68
0.002330,0.10,-0.82,-0.39,-43.40,-4.66,11.25
0.002350,0.07,-0.79,-0.41,-44.19,-6.20,10.35
0.002360,0.08,-0.78,-0.36,-50.68,-12.64,12.69
0.002370,0.15,-0.79,-0.44,-64.98,1.89,4.99
0.002390,0.05,-0.82,-0.40,-55.97,-11.37,5.09
0.002400,0.05,-0.84,-0.42,-49.78,-6.80,4.31
0.002420,0.08,-0.81,-0.48,-47.18,-3.87,4.50
0.002430,0.06,-0.81,-0.51,-46.48,-4.56,5.62
0.002440,-0.00,-0.81,-0.50,-46.71,-11.30,4.81
0.002460,-0.03,-0.84,-0.54,-46.73,-18.78,-0.44
0.002470,0.03,-0.85,-0.49,-48.53,-19.85,-1.16
0.002480,0.09,-0.82,-0.51,-51.73,-17.18,-2.89
0.002500,0.11,-0.82,-0.60,-47.76,-10.15,-1.81
0.002510,0.16,-0.81,-0.62,-44.70,-0.01,1.07
0.002520,0.14,-0.79,-0.69,-40.02,0.55,3.53
0.002540,0.14,-0.77,-0.75,-32.09,1.53,6.16
0.002550,0.13,-0.80,-0.77,-26.17,-0.84,8.02
0.002570,0.06,-0.81,-0.76,-22.32,0.32,6.24
0.002580,0.01,-0.81,-0.63,-25.22,-3.51,6.26
0.002590,-0.01,-0.81,-0.56,-30.31,-4.99,6.21
0.002610,-0.00,-0.81,-0.62,-29.37,-2.11,8.46
0.002620,-0.00,-0.78,-0.71,-25.27,-2.79,11.03
0.002630,-0.00,-0.78,-0.82,-15.44,2.15,9.40
0.002650,-0.01,-0.75,-0.85,-5.89,-3.21,7.08
0.002660,0.02,-0.75,-0.83,2.50,-0.43,4.95
0.002670,0.01,-0.71,-0.80,3.73,0.30,4.15
0.002690,0.03,-0.76,-0.71,2.75,2.74,6.50
0.002700,-0.04,-0.76,-0.71,0.56,5.22,6.51
0.002710,-0.06,-0.79,-0.73,1.32,8.49,1.00
0.002730,-0.05,-0.80,-0.81,9.87,6.60,-2.21
0.002740,0.01,-0.81,-0.86,20.02,-4.47,-3.82
0.002750,-0.01,-0.79,-0.79,30.25,-7.76,-5.48
0.002770,0.02,-0.79,-0.79,33.73,-7.06,-6.65
0.002780,0.02,-0.80,-0.74,31.96,-5.50,-5.39
0.002790,-0.01,-0.82,-0.73,31.34,-3.91,-5.44
0.002810,-0.01,-0.85,-0.77,36.14,-5.98,-6.31
0.002820,-0.00,-0.87,-0.82,44.66,-1.83,-9.55
0.002840,-0.00,-0.86,-0.80,52.94,4.50,-12.77
0.002850,0.03,-0.85,-0.74,59.69,6.17,-14.91
0.002860,0.05,-0.83,-0.70,65.27,4.65,-14.85
0.002880,0.05,-0.82,-0.61,64.20,-2.01,-14.54
0.002890,0.07,-0.83,-0.58,62.42,1.24,-14.83
0.002900,0.12,-0.81,-0.56,59.89,1.06,-7.56
0.002920,0.14,-0.85,-0.62,66.24,5.93,-9.37
0.002930,0.11,-0.83,-0.57,72.74,6.82,-8.66
0.002940,0.13,-0.83,-0.54,76.31,7.75,-7.88
0.002960,0.12,-0.82,-0.52,80.66,14.24,-8.50
0.002970,0.11,-0.82,-0.49,83.91,11.50,-7.09
0.002980,0.11,-0.82,-0.46,86.88,7.21,-4.85
0.003000,0.06,-0.81,-0.40,87.22,2.31,-3.28
0.003010,0.07,-0.81,-0.30,83.39,6.05,-6.55
0.003020,0.09,-0.82,-0.30,81.09,16.27,-7.86
0.003040,0.10,-0.84,-0.33,80.22,16.05,-6.80
0.003050,0.11,-0.86,-0.34,84.43,23.05,-5.47
0.003070,0.08,-0.85,-0.34,88.42,19.61,-4.83
0.003080,0.10,-0.85,-0.33,93.83,17.81,-5.23
0.003090,0.10,-0.86,-0.30,99.24,13.70,-4.63
0.003110,0.08,-0.88,-0.24,105.56,11.79,-14.92
0.003120,0.05,-0.83,-0.17,103.09,13.52,-9.08
0.003130,0.05,-0.85,-0.08,99.64,16.23,-15.62
0.003150,0.10,-0.82,-0.06,95.38,20.65,-14.08
0.003160,0.11,-0.82,-0.07,91.12,23.15,-13.12
0.003170,0.12,-0.83,-0.10,92.63,21.31,-14.79
0.003190,0.11,-0.84,-0.07,97.40,17.47,-13.80
0.003200,0.10,-0.84,-0.02,99.27,15.46,-16.22
0.003210,0.08,-0.85,0.04,97.82,17.37,-19.38
0.003230,0.04,-0.85,0.13,96.21,13.24,-23.73
0.003240,0.09,-0.87,0.20,93.16,14.11,-23.77
0.003260,0.10,-0.88,0.23,89.63,13.63,-23.06
0.003270,0.11,-0.89,0.25,85.02,11.54,-20.73
0.003280,0.14,-0.88,0.20,81.21,15.73,-19.14
0.003300,0.14,-0.87,0.19,79.80,19.09,-18.62
0.003310,0.16,-0.87,0.19,78.60,21.21,-16.85
0.003320,0.18,-0.88,0.20,79.65,19.95,-15.02
0.003340,0.18,-0.87,0.21,81.55,17.28,-13.16
0.003350,0.17,-0.87,0.25,82.76,9.69,-12.79
0.003360,0.22,-0.86,0.27,83.17,9.74,-10.84
0.003380,0.23,-0.85,0.31,83.84,16.47,-8.40
0.003390,0.21,-0.83,0.39,80.30,22.70,-7.26
0.003400,0.20,-0.84,0.41,76.33,20.15,-6.95
0.003420,0.19,-0.84,0.44,73.94,13.12,-4.45
0.003430,0.20,-0.85,0.42,73.44,9.61,-2.44
0.003440,0.12,-0.85,0.53,89.74,-5.21,3.27
0.003460,0.13,-0.87,0.45,77.22,-5.35,-1.52
0.003470,0.16,-0.85,0.40,73.98,-2.04,-3.53
0.003480,0.16,-0.85,0.44,76.53,-1.74,-4.11
0.003500,0.15,-0.83,0.44,78.56,1.31,-4.34
0.003510,0.12,-0.82,0.51,75.22,-0.43,-3.49
0.003520,0.19,-0.79,0.48,72.33,2.21,-8.17
0.003540,0.18,-0.77,0.48,75.42,2.55,-11.18
0.003550,0.19,-0.76,0.51,75.37,-0.82,-10.65
0.003570,0.20,-0.75,0.54,73.79,-2.11,-8.65
0.003580,0.20,-0.70,0.59,65.56,-8.99,0.94
0.003590,0.04,-0.66,0.60,74.56,-0.12,0.29
0.003610,0.10,-0.74,0.64,68.60,-6.35,-9.45
0.003620,0.14,-0.76,0.61,67.39,-9.41,-16.23
0.003630,0.24,-0.76,0.53,66.69,-0.18,-17.21
0.003650,0.23,-0.74,0.53,67.34,6.25,-15.91
0.003660,0.19,-0.76,0.60,68.57,5.00,-15.47
0.003670,0.19,-0.76,0.62,68.79,3.57,-13.96
0.003690,0.18,-0.76,0.65,65.07,-2.03,-8.71
0.003700,0.17,-0.76,0.64,75.82,8.96,-13.68
0.003710,0.15,-0.71,0.70,70.54,-2.88,-19.12
0.003730,0.20,-0.69,0.69,70.43,3.24,-21.76
0.003740,0.23,-0.65,0.70,67.51,6.63,-22.18
0.003750,0.23,-0.64,0.70,66.82,8.29,-20.64
0.003770,0.10,-0.59,0.73,77.63,3.56,-18.70
0.003780,0.25,-0.63,0.72,71.78,4.27,-17.05
0.003790,0.24,-0.62,0.75,72.34,2.71,-15.93
0.003810,0.25,-0.60,0.75,73.13,4.76,-15.06
0.003820,0.25,-0.57,0.78,70.76,6.05,-16.60
0.003830,0.21,-0.53,0.73,73.63,12.80,-18.16
0.003850,0.25,-0.55,0.84,68.69,10.56,-16.48
0.003860,0.25,-0.55,0.89,69.11,8.24,-16.11
0.003870,0.23,-0.56,0.91,69.04,5.69,-16.24
0.003890,0.24,-0.55,0.93,67.23,8.82,-13.57
0.003900,0.24,-0.52,0.93,65.35,13.95,-12.92
0.003920,0.21,-0.51,0.93,63.98,11.69,-13.05
0.003930,0.18,-0.50,0.93,64.49,5.07,-13.45
0.003940,0.19,-0.50,0.93,65.28,3.45,-15.56
0.003960,0.21,-0.47,0.89,66.36,0.96,-18.81
0.003970,0.27,-0.44,0.91,65.68,4.15,-20.29
0.003980,0.30,-0.40,0.92,64.48,8.52,-19.71
0.004000,0.30,-0.39,0.91,64.13,8.97,-16.60
0.004010,0.32,-0.40,0.90,63.97,11.78,-13.18
0.004020,0.25,-0.39,0.95,64.09,9.79,-8.63
0.004040,0.20,-0.39,0.99,62.59,3.26,-8.72
0.004050,0.06,-0.31,1.03,68.12,-0.54,-9.72
0.004060,0.19,-0.37,0.95,63.15,1.37,-14.87
0.004080,0.20,-0.32,0.93,62.34,-0.69,-17.03
0.004090,0.28,-0.31,0.91,66.00,15.94,-18.79
0.004100,0.30,-0.30,0.90,64.95,17.24,-14.26
0.004120,0.25,-0.29,0.97,65.00,21.50,-11.53
0.004130,0.19,-0.29,1.03,64.58,15.89,-11.06
0.004140,0.17,-0.27,1.05,64.29,9.71,-10.31
0.004160,0.16,-0.25,1.05,63.55,2.60,-13.01
0.004170,0.18,-0.21,0.99,63.08,3.73,-17.50
0.004180,0.24,-0.17,0.97,63.80,6.61,-20.45
0.004200,0.31,-0.17,0.96,64.07,14.01,-18.82
0.004210,0.31,-0.15,0.99,61.98,18.10,-14.45
0.004230,0.26,-0.15,1.01,60.80,18.17,-9.57
0.004240,0.19,-0.15,1.04,59.73,17.20,-8.74
0.004250,0.12,-0.15,1.07,66.71,16.12,-10.73
0.004270,0.14,-0.15,0.97,68.78,13.18,-14.28
0.004280,0.15,-0.12,1.02,65.69,9.99,-18.64
0.004290,0.19,-0.09,0.98,66.89,12.60,-20.13
0.004310,0.18,-0.10,1.02,68.66,11.47,-21.93
0.004320,0.15,-0.03,1.02,72.05,7.61,-20.32
0.004330,0.22,-0.08,1.05,78.04,16.77,-20.66
0.004350,0.22,-0.00,1.10,72.96,13.63,-12.54
0.004360,0.22,-0.07,1.04,73.71,17.34,-14.30
0.004370,0.23,0.03,1.05,71.29,19.02,-11.15
0.004390,0.19,0.04,1.04,76.49,16.67,-12.09
0.004400,0.22,0.07,1.02,77.51,23.89,-15.03
0.004410,0.19,0.12,1.08,78.71,24.58,-13.03
0.004430,0.19,0.09,1.13,80.64,16.83,-2.05
0.004440,0.18,0.08,1.17,79.51,8.56,0.02
0.004450,0.16,0.12,1.20,81.87,10.64,-3.40
0.004470,0.17,0.15,1.20,78.49,16.75,-4.76
0.004480,0.15,0.20,1.21,71.79,10.17,-2.76
0.004490,0.18,0.21,1.16,76.81,15.08,-2.69
0.004510,0.18,0.20,1.17,77.47,11.85,-1.76
0.004520,0.17,0.24,1.26,73.50,3.98,-0.08
0.004530,0.19,0.26,1.32,62.32,9.34,-3.08
0.004550,0.24,0.25,1.35,52.41,16.65,-2.52
0.004560,0.22,0.26,1.37,41.55,19.92,0.56
0.004570,0.19,0.26,1.33,37.11,14.56,3.90
0.004590,0.18,0.26,1.29,32.35,11.33,5.55
0.004600,0.16,0.27,1.25,30.62,9.05,6.01
0.004610,0.21,0.27,1.27,32.34,6.21,3.33
0.004630,0.23,0.31,1.30,34.14,4.64,5.07
0.004640,0.19,0.28,1.31,23.55,1.10,16.94
0.004650,0.16,0.26,1.23,19.40,8.70,17.37
0.004670,0.12,0.23,1.20,15.76,9.67,15.35
0.004680,0.10,0.21,1.19,17.59,5.47,15.40
0.004690,0.09,0.22,1.20,17.81,0.26,17.38
0.004710,0.06,0.21,1.20,15.73,-1.98,12.56
0.004720,0.07,0.24,1.22,14.18,-5.31,5.09
0.004730,0.09,0.23,1.13,16.05,-11.47,6.97
0.004750,0.09,0.23,1.17,18.02,-14.18,6.11
0.004760,0.11,0.24,1.23,14.50,-5.44,1.99
0.004770,0.09,0.26,1.24,13.68,-3.44,-0.47
0.004790,0.17,0.24,1.17,12.13,1.42,-2.55
0.004800,0.18,0.27,1.14,12.10,-2.16,-1.14
0.004810,0.18,0.26,1.16,12.74,0.99,-2.77
0.004830,0.20,0.27,1.17,10.23,2.99,0.15
0.004840,0.17,0.28,1.19,12.38,10.82,5.85
0.004850,0.14,0.25,1.23,5.78,30.49,-0.15
0.004870,0.07,0.29,1.27,-2.02,27.88,-3.59
0.004880,0.07,0.29,1.22,-5.10,21.19,-5.44
0.004890,0.10,0.30,1.11,-6.11,11.05,-5.50
0.004910,0.13,0.29,1.05,-3.16,3.27,-5.09
0.004920,0.13,0.31,1.04,-3.10,-1.32,-3.97
0.004930,0.11,0.32,1.10,-0.75,-5.34,-1.60
0.004950,0.12,0.31,1.12,-6.27,-4.50,-2.44
0.004960,0.12,0.30,1.10,-9.37,0.34,-5.11
0.004970,0.13,0.30,1.05,-8.15,0.07,-3.89
0.004990,0.16,0.30,1.04,-8.82,-3.50,0.48
0.005000,0.16,0.28,1.03,-8.82,-1.37,5.09
0.005010,0.11,0.28,1.02,-8.72,1.73,6.97
0.005030,0.06,0.27,1.04,-10.27,4.66,5.59
0.005040,0.06,0.25,1.03,-10.69,6.15,2.98
0.005050,0.04,0.24,1.05,-9.99,3.82,1.87
0.005070,0.05,0.25,1.01,-7.53,-0.94,2.53
0.005080,0.04,0.25,1.02,-5.95,-4.85,2.24
0.005090,0.06,0.25,1.01,-5.63,-4.56,0.78
0.005110,0.06,0.25,1.00,-4.72,-2.60,-0.86
0.005120,0.08,0.25,1.00,-3.66,-1.44,-1.71
0.005130,0.08,0.26,1.01,-1.34,-4.91,-1.07
0.005150,0.09,0.27,1.05,-0.28,-9.60,0.58
0.005160,0.11,0.27,1.05,0.02,-13.21,2.21
0.005170,0.11,0.28,1.06,-3.49,-13.41,1.61
0.005190,0.13,0.27,1.06,-5.15,-10.80,2.12
0.005200,0.15,0.27,1.06,-7.42,-5.08,2.82
0.005210,0.13,0.27,1.06,-10.53,-1.83,2.27
0.005230,0.11,0.27,1.03,-14.70,-7.46,3.11
0.005240,0.08,0.25,1.03,-14.61,-35.42,8.22
0.005250,0.28,0.16,0.83,1.53,2.11,1.54
0.005270,0.16,0.22,0.90,-4.70,-11.47,2.48
0.005280,0.13,0.21,1.01,-0.31,8.02,0.68
0.005290,0.07,0.23,1.10,-2.95,11.94,-3.31
0.005310,0.07,0.23,1.12,-4.33,12.81,-7.38
0.005320,0.09,0.23,1.09,-1.70,10.22,-7.96
0.005330,0.10,0.25,1.03,3.95,3.31,-5.79
0.005350,0.12,0.26,1.03,5.56,-0.71,-2.57
0.005360,0.12,0.27,1.04,3.24,-0.15,-0.40
0.005370,0.10,0.28,1.03,2.45,3.64,-1.61
0.005390,0.09,0.27,1.06,0.73,6.57,-2.45
0.005400,0.09,0.27,1.09,0.27,1.89,-1.66
0.005410,0.09,0.27,1.08,2.12,-7.19,0.76
0.005430,0.10,0.27,1.09,2.11,-13.85,1.83
0.005440,0.11,0.27,1.10,-0.04,-16.24,1.67
0.005450,0.14,0.27,1.08,-3.08,-15.27,2.56
0.005470,0.15,0.27,1.07,-3.87,-12.85,4.33
0.005480,0.14,0.26,1.08,-4.21,-11.22,5.81
0.005490,0.13,0.26,1.07,-4.70,-9.34,5.73
0.005510,0.12,0.25,1.06,-4.52,-5.72,3.61
0.005520,0.13,0.26,1.06,-3.98,-9.03,1.56
0.005530,0.16,0.25,1.04,-1.97,-7.34,2.00
0.005550,0.16,0.26,1.04,-2.15,-7.36,3.00
0.005560,0.15,0.26,1.04,-2.08,-5.61,3.29
0.005570,0.16,0.26,1.06,-4.50,-1.15,3.09
0.005580,0.16,0.26,1.04,-6.00,2.95,2.76
0.005600,0.16,0.26,1.03,-5.08,3.94,3.09
0.005610,0.15,0.26,1.04,-4.35,2.50,3.72
0.005620,0.14,0.25,1.03,-3.32,1.50,4.37
0.005640,0.12,0.26,1.01,-2.51,1.70,2.05
0.005650,0.13,0.24,0.99,2.98,0.89,-2.38
0.005660,0.09,0.23,1.06,0.37,-4.85,-0.89
0.005680,0.12,0.26,1.04,-3.85,-8.57,4.37
0.005690,0.12,0.24,1.05,-4.36,-13.13,4.09
0.005700,0.13,0.25,1.05,-5.96,-18.20,6.37
0.005720,0.12,0.23,1.09,-4.28,-29.11,9.70
0.005730,0.16,0.24,1.07,-0.30,-29.65,9.79
0.005740,0.20,0.25,1.04,-3.05,-10.63,7.98
0.005760,0.17,0.25,1.04,-6.47,9.72,3.92
0.005770,0.15,0.23,1.03,-6.66,15.82,1.07
0.005780,0.12,0.23,1.04,-2.47,8.00,1.37
0.005800,0.13,0.23,1.04,0.37,-2.15,1.95
0.005810,0.14,0.25,1.07,0.11,-6.95,3.10
0.005820,0.14,0.24,1.04,4.83,-9.06,4.06
0.005840,0.18,0.28,1.06,-0.22,-4.25,7.15
0.005850,0.15,0.24,1.07,-6.98,-4.87,2.92
0.005860,0.15,0.23,1.06,-2.68,-8.33,4.60
0.005880,0.14,0.23,1.06,-1.53,-9.45,4.05
0.005890,0.13,0.23,1.07,-0.36,-8.83,1.62
0.005900,0.14,0.24,1.06,-1.58,-8.34,0.66
0.005920,0.13,0.24,1.05,-1.39,-8.29,0.40
0.005930,0.15,0.24,1.04,0.02,-6.63,0.39
0.005940,0.17,0.24,1.00,-0.53,0.56,-1.92
0.005960,0.16,0.24,1.01,1.52,4.01,-2.64
0.005970,0.14,0.23,1.04,4.34,0.61,-2.11
0.005980,0.13,0.23,1.07,5.51,-3.94,-2.19
0.006000,0.14,0.24,1.05,3.91,-5.75,-2.53
0.006010,0.15,0.26,1.07,1.74,-7.86,-1.47
0.006020,0.19,0.26,1.04,0.60,-6.93,-0.10
0.006040,0.20,0.26,1.02,-0.02,-2.68,-0.47
0.006050,0.18,0.26,1.04,0.30,-2.41,-0.53
0.006060,0.18,0.26,1.04,0.13,-1.05,-0.34
0.006080,0.17,0.28,1.06,-1.06,-0.54,1.50
0.006090,0.18,0.28,1.01,0.85,-0.60,0.42
0.006100,0.18,0.27,1.01,1.41,0.29,1.12
0.006120,0.17,0.27,1.02,1.71,1.95,1.59
0.006130,0.17,0.26,1.02,1.72,1.81,1.50
0.006140,0.16,0.26,1.04,0.58,1.62,1.92
0.006150,0.14,0.24,1.05,-0.06,0.10,1.98
0.006170,0.14,0.24,1.03,1.07,-0.93,2.09
0.006180,0.14,0.25,1.03,1.84,-0.37,1.04
0.006190,0.14,0.25,1.03,1.78,-0.33,0.22
0.006210,0.15,0.25,1.04,1.40,-0.75,-0.40
0.006220,0.14,0.24,1.06,1.18,-0.21,-2.00
0.006230,0.15,0.25,1.06,1.21,-3.53,-1.16
0.006250,0.14,0.26,1.06,0.99,-5.36,-1.87
0.006260,0.18,0.26,1.04,0.44,-2.63,-1.43
0.006270,0.17,0.26,1.03,0.39,-2.30,-1.50
0.006290,0.18,0.27,1.01,1.66,-1.57,-0.29
0.006300,0.17,0.27,1.04,1.53,-1.29,0.29
0.006310,0.18,0.27,1.04,0.85,0.76,0.25
0.006330,0.17,0.27,1.04,0.18,0.68,-0.30
0.006340,0.17,0.26,1.05,0.40,-1.06,-0.05
0.006350,0.16,0.26,1.06,-0.02,-1.99,1.12
0.006370,0.16,0.27,1.07,-1.10,-2.75,1.08
0.006380,0.16,0.26,1.06,-2.11,-2.24,1.21
0.006390,0.17,0.26,1.04,-2.17,-1.36,1.76
0.006410,0.16,0.26,1.02,-1.26,-0.63,0.96
0.006420,0.17,0.26,1.02,0.37,-0.44,0.90
0.006430,0.17,0.27,1.03,0.38,-0.85,1.17
0.006450,0.17,0.27,1.03,0.61,-1.60,2.02
0.006460,0.15,0.27,1.08,-0.63,-1.92,2.28
0.006470,0.15,0.27,1.08,-2.69,-1.21,1.95
0.006490,0.16,0.26,1.05,-2.97,-0.25,1.43
0.006500,0.16,0.27,1.03,-2.84,0.73,1.02
0.006510,0.16,0.26,1.04,-1.55,-0.68,0.71
0.006530,0.17,0.27,1.03,-1.18,-1.16,1.17
0.006540,0.17,0.27,1.04,-2.14,-0.27,1.07
0.006550,0.17,0.27,1.04,-1.99,-0.53,1.27
0.006570,0.17,0.27,1.05,-2.33,-1.01,1.92
0.006580,0.17,0.27,1.05,-2.93,-1.20,2.47
0.006590,0.16,0.26,1.05,-2.45,-2.75,3.73
0.006600,0.16,0.27,1.05,-1.90,-3.12,4.59
0.006620,0.15,0.26,1.03,-1.53,-2.63,4.80
0.006630,0.13,0.26,1.04,-1.42,-1.90,4.43
0.006640,0.13,0.25,1.02,-0.56,-1.51,1.98
0.006660,0.13,0.25,1.00,0.58,-1.66,-0.76
0.006670,0.15,0.25,1.01,1.83,-4.09,-1.08
0.006680,0.16,0.26,1.02,2.80,-6.75,-0.53
0.006700,0.16,0.27,1.03,3.42,-7.53,0.47
