Time,acce_x,acce_y,acce_z,gyro_x,gyro_y,gyro_z
0.000010,0.08,0.29,1.03,1.02,-2.76,0.27
0.000020,0.09,0.30,1.04,0.27,-3.76,0.47
0.000030,0.09,0.30,1.05,-1.18,-2.45,0.74
0.000050,0.09,0.30,1.04,-1.50,-1.17,0.53
0.000060,0.09,0.29,1.04,-1.08,-0.67,0.34
0.000070,0.09,0.30,1.02,-0.07,0.15,0.39
0.000080,0.09,0.30,1.02,0.51,-1.00,0.46
0.000100,0.09,0.30,1.04,0.43,-1.50,0.26
0.000110,0.09,0.30,1.04,-0.04,-0.82,0.27
0.000120,0.09,0.30,1.04,0.31,-1.28,0.30
0.000140,0.08,0.30,1.04,0.19,-3.16,-0.13
0.000150,0.09,0.31,1.04,-0.24,-4.20,-0.26
0.000160,0.10,0.30,1.05,-0.92,-4.79,0.10
0.000180,0.10,0.30,1.06,-1.15,-2.29,0.48
0.000190,0.10,0.31,1.05,-1.82,-1.44,0.90
0.000200,0.09,0.30,1.04,-1.88,-1.45,0.95
0.000220,0.08,0.30,1.04,-1.27,-1.83,0.76
0.000230,0.09,0.29,1.03,-0.83,-1.77,0.23
0.000240,0.09,0.30,1.02,-0.30,-1.36,0.05
0.000260,0.09,0.30,1.03,0.02,-1.89,0.53
0.000270,0.09,0.29,1.04,0.04,-1.18,0.27
0.000280,0.08,0.30,1.04,-0.21,-1.98,-0.14
0.000300,0.10,0.30,1.04,-0.87,-2.54,0.18
0.000310,0.09,0.30,1.05,-1.22,-1.70,0.54
0.000320,0.09,0.30,1.03,-1.83,-2.07,0.39
0.000340,0.09,0.30,1.03,-1.11,1.17,0.18
0.000350,0.09,0.30,1.03,-1.63,1.27,-0.01
0.000360,0.10,0.30,1.03,-1.37,0.62,0.21
0.000370,0.09,0.30,1.03,-0.50,-0.66,0.02
0.000390,0.10,0.30,1.04,-0.31,-1.49,0.19
0.000400,0.10,0.30,1.04,-0.24,-1.12,0.38
0.000410,0.09,0.30,1.03,0.15,-2.20,0.03
0.000430,0.08,0.31,1.04,0.20,-2.74,-0.02
0.000440,0.09,0.30,1.04,-0.86,1.01,0.11
0.000450,0.08,0.30,1.03,-1.39,0.94,-0.29
0.000470,0.08,0.29,1.03,0.09,0.78,0.02
0.000480,0.08,0.30,1.05,1.16,-2.41,0.11
0.000490,0.08,0.29,1.05,1.09,-2.05,-0.48
0.000510,0.08,0.30,1.05,0.41,-1.87,-0.50
0.000520,0.09,0.31,1.05,-0.56,0.31,-0.50
0.000530,0.09,0.30,1.04,-1.12,2.37,-0.21
0.000550,0.09,0.30,1.06,-0.88,1.25,-0.28
0.000560,0.09,0.31,1.07,-0.86,0.15,0.47
0.000570,0.08,0.30,1.06,-1.03,0.23,0.18
0.000590,0.08,0.29,1.06,-0.86,1.89,-0.52
0.000600,0.09,0.29,1.07,-1.56,2.67,0.37
0.000610,0.07,0.28,1.12,-2.31,1.82,0.66
0.000620,0.04,0.28,1.14,-3.27,0.51,-0.85
0.000640,0.07,0.28,1.13,-4.66,-0.16,-2.02
0.000650,0.07,0.28,1.13,-5.54,-0.99,-2.37
0.000660,0.07,0.27,1.14,-6.02,0.53,-2.91
0.000680,0.07,0.27,1.16,-6.97,-1.73,-2.30
0.000690,0.05,0.26,1.16,-7.98,-2.16,-3.49
0.000700,0.07,0.26,1.16,-9.59,-0.68,-4.72
0.000720,0.08,0.26,1.17,-10.80,2.27,-4.60
0.000730,0.08,0.24,1.19,-11.66,0.83,-4.80
0.000740,0.08,0.22,1.25,-11.62,-1.08,-2.90
0.000760,0.04,0.21,1.30,-13.24,-3.01,-3.34
0.000770,0.02,0.22,1.35,-16.53,-3.72,-6.82
0.000780,0.05,0.25,1.38,-20.21,-8.21,-10.08
0.000800,0.12,0.27,1.39,-22.95,-9.95,-9.55
0.000810,0.11,0.28,1.37,-27.80,-13.59,-10.30
0.000830,0.17,0.29,1.36,-33.45,-11.32,-8.15
0.000840,0.18,0.30,1.34,-38.95,-6.85,-4.81
0.000850,0.15,0.28,1.35,-42.93,-4.36,-1.31
0.000870,0.10,0.27,1.38,-45.74,-3.77,-0.47
0.000880,0.08,0.27,1.39,-49.73,-8.48,-0.83
0.000890,0.08,0.27,1.39,-54.84,-12.90,-1.53
0.000910,0.10,0.25,1.37,-59.15,-14.91,-0.95
0.000920,0.09,0.25,1.36,-63.05,-16.96,0.19
0.000930,0.08,0.25,1.34,-66.05,-16.98,-0.41
0.000950,0.11,0.25,1.30,-68.37,-17.15,-0.75
0.000960,0.10,0.24,1.31,-70.68,-21.13,1.10
0.000970,0.11,0.23,1.32,-74.03,-25.29,2.38
0.000990,0.13,0.22,1.32,-77.98,-24.62,3.63
0.001000,0.14,0.22,1.27,-82.15,-19.98,4.61
0.001010,0.12,0.19,1.24,-84.52,-20.31,6.07
0.001030,0.09,0.15,1.22,-84.31,-25.02,6.31
0.001040,0.07,0.14,1.21,-83.38,-27.02,3.51
0.001050,0.12,0.15,1.17,-84.19,-26.63,1.92
0.001070,0.17,0.16,1.14,-85.18,-26.04,3.51
0.001080,0.18,0.15,1.15,-85.31,-27.39,5.44
0.001090,0.19,0.15,1.14,-87.11,-27.95,7.41
0.001110,0.21,0.15,1.14,-90.15,-26.62,9.71
0.001120,0.21,0.13,1.12,-93.89,-24.66,11.67
0.001140,0.21,0.11,1.10,-95.73,-21.38,14.56
0.001150,0.17,0.06,1.07,-96.52,-21.31,15.60
0.001160,0.15,0.02,1.02,-94.66,-19.50,15.06
0.001180,0.14,-0.02,1.03,-92.99,-24.10,13.97
0.001190,0.13,-0.05,1.06,-92.02,-25.62,14.19
0.001200,0.12,-0.07,1.08,-91.85,-32.31,13.73
0.001220,0.11,-0.10,1.06,-91.76,-31.90,11.56
0.001230,0.12,-0.12,1.04,-92.03,-34.63,9.08
0.001240,0.15,-0.14,1.00,-92.05,-34.34,5.86
0.001260,0.22,-0.18,0.96,-90.73,-31.51,7.05
0.001270,0.22,-0.19,0.96,-88.49,-29.12,11.03
0.001280,0.17,-0.19,0.97,-86.73,-31.61,11.08
0.001300,0.18,-0.21,0.94,-84.24,-33.78,9.01
0.001310,0.22,-0.21,0.90,-83.11,-32.69,7.32
0.001330,0.25,-0.21,0.88,-81.86,-31.53,6.25
0.001340,0.29,-0.21,0.91,-80.90,-30.54,8.69
0.001350,0.32,-0.21,0.93,-82.82,-26.98,12.34
0.001370,0.33,-0.23,0.93,-86.02,-21.35,15.72
0.001380,0.32,-0.25,0.95,-88.21,-18.58,17.95
0.001390,0.28,-0.30,0.96,-89.40,-17.51,21.02
0.001410,0.22,-0.35,0.99,-89.44,-23.75,22.76
0.001420,0.16,-0.40,1.02,-88.27,-29.49,20.73
0.001430,0.18,-0.45,1.01,-89.75,-34.05,17.59
0.001450,0.19,-0.49,1.01,-91.28,-35.15,15.17
0.001460,0.21,-0.51,0.98,-92.43,-37.85,13.11
0.001480,0.25,-0.50,0.95,-94.53,-35.84,12.18
0.001490,0.27,-0.49,0.92,-96.04,-35.76,12.05
0.001500,0.77,-0.72,1.10,-105.78,63.65,10.08
0.001520,0.37,-0.56,0.91,-103.64,-25.76,6.15
0.001530,0.26,-0.46,0.91,-94.65,-38.81,13.85
0.001540,0.33,-0.41,0.88,-98.56,-36.47,14.78
0.001560,0.30,-0.39,0.80,-105.27,-37.10,14.87
0.001570,0.34,-0.41,0.70,-105.68,-33.47,17.66
0.001580,0.36,-0.46,0.62,-105.40,-30.57,22.60
0.001600,0.34,-0.49,0.57,-106.18,-27.73,28.21
0.001610,0.28,-0.52,0.55,-105.25,-26.07,31.61
0.001630,0.23,-0.55,0.48,-103.99,-23.66,32.55
0.001640,0.21,-0.59,0.43,-103.55,-19.01,30.11
0.001650,0.20,-0.62,0.36,-99.40,-13.63,24.21
0.001670,0.22,-0.64,0.30,-90.71,-12.05,22.60
0.001680,0.21,-0.71,0.34,-83.94,-5.18,18.54
0.001690,0.23,-0.72,0.29,-82.23,-4.71,21.15
0.001710,0.21,-0.76,0.29,-80.76,-4.53,25.81
0.001720,0.19,-0.80,0.26,-79.49,-10.47,24.20
0.001730,0.14,-0.82,0.25,-74.77,-11.06,19.42
0.001750,0.18,-0.85,0.17,-65.09,-6.20,14.50
0.001760,0.19,-0.85,0.17,-58.85,-14.60,14.01
0.001780,0.20,-0.87,0.20,-52.06,-19.21,14.03
0.001790,0.13,-0.81,0.31,-46.89,-26.30,7.46
0.001800,0.22,-0.81,0.37,-40.50,-13.70,10.69
0.001820,0.23,-0.82,0.37,-44.83,-21.31,7.65
0.001830,0.26,-0.82,0.37,-47.13,-16.66,5.30
0.001840,0.28,-0.80,0.39,-49.62,-17.87,4.55
0.001860,0.30,-0.80,0.39,-50.74,-17.24,5.88
0.001870,0.32,-0.81,0.38,-51.24,-15.02,8.12
0.001880,0.31,-0.82,0.39,-51.75,-13.86,8.95
0.001900,0.33,-0.83,0.37,-53.89,-8.88,11.73
0.001910,0.33,-0.86,0.36,-54.94,-7.24,15.41
0.001920,0.29,-0.88,0.37,-55.25,-9.57,19.25
0.001940,0.24,-0.92,0.35,-56.06,-13.40,21.46
0.001950,0.22,-0.94,0.34,-57.41,-16.56,20.66
0.001970,0.23,-0.97,0.31,-57.50,-10.02,18.78
0.001980,0.19,-0.98,0.25,-55.36,-12.61,18.09
0.001990,0.22,-0.97,0.25,-52.26,-12.24,17.59
0.002010,0.20,-0.96,0.24,-51.24,-7.41,18.76
0.002020,0.17,-0.96,0.25,-50.24,-13.36,16.66
0.002030,0.20,-0.95,0.23,-49.47,-14.89,14.86
0.002050,0.20,-0.93,0.21,-48.40,-18.13,13.47
0.002060,0.23,-0.90,0.19,-47.24,-19.72,12.55
0.002070,0.26,-0.88,0.18,-46.79,-20.21,11.39
0.002090,0.29,-0.84,0.16,-46.65,-18.02,12.44
0.002100,0.32,-0.83,0.15,-47.85,-15.51,15.03
0.002120,0.32,-0.83,0.16,-51.00,-10.94,21.71
0.002130,0.26,-0.85,0.14,-53.01,-9.50,26.00
0.002140,0.18,-0.87,0.15,-52.85,-14.31,28.41
0.002160,0.15,-0.90,0.14,-51.92,-16.73,27.44
0.002170,0.14,-0.90,0.12,-51.56,-15.89,26.07
0.002180,0.14,-0.90,0.09,-52.30,-16.53,23.82
0.002200,0.14,-0.90,0.08,-52.67,-16.95,24.07
0.002210,0.11,-0.91,0.15,-54.74,-26.21,26.66
0.002220,0.13,-0.94,0.08,-51.63,-23.72,26.19
0.002240,0.26,-0.97,-0.03,-51.39,-12.94,24.91
0.002250,0.13,-0.95,0.07,-54.49,-16.18,24.24
0.002260,0.12,-0.98,0.06,-54.55,-12.49,21.07
0.002280,0.12,-0.98,0.03,-52.25,-16.48,20.34
0.002290,0.13,-0.96,0.05,-52.32,-19.30,20.88
0.002310,0.13,-0.93,0.06,-52.97,-18.11,18.16
0.002320,0.11,-0.92,0.03,-54.69,-16.48,18.40
0.002330,0.19,-0.91,-0.07,-57.63,-11.34,19.52
0.002350,0.18,-0.93,-0.08,-59.66,-8.95,21.15
0.002360,0.15,-0.90,-0.08,-54.47,-2.37,25.69
0.002370,0.09,-0.95,-0.06,-54.95,-15.15,25.77
0.002390,0.07,-0.94,-0.11,-53.16,-18.40,24.99
0.002400,0.04,-0.91,-0.15,-52.81,-18.73,22.20
0.002420,0.09,-0.92,-0.19,-46.08,-8.65,13.98
0.002430,0.09,-0.89,-0.16,-46.89,-12.62,13.37
0.002440,0.16,-0.88,-0.16,-51.15,-17.23,21.11
0.002460,0.13,-0.87,-0.18,-52.66,-12.34,26.05
0.002470,0.08,-0.94,-0.19,-50.20,-18.08,31.34
0.002480,-0.02,-0.96,-0.18,-49.50,-18.18,33.52
0.002500,-0.05,-1.00,-0.17,-50.70,-18.13,30.93
0.002510,-0.09,-1.03,-0.21,-50.34,-21.08,24.50
0.002530,-0.09,-1.04,-0.28,-47.07,-15.31,19.89
0.002540,-0.12,-1.06,-0.28,-42.65,-23.98,14.40
0.002550,-0.06,-1.06,-0.32,-37.81,-26.64,11.09
0.002570,-0.01,-1.03,-0.33,-35.68,-25.18,9.50
0.002580,-0.00,-1.01,-0.34,-34.94,-27.04,8.40
0.002590,0.02,-0.98,-0.36,-34.01,-26.66,7.28
0.002610,0.08,-0.97,-0.38,-33.61,-18.54,8.38
0.002620,0.07,-0.96,-0.40,-33.21,-17.51,10.44
0.002630,0.04,-0.97,-0.41,-28.60,-14.81,15.02
0.002650,0.01,-0.98,-0.40,-24.32,-18.13,16.85
0.002660,-0.03,-0.97,-0.34,-24.60,-17.83,15.72
0.002680,-0.05,-0.97,-0.34,-25.67,-15.82,14.39
0.002690,-0.05,-0.97,-0.36,-25.63,-12.52,13.73
0.002700,-0.06,-0.97,-0.39,-24.41,-10.23,13.07
0.002720,-0.07,-0.99,-0.43,-20.92,-9.57,12.87
0.002730,-0.09,-1.01,-0.43,-16.78,-12.05,11.89
0.002750,-0.11,-1.00,-0.43,-12.88,-10.67,9.73
0.002760,-0.12,-1.01,-0.44,-8.67,-8.64,6.37
0.002770,-0.13,-0.99,-0.46,-5.44,-5.31,3.29
0.002790,-0.12,-0.98,-0.47,-1.79,-7.66,-0.44
0.002800,-0.08,-0.98,-0.50,2.69,-4.72,-2.63
0.002810,-0.08,-0.97,-0.53,6.33,-2.35,-4.65
0.002830,-0.07,-0.98,-0.55,11.39,2.07,-4.89
0.002840,-0.10,-0.97,-0.53,14.24,2.98,-5.72
0.002850,-0.09,-0.97,-0.53,16.93,8.15,-7.04
0.002870,-0.08,-0.98,-0.51,20.08,9.76,-7.68
0.002880,-0.08,-0.97,-0.52,26.15,9.64,-11.15
0.002890,-0.08,-0.97,-0.54,33.96,14.54,-14.37
0.002910,-0.08,-0.98,-0.52,39.66,14.40,-15.90
0.002920,-0.07,-1.00,-0.49,41.47,8.45,-11.61
0.002940,-0.07,-0.98,-0.47,40.81,8.18,-11.95
0.002950,-0.12,-0.98,-0.40,43.90,13.02,-16.61
0.002960,-0.10,-0.97,-0.37,49.89,12.57,-20.92
0.002980,-0.06,-0.96,-0.37,56.31,14.40,-24.44
0.002990,-0.04,-0.94,-0.38,61.24,10.50,-25.76
0.003000,-0.03,-0.92,-0.33,65.74,2.18,-24.39
0.003020,-0.02,-0.91,-0.28,66.61,0.68,-24.94
0.003030,0.05,-0.91,-0.24,64.18,13.16,-25.51
0.003040,0.01,-0.91,-0.21,64.46,20.80,-26.32
0.003060,0.01,-0.92,-0.20,65.98,18.92,-28.98
0.003070,0.02,-0.91,-0.21,73.77,17.76,-31.37
0.003090,0.03,-0.89,-0.16,74.35,6.52,-28.09
0.003100,0.06,-0.90,-0.15,75.22,10.05,-31.36
0.003110,0.07,-0.89,-0.08,76.67,14.50,-33.66
0.003130,0.08,-0.89,-0.04,76.15,13.94,-32.90
0.003140,0.07,-0.88,-0.00,70.73,13.21,-31.69
0.003150,0.07,-0.90,-0.01,69.43,15.27,-30.11
0.003170,0.06,-0.90,0.01,71.17,19.21,-33.87
0.003180,0.08,-0.89,0.01,72.10,15.87,-35.97
0.003190,0.14,-0.91,0.01,72.60,23.40,-36.21
0.003210,0.14,-0.89,0.05,68.85,25.05,-35.85
0.003220,0.14,-0.90,0.07,68.11,25.29,-35.40
0.003230,0.14,-0.89,0.07,69.63,14.76,-31.72
0.003250,0.18,-0.89,-0.01,78.03,12.15,-32.18
0.003260,0.19,-0.89,0.06,83.32,15.82,-32.92
0.003280,0.18,-0.89,0.08,85.20,17.31,-31.78
0.003290,0.17,-0.91,0.09,87.51,22.47,-31.05
0.003300,0.12,-0.91,0.13,87.66,18.83,-31.55
0.003320,0.10,-0.89,0.24,84.15,13.19,-36.21
0.003330,0.11,-0.79,0.33,73.08,3.36,-30.07
0.003340,0.25,-0.88,0.28,68.69,37.87,-35.24
0.003360,0.20,-0.84,0.33,70.88,18.62,-37.32
0.003370,0.20,-0.81,0.35,74.22,19.00,-35.34
0.003380,0.23,-0.79,0.37,74.79,19.50,-36.33
0.003400,0.28,-0.79,0.36,72.28,22.43,-36.85
0.003410,0.29,-0.78,0.35,71.34,24.60,-34.67
0.003420,0.29,-0.78,0.37,71.24,25.36,-32.27
0.003440,0.29,-0.79,0.37,70.39,28.23,-29.85
0.003450,0.28,-0.80,0.41,67.74,24.97,-28.35
0.003470,0.28,-0.80,0.43,67.60,25.60,-27.14
0.003480,0.27,-0.80,0.45,67.00,24.48,-25.63
0.003490,0.26,-0.80,0.49,66.73,22.11,-25.84
0.003510,0.24,-0.79,0.50,67.68,18.14,-25.74
0.003520,0.23,-0.78,0.49,68.01,13.37,-27.27
0.003530,0.31,-0.79,0.49,69.03,17.66,-28.28
0.003550,0.33,-0.78,0.50,67.86,21.62,-25.46
0.003560,0.33,-0.76,0.51,68.06,23.33,-23.02
0.003570,0.29,-0.76,0.53,68.79,23.85,-21.31
0.003590,0.27,-0.75,0.56,68.69,18.12,-21.32
0.003600,0.27,-0.75,0.59,68.66,17.27,-21.37
0.003610,0.27,-0.74,0.61,68.44,16.05,-20.82
0.003630,0.29,-0.73,0.61,67.87,16.52,-20.83
0.003640,0.30,-0.72,0.60,68.48,16.24,-22.15
0.003650,0.32,-0.71,0.60,69.95,18.34,-21.76
0.003670,0.31,-0.67,0.62,69.13,18.95,-20.18
0.003680,0.30,-0.67,0.65,68.68,19.43,-18.94
0.003700,0.30,-0.66,0.68,68.40,18.76,-17.47
0.003710,0.28,-0.65,0.68,68.62,17.69,-17.08
0.003720,0.27,-0.64,0.67,69.74,14.79,-18.42
0.003740,0.29,-0.64,0.67,70.81,16.85,-20.50
0.003750,0.31,-0.61,0.69,69.66,19.44,-21.20
0.003760,0.32,-0.60,0.70,69.44,22.83,-21.20
0.003780,0.31,-0.57,0.72,70.46,21.51,-19.18
0.003790,0.28,-0.56,0.75,72.01,17.16,-17.55
0.003800,0.26,-0.56,0.79,72.84,12.51,-16.06
0.003820,0.25,-0.54,0.81,72.63,9.27,-16.44
0.003830,0.25,-0.51,0.79,72.20,9.37,-17.96
0.003840,0.23,-0.48,0.78,72.26,9.31,-20.22
0.003860,0.25,-0.45,0.78,72.63,8.22,-22.29
0.003870,0.26,-0.46,0.79,71.87,7.88,-26.08
0.003880,0.36,-0.49,0.78,70.02,13.39,-27.02
0.003900,0.37,-0.48,0.79,70.04,20.06,-22.63
0.003910,0.35,-0.46,0.82,71.56,21.01,-20.08
0.003930,0.30,-0.47,0.85,73.76,17.47,-15.72
0.003940,0.27,-0.47,0.90,76.02,12.92,-12.56
0.003950,0.22,-0.46,0.92,77.66,9.30,-15.23
0.003970,0.23,-0.43,0.91,78.61,9.31,-21.52
0.003980,0.29,-0.39,0.89,79.13,10.50,-26.67
0.003990,0.34,-0.35,0.89,79.04,16.27,-27.98
0.004010,0.36,-0.32,0.91,79.44,16.69,-25.57
0.004020,0.34,-0.30,0.94,81.41,16.60,-21.85
0.004030,0.32,-0.28,0.98,82.63,13.07,-19.95
0.004050,0.32,-0.26,0.98,82.76,15.02,-19.52
0.004060,0.32,-0.24,0.99,80.37,15.98,-20.21
0.004070,0.34,-0.20,0.97,77.04,21.76,-20.27
0.004090,0.35,-0.17,0.97,73.65,30.00,-18.73
0.004100,0.33,-0.18,0.99,71.66,32.23,-15.38
0.004110,0.29,-0.17,1.04,71.78,29.76,-12.20
0.004130,0.24,-0.17,1.08,72.60,23.29,-10.56
0.004140,0.22,-0.15,1.09,73.27,18.47,-12.59
0.004160,0.22,-0.13,1.07,73.82,13.02,-15.76
0.004170,0.25,-0.10,1.08,70.44,14.97,-19.08
0.004180,0.29,-0.08,1.05,67.98,20.50,-21.64
0.004200,0.34,-0.07,1.01,68.36,24.76,-19.79
0.004210,0.30,-0.05,1.04,70.32,20.50,-14.19
0.004220,0.25,-0.05,1.10,70.47,11.47,-11.52
0.004240,0.25,-0.02,1.10,70.05,7.48,-10.01
0.004250,0.24,-0.00,1.08,69.02,9.51,-11.70
0.004260,0.25,0.02,1.07,68.29,14.84,-14.34
0.004280,0.29,0.06,1.04,67.58,20.24,-16.24
0.004290,0.30,0.06,1.04,67.60,23.46,-14.67
0.004300,0.29,0.06,1.06,68.21,25.81,-10.71
0.004320,0.24,0.07,1.06,69.89,26.19,-8.28
0.004330,0.21,0.09,1.11,69.91,21.76,-6.43
0.004340,0.20,0.12,1.13,69.49,19.68,-7.50
0.004360,0.22,0.12,1.12,67.30,20.63,-8.97
0.004370,0.15,0.13,1.25,57.30,7.53,-4.00
0.004380,0.17,0.15,1.15,53.69,34.87,-9.90
0.004400,0.24,0.14,1.13,55.85,28.21,-12.12
0.004410,0.23,0.19,1.11,56.56,21.84,-9.60
0.004420,0.25,0.17,1.10,56.77,22.52,-6.90
0.004440,0.20,0.18,1.10,57.43,21.81,-4.44
0.004450,0.18,0.18,1.14,58.20,18.90,-2.37
0.004460,0.15,0.19,1.18,55.52,21.16,-3.39
0.004480,0.15,0.21,1.16,51.53,24.04,-5.19
0.004490,0.10,0.21,1.17,48.01,10.37,-6.73
0.004500,0.16,0.23,1.12,50.91,16.73,-8.18
0.004520,0.18,0.25,1.10,50.99,13.89,-5.84
0.004530,0.18,0.26,1.13,51.77,13.77,-4.54
0.004540,0.14,0.28,1.16,50.88,14.51,-4.19
0.004560,0.14,0.28,1.18,49.18,13.08,-4.02
0.004570,0.10,0.33,1.21,45.72,5.52,-4.09
0.004580,0.18,0.29,1.15,45.21,6.58,-0.37
0.004600,0.15,0.30,1.14,44.61,-3.53,-1.97
0.004610,0.15,0.33,1.16,42.92,-1.24,-1.81
0.004620,0.18,0.35,1.15,39.53,11.59,-0.92
0.004640,0.17,0.37,1.13,34.52,14.29,-1.08
0.004650,0.15,0.36,1.11,32.71,11.70,0.94
0.004660,0.14,0.34,1.09,32.39,8.67,2.43
0.004680,0.12,0.33,1.09,33.70,6.02,2.54
0.004690,0.10,0.32,1.12,35.40,1.87,0.98
0.004700,0.11,0.34,1.14,34.60,-0.23,-0.03
0.004720,0.14,0.35,1.15,31.93,4.36,-0.85
0.004730,0.15,0.36,1.14,28.78,8.28,-0.13
0.004740,0.13,0.35,1.16,28.08,6.64,-0.18
0.004760,0.12,0.38,1.16,27.27,2.98,-0.92
0.004770,0.13,0.39,1.18,27.08,-0.28,-2.26
0.004780,0.17,0.41,1.21,25.95,-1.47,-2.14
0.004800,0.20,0.42,1.24,21.46,0.71,-0.18
0.004810,0.21,0.43,1.23,14.72,4.00,2.45
0.004820,0.19,0.41,1.21,8.47,6.95,4.85
0.004840,0.15,0.41,1.21,3.70,7.83,6.49
0.004850,0.12,0.39,1.21,1.24,8.81,5.99
0.004860,0.10,0.40,1.19,-1.01,4.76,5.15
0.004880,0.10,0.39,1.16,-2.47,5.73,4.84
0.004890,0.10,0.39,1.13,-5.30,3.02,4.71
0.004900,0.10,0.38,1.10,-6.15,2.02,5.24
0.004920,0.10,0.38,1.08,-5.81,1.27,5.37
0.004930,0.09,0.38,1.07,-5.73,-0.24,5.57
0.004940,0.08,0.38,1.06,-5.72,-0.87,4.89
0.004960,0.07,0.38,1.05,-6.45,-1.88,3.72
0.004970,0.09,0.37,1.04,-6.95,-2.52,2.54
0.004980,0.10,0.37,1.03,-7.08,-2.98,2.91
0.005000,0.11,0.37,1.03,-6.61,-1.26,3.44
0.005010,0.11,0.38,1.02,-6.23,-2.50,3.34
0.005020,0.11,0.38,1.02,-6.88,-3.94,2.71
0.005040,0.13,0.36,1.01,-7.70,2.26,2.33
0.005050,0.13,0.37,1.00,-7.81,2.65,2.88
0.005060,0.12,0.36,1.02,-7.33,5.44,4.24
0.005070,0.10,0.35,1.02,-6.10,5.06,4.24
0.005090,0.09,0.35,1.00,-4.50,2.15,4.15
0.005100,0.09,0.36,1.00,-2.95,1.47,4.10
0.005110,0.08,0.35,0.99,-1.74,0.41,3.76
0.005130,0.09,0.35,1.00,-0.24,-1.00,4.04
0.005140,0.08,0.34,1.01,0.31,2.38,3.52
0.005150,0.06,0.35,1.03,-0.57,1.66,2.23
0.005170,0.08,0.34,1.04,-1.37,0.76,1.42
0.005180,0.07,0.36,1.03,-1.71,-0.72,1.09
0.005190,0.09,0.36,1.03,-2.21,-1.15,0.79
0.005210,0.09,0.37,1.03,-2.27,-0.63,0.70
0.005220,0.12,0.37,1.02,-1.52,4.47,1.04
0.005230,0.11,0.38,1.02,-2.18,3.36,1.72
0.005250,0.11,0.37,1.01,-1.72,3.60,2.47
0.005260,0.09,0.36,1.02,-0.66,2.58,3.72
0.005270,0.08,0.36,1.03,-0.94,0.20,3.21
0.005290,0.06,0.36,1.03,-2.15,0.48,2.06
0.005300,0.08,0.37,1.02,-2.97,3.37,0.77
0.005310,0.09,0.37,1.00,-2.85,4.49,0.47
0.005330,0.09,0.37,1.00,-2.51,1.93,1.50
0.005340,0.09,0.37,0.99,-2.44,1.56,2.28
0.005350,0.09,0.36,0.98,-1.80,0.79,2.22
0.005370,0.07,0.35,0.98,-0.85,1.96,2.26
0.005380,0.05,0.36,0.99,-0.24,2.95,1.09
0.005390,0.07,0.36,0.98,0.96,1.33,0.34
0.005400,0.08,0.36,0.98,2.28,-1.37,0.14
0.005420,0.09,0.37,0.99,2.41,1.37,0.90
0.005430,0.08,0.36,0.99,0.92,2.40,0.66
0.005440,0.08,0.37,0.98,1.43,1.44,0.09
0.005460,0.07,0.37,1.00,1.85,-0.82,0.27
0.005470,0.09,0.37,1.01,1.86,2.76,-0.11
0.005480,0.08,0.37,0.99,1.09,2.73,-0.38
0.005500,0.07,0.37,0.99,1.97,0.94,-0.89
0.005510,0.07,0.37,1.00,2.71,-2.34,-0.87
0.005520,0.08,0.35,1.00,2.76,-0.51,-0.60
0.005540,0.07,0.36,1.01,2.64,-0.88,-0.75
0.005550,0.07,0.36,1.00,3.60,-1.19,-1.48
0.005560,0.06,0.36,1.03,4.73,-1.40,-2.12
0.005580,0.08,0.36,1.04,3.69,-1.75,-2.61
0.005590,0.09,0.37,1.04,2.95,-1.29,-2.25
0.005600,0.10,0.38,1.06,3.04,3.56,-1.70
0.005620,0.10,0.38,1.06,2.43,2.24,-1.42
0.005630,0.09,0.37,1.06,1.98,1.32,-0.56
0.005640,0.09,0.38,1.07,0.93,0.31,-0.54
0.005660,0.09,0.38,1.07,0.11,-0.90,-0.56
0.005670,0.09,0.39,1.08,-0.41,-1.00,0.03
0.005680,0.09,0.38,1.10,-2.03,-0.60,0.20
0.005700,0.09,0.38,1.07,-3.82,-1.16,0.32
0.005710,0.09,0.39,1.07,-4.71,-1.50,0.53
0.005720,0.10,0.38,1.06,-5.56,-1.51,0.75
0.005740,0.09,0.38,1.04,-5.66,0.04,1.14
0.005750,0.09,0.37,1.02,-5.63,-2.36,1.37
0.005760,0.09,0.38,1.02,-5.33,-1.61,1.33
0.005780,0.08,0.37,1.03,-5.24,1.40,1.44
0.005790,0.08,0.37,1.02,-5.25,-0.06,1.37
0.005800,0.08,0.37,1.02,-5.31,0.11,1.54
0.005810,0.08,0.37,1.01,-6.08,-1.50,1.68
0.005830,0.07,0.37,0.99,-6.14,-3.25,1.86
0.005840,0.09,0.37,0.99,-5.73,-1.53,1.82
0.005850,0.07,0.37,0.97,-5.48,-0.45,1.66
0.005870,0.08,0.36,0.95,-4.12,0.89,1.58
0.005880,0.07,0.36,0.95,-2.76,-0.30,0.90
0.005890,0.07,0.36,0.97,-1.51,-1.65,1.24
0.005910,0.08,0.36,0.97,-1.29,-2.35,1.14
0.005920,0.07,0.37,0.97,-1.02,-2.21,0.92
0.005930,0.07,0.37,0.99,-0.44,0.14,0.70
0.005950,0.08,0.37,0.97,-0.18,0.50,0.50
0.005960,0.07,0.37,0.98,0.32,0.30,0.19
0.005970,0.08,0.36,0.98,0.80,-0.97,0.01
0.005990,0.09,0.36,0.98,1.65,-0.54,0.50
0.006000,0.07,0.37,1.00,1.60,-0.18,0.60
0.006010,0.08,0.36,1.01,2.06,0.05,0.15
0.006030,0.06,0.36,1.02,2.69,-1.11,-0.05
0.006040,0.08,0.37,1.02,2.86,-1.44,-0.14
0.006050,0.07,0.37,1.04,2.04,-2.86,-0.18
0.006070,0.09,0.38,1.04,1.56,-3.63,0.22
0.006080,0.09,0.38,1.04,1.39,-1.09,0.50
0.006090,0.09,0.38,1.05,-0.05,-0.82,0.32
0.006110,0.10,0.37,1.03,-0.96,-0.95,0.72
0.006120,0.10,0.37,1.03,-0.76,-1.27,1.20
0.006130,0.08,0.37,1.03,-0.72,-2.08,1.68
0.006150,0.08,0.37,1.02,-1.16,-2.82,1.73
0.006160,0.09,0.37,1.01,-1.21,1.39,1.48
0.006170,0.07,0.37,1.02,-2.01,0.72,1.11
0.006190,0.07,0.37,1.02,-2.51,0.50,1.21
0.006200,0.07,0.38,1.02,-3.19,-1.18,0.93
0.006210,0.08,0.38,1.01,-3.24,-1.97,1.24
0.006230,0.09,0.37,1.02,-2.88,0.59,1.20
0.006240,0.08,0.37,1.01,-3.04,0.05,1.23
0.006250,0.07,0.37,1.01,-2.55,-0.15,1.14
0.006260,0.08,0.38,1.01,-2.66,-0.74,1.45
0.006280,0.08,0.38,1.00,-2.10,0.64,1.98
0.006290,0.06,0.38,1.02,-1.58,1.96,1.51
0.006300,0.07,0.36,1.02,-1.31,0.76,1.11
0.006320,0.07,0.37,1.02,-1.02,-0.95,1.46
0.006330,0.06,0.37,1.03,-2.07,-2.66,1.08
0.006340,0.08,0.38,1.02,-3.08,-1.02,0.53
0.006360,0.08,0.37,1.01,-3.03,1.30,0.72
0.006370,0.08,0.37,0.99,-2.77,2.79,0.58
0.006380,0.07,0.37,1.00,-1.95,1.31,0.88
0.006400,0.07,0.37,1.01,-1.97,0.19,1.09
0.006410,0.06,0.37,1.01,-1.47,0.14,0.67
0.006420,0.06,0.37,1.01,-0.93,1.40,0.52
0.006440,0.05,0.37,1.01,-1.64,0.53,0.35
0.006450,0.06,0.38,1.01,-1.30,0.43,0.07
0.006460,0.06,0.38,1.01,-1.32,-0.77,0.15
0.006480,0.06,0.38,1.01,-1.88,-1.47,0.05
0.006490,0.07,0.38,1.00,-1.48,0.40,0.07
0.006500,0.06,0.36,1.01,-1.29,0.38,0.29
0.006520,0.05,0.37,1.03,-2.15,-1.12,-0.16
0.006530,0.07,0.37,1.01,-2.97,-1.37,-0.62
0.006540,0.08,0.37,1.00,-3.15,-0.18,-0.44
0.006560,0.07,0.37,1.01,-3.59,1.40,0.24
0.006570,0.06,0.36,0.99,-3.55,2.18,0.39
0.006580,0.06,0.36,0.98,-2.47,0.61,-0.06
0.006600,0.05,0.36,0.99,-0.61,-1.13,-0.31
0.006610,0.07,0.36,1.00,0.97,-3.59,-0.95
0.006620,0.07,0.38,1.01,1.56,-2.76,-0.82
0.006640,0.08,0.38,1.03,1.13,1.56,-1.13
0.006650,0.07,0.39,1.04,-0.69,1.76,-0.68
0.006660,0.06,0.39,1.05,-2.63,0.15,0.34
0.006680,0.06,0.38,1.05,-4.11,-1.40,0.41
0.006690,0.05,0.37,1.04,-4.33,-2.44,-0.03
0.006700,0.07,0.36,1.03,-2.85,-0.41,0.02
