Time,acce_x,acce_y,acce_z,gyro_x,gyro_y, gyro_z
0.000,-0.042,-0.069,0.896,-0.473,2.534,0.916
0.000,-0.041,-0.065,0.892,-0.595,1.969,1.206
0.010,-0.041,-0.068,0.882,-0.748,1.023,0.885
0.010,-0.045,-0.066,0.886,-0.901,-0.305,0.855
0.010,-0.043,-0.059,0.887,-0.901,-1.023,0.763
0.020,-0.030,-0.061,0.889,-0.763,-0.809,0.824
0.020,-0.033,-0.057,0.882,-0.733,-0.336,0.855
0.020,-0.031,-0.067,0.891,-0.962,0.061,0.947
0.030,-0.029,-0.062,0.881,-0.916,0.031,0.824
0.030,-0.030,-0.066,0.888,-0.427,-0.122,0.763
0.030,-0.037,-0.070,0.885,-0.107,-0.427,0.931
0.040,-0.038,-0.062,0.881,-0.336,-0.992,0.794
0.040,-0.036,-0.070,0.888,-0.290,-1.634,0.366
0.040,-0.031,-0.065,0.904,-0.198,-1.832,0.092
0.050,-0.026,-0.066,0.887,0.031,-2.000,-0.092
0.050,-0.024,-0.072,0.884,-0.260,-1.893,-0.336
0.060,-0.024,-0.060,0.884,-0.718,-1.466,-0.290
0.060,-0.029,-0.059,0.883,-0.901,-1.008,-0.427
0.060,-0.033,-0.063,0.880,-0.870,-1.053,-0.244
0.070,-0.034,-0.064,0.886,-0.977,-0.931,-0.031
0.070,-0.041,-0.063,0.881,-0.626,-0.473,0.412
0.080,-0.037,-0.064,0.874,-0.626,-0.244,0.840
0.080,-0.044,-0.063,0.873,-0.809,0.031,1.038
0.090,-0.046,-0.063,0.869,-0.458,0.153,1.466
0.090,-0.048,-0.064,0.874,-0.718,0.504,1.511
0.090,-0.046,-0.062,0.872,-0.748,0.076,1.359
0.100,-0.037,-0.060,0.877,-1.237,-1.282,0.718
0.100,-0.027,-0.059,0.865,-1.710,-2.504,0.183
0.110,-0.028,-0.058,0.884,-2.137,-2.336,0.031
0.110,-0.033,-0.058,0.877,-2.672,-2.473,0.000
0.110,-0.026,-0.054,0.878,-3.237,-2.198,0.244
0.120,-0.016,-0.060,0.883,-3.344,-2.107,0.244
0.120,-0.027,-0.066,0.900,-3.160,-1.634,0.107
0.130,-0.026,-0.073,0.908,-2.275,-1.435,0.137
0.130,-0.034,-0.077,0.918,-1.405,-1.099,0.275
0.130,-0.035,-0.082,0.913,-0.473,-0.550,0.412
0.140,-0.037,-0.074,0.916,0.504,-0.031,0.702
0.140,-0.039,-0.072,0.918,1.267,0.046,0.977
0.150,-0.044,-0.069,0.913,1.786,-0.092,1.374
0.150,-0.038,-0.071,0.912,2.092,-0.351,1.328
0.150,-0.036,-0.069,0.901,2.427,-0.885,1.191
0.160,-0.026,-0.059,0.889,2.290,-1.145,0.733
0.160,-0.024,-0.060,0.897,1.863,-1.008,0.702
0.170,-0.022,-0.056,0.876,1.053,-0.687,0.473
0.170,-0.025,-0.053,0.879,0.702,-0.321,0.580
0.170,-0.027,-0.055,0.879,0.443,0.565,0.748
0.180,-0.018,-0.054,0.882,0.397,1.405,0.779
0.180,-0.020,-0.059,0.868,0.061,2.672,0.870
0.190,-0.027,-0.062,0.872,0.000,3.328,0.672
0.190,-0.029,-0.057,0.865,-0.076,4.321,0.885
0.190,-0.042,-0.064,0.875,-0.031,4.977,1.237
0.200,-0.037,-0.063,0.877,-0.427,5.023,1.053
0.200,-0.056,-0.058,0.870,-0.443,4.321,1.359
0.210,-0.069,-0.056,0.858,-1.008,2.626,1.344
0.210,-0.065,-0.056,0.862,-1.969,-0.427,1.008
0.210,-0.040,-0.060,0.867,-2.489,-2.611,0.336
0.220,-0.025,-0.059,0.887,-2.565,-3.359,0.244
0.220,-0.020,-0.056,0.888,-2.687,-3.099,0.305
0.230,-0.020,-0.060,0.892,-3.008,-2.672,0.382
0.230,-0.019,-0.056,0.889,-2.611,-2.595,0.427
0.230,-0.017,-0.060,0.895,-2.107,-2.702,0.519
0.240,-0.021,-0.062,0.878,-1.649,-2.031,0.779
0.240,-0.015,-0.060,0.880,-1.511,-1.374,0.550
0.250,-0.021,-0.063,0.872,-1.115,-0.748,0.504
0.250,-0.022,-0.056,0.884,-1.344,0.321,0.641
0.250,-0.027,-0.058,0.875,-1.115,0.626,0.519
0.260,-0.037,-0.060,0.886,-1.008,0.641,0.840
0.260,-0.034,-0.053,0.883,-1.679,0.198,0.779
0.270,-0.029,-0.057,0.892,-2.122,-0.473,0.473
0.270,-0.027,-0.054,0.879,-2.702,-0.916,0.290
0.270,-0.024,-0.053,0.891,-2.824,-1.496,-0.031
0.280,-0.023,-0.056,0.886,-3.389,-1.664,-0.153
0.280,-0.017,-0.062,0.893,-3.328,-1.863,-0.473
0.290,-0.021,-0.063,0.899,-3.206,-2.092,-0.382
0.290,-0.017,-0.066,0.900,-2.962,-2.000,-0.397
0.300,-0.027,-0.066,0.909,-2.519,-1.710,-0.489
0.300,-0.024,-0.069,0.910,-1.878,-1.740,-0.519
0.300,-0.031,-0.060,0.895,-1.725,-1.435,-0.458
0.310,-0.028,-0.061,0.901,-1.603,-1.008,-0.244
0.310,-0.031,-0.069,0.897,-1.557,-0.412,-0.321
0.320,-0.026,-0.062,0.902,-1.450,0.656,0.015
0.320,-0.035,-0.064,0.899,-1.450,1.130,0.275
0.320,-0.033,-0.060,0.896,-1.389,1.603,0.122
0.330,-0.038,-0.069,0.894,-1.710,1.237,-0.015
0.330,-0.037,-0.068,0.897,-1.924,0.931,0.305
0.340,-0.041,-0.072,0.907,-2.336,0.412,0.137
0.340,-0.035,-0.066,0.887,-2.534,0.794,0.168
0.340,-0.037,-0.068,0.896,-2.809,0.992,0.229
0.350,-0.036,-0.065,0.889,-2.824,1.099,0.275
0.350,-0.034,-0.069,0.890,-2.809,0.870,0.366
0.360,-0.035,-0.072,0.887,-2.809,0.550,0.107
0.360,-0.032,-0.073,0.906,-2.351,0.656,0.305
0.360,-0.024,-0.072,0.907,-1.817,1.053,0.137
0.370,-0.027,-0.071,0.912,-1.527,1.252,0.092
0.370,-0.032,-0.073,0.917,-0.870,1.817,0.137
0.380,-0.038,-0.070,0.896,-0.275,2.092,0.183
0.380,-0.034,-0.070,0.898,-0.107,2.336,0.275
0.380,-0.046,-0.065,0.895,0.198,1.710,0.290
0.390,-0.049,-0.075,0.887,0.244,1.557,0.534
0.390,-0.044,-0.063,0.885,-0.076,1.573,0.626
0.400,-0.037,-0.057,0.882,0.015,1.725,1.008
0.400,-0.046,-0.059,0.886,-0.534,1.588,1.282
0.400,-0.042,-0.052,0.871,-1.038,0.870,1.298
0.410,-0.038,-0.060,0.877,-1.557,0.351,1.145
0.410,-0.031,-0.050,0.890,-1.603,-0.122,1.038
0.420,-0.026,-0.057,0.885,-1.237,-0.489,0.855
0.420,-0.021,-0.065,0.893,-1.145,-0.427,0.702
0.420,-0.024,-0.063,0.892,-1.206,-0.473,0.641
0.430,-0.021,-0.066,0.882,-1.206,0.198,0.443
0.430,-0.023,-0.060,0.887,-0.885,0.153,0.427
0.440,-0.023,-0.062,0.887,-1.099,0.687,0.397
0.440,-0.022,-0.061,0.889,-0.855,1.130,0.550
0.440,-0.017,-0.059,0.878,-0.397,1.817,0.504
0.450,-0.026,-0.058,0.878,-0.718,1.817,0.275
0.450,-0.030,-0.061,0.875,-0.824,1.435,0.229
0.460,-0.024,-0.056,0.883,-1.053,1.420,0.076
0.460,-0.024,-0.058,0.859,-1.389,1.771,0.290
0.460,-0.029,-0.052,0.883,-1.679,2.489,0.565
0.470,-0.023,-0.050,0.868,-2.504,2.794,0.366
0.470,-0.034,-0.050,0.879,-2.916,2.519,0.656
0.480,-0.033,-0.054,0.887,-2.901,2.031,0.718
0.480,-0.041,-0.056,0.892,-2.718,1.969,0.840
0.480,-0.034,-0.059,0.899,-2.718,1.221,0.718
0.490,-0.035,-0.061,0.897,-2.534,0.580,0.473
0.490,-0.029,-0.058,0.898,-2.092,-0.565,0.473
0.500,-0.022,-0.060,0.911,-1.573,-1.282,0.137
0.500,-0.018,-0.059,0.902,-1.420,-1.786,0.076
0.500,-0.015,-0.059,0.902,-1.053,-2.046,-0.183
0.510,-0.014,-0.062,0.896,-0.794,-2.427,-0.656
0.510,-0.012,-0.060,0.903,-0.977,-2.763,-0.718
0.520,-0.012,-0.053,0.882,-0.931,-2.458,-1.191
0.520,-0.011,-0.060,0.875,-1.359,-2.260,-1.496
0.520,-0.017,-0.054,0.879,-1.557,-1.908,-1.649
0.530,-0.031,-0.053,0.876,-2.183,-1.374,-1.740
0.530,-0.041,-0.055,0.885,-2.519,-0.824,-1.527
0.540,-0.040,-0.060,0.893,-2.519,-0.275,-0.992
0.540,-0.042,-0.064,0.906,-2.305,0.687,-0.534
0.550,-0.044,-0.066,0.923,-2.031,0.794,-0.382
0.550,-0.051,-0.063,0.921,-1.573,0.458,-0.412
0.550,-0.041,-0.071,0.919,-1.298,0.260,-0.443
0.560,-0.040,-0.072,0.922,-0.824,-0.046,-0.198
0.560,-0.040,-0.066,0.932,-0.076,-0.198,-0.092
0.570,-0.036,-0.071,0.929,0.580,-0.626,0.122
0.570,-0.043,-0.066,0.928,0.489,-1.664,-0.122
0.570,-0.033,-0.065,0.916,0.901,-2.580,0.031
0.580,-0.039,-0.065,0.917,0.947,-2.763,0.046
0.580,-0.024,-0.063,0.919,1.267,-2.107,0.168
0.590,-0.025,-0.066,0.920,1.695,-1.420,0.321
0.590,-0.024,-0.064,0.912,1.634,-1.023,0.290
0.590,-0.031,-0.063,0.909,1.771,-0.489,0.061
0.600,-0.016,-0.063,0.923,1.969,0.260,0.015
0.600,-0.018,-0.060,0.915,1.939,0.962,0.076
0.610,-0.022,-0.062,0.920,1.985,2.489,-0.061
0.610,-0.011,-0.062,0.924,1.863,3.832,0.183
0.610,-0.008,-0.057,0.938,1.985,4.565,0.122
0.620,-0.017,-0.064,0.933,1.832,4.748,-0.015
0.620,-0.020,-0.060,0.929,1.954,4.244,-0.382
0.630,-0.014,-0.066,0.954,2.229,3.969,-0.565
0.630,-0.024,-0.063,0.943,2.779,4.519,-0.504
0.630,-0.026,-0.069,0.948,3.145,4.061,-0.611
0.640,-0.036,-0.069,0.957,3.969,3.557,-0.443
0.640,-0.043,-0.067,0.963,4.580,2.885,-0.565
0.650,-0.040,-0.067,0.966,5.710,2.962,-0.351
0.650,-0.047,-0.059,0.971,6.366,2.611,-0.046
0.650,-0.050,-0.068,0.954,6.870,2.229,0.031
0.660,-0.056,-0.064,0.979,7.435,2.351,0.611
0.660,-0.062,-0.062,0.970,7.847,2.275,1.145
0.670,-0.069,-0.062,0.973,8.076,2.305,1.588
0.670,-0.070,-0.064,0.982,8.305,2.397,2.198
0.670,-0.076,-0.066,0.993,8.885,2.855,3.115
0.680,-0.069,-0.065,1.001,9.267,3.344,3.786
0.680,-0.063,-0.067,1.013,9.863,4.244,4.595
0.680,-0.057,-0.063,1.016,10.458,4.809,5.053
0.690,-0.052,-0.060,1.032,10.733,4.870,5.298
0.690,-0.036,-0.059,1.044,11.511,5.389,5.649
0.700,-0.023,-0.058,1.069,12.305,6.687,6.229
0.700,0.000,-0.058,1.077,13.481,8.092,6.305
0.700,0.008,-0.063,1.113,13.847,9.435,6.443
0.710,0.011,-0.073,1.165,15.878,10.229,6.595
0.710,0.022,-0.050,1.171,18.031,12.611,7.282
0.720,0.035,-0.076,1.220,20.015,14.840,7.450
0.720,0.034,-0.089,1.250,22.870,17.496,7.542
0.720,0.006,-0.087,1.290,25.878,19.389,8.824
0.730,-0.019,-0.098,1.313,30.733,21.695,10.305
0.730,-0.022,-0.097,1.337,34.214,24.153,11.954
0.740,-0.039,-0.106,1.341,37.618,25.954,13.389
0.740,-0.048,-0.105,1.356,41.985,29.282,14.748
0.750,-0.063,-0.124,1.394,47.389,30.198,16.275
0.750,-0.089,-0.119,1.392,51.725,30.046,17.603
0.750,-0.106,-0.121,1.394,55.939,30.137,19.634
0.760,-0.119,-0.125,1.416,59.878,29.863,21.405
0.760,-0.115,-0.129,1.415,63.924,29.115,23.084
0.770,-0.117,-0.134,1.425,67.634,28.519,24.336
0.770,-0.128,-0.138,1.422,71.863,27.176,25.191
0.770,-0.130,-0.133,1.429,75.832,25.450,25.908
0.780,-0.129,-0.127,1.413,79.389,24.550,26.198
0.780,-0.095,-0.114,1.391,81.191,25.664,25.817
0.790,-0.088,-0.106,1.378,82.687,26.916,25.557
0.790,-0.122,-0.107,1.410,86.855,23.740,25.756
0.800,-0.129,-0.115,1.436,93.237,19.466,25.863
0.800,-0.116,-0.105,1.399,98.382,17.664,25.298
0.800,-0.115,-0.090,1.347,101.069,17.908,24.962
0.810,-0.132,-0.078,1.324,104.183,18.458,25.359
0.810,-0.159,-0.075,1.312,107.069,17.481,26.260
0.820,-0.173,-0.066,1.306,109.878,15.557,27.267
0.820,-0.177,-0.070,1.293,112.870,14.260,28.595
0.820,-0.178,-0.060,1.283,115.985,12.870,29.740
0.830,-0.186,-0.060,1.258,119.237,11.939,30.748
0.830,-0.184,-0.055,1.232,121.969,10.473,31.588
0.840,-0.189,-0.042,1.199,124.214,8.397,32.244
0.840,-0.185,-0.033,1.181,125.573,6.076,33.389
0.850,-0.169,-0.026,1.149,126.702,4.092,34.244
0.850,-0.159,-0.017,1.155,128.351,2.351,35.496
0.850,-0.144,-0.026,1.148,130.565,1.176,36.412
0.860,-0.139,-0.014,1.141,132.534,-0.015,37.466
0.860,-0.130,0.000,1.115,133.847,-2.382,38.031
0.870,-0.102,0.003,1.110,135.542,-3.221,38.641
0.870,-0.087,0.010,1.116,137.374,-3.618,38.580
0.880,-0.063,0.014,1.104,139.618,-0.962,39.420
0.880,-0.066,0.016,1.082,141.664,-0.107,38.397
0.880,-0.071,0.021,1.085,144.366,-1.252,38.489
0.890,-0.071,0.040,1.046,146.779,-3.710,37.420
0.890,-0.056,0.046,1.034,147.695,-3.221,37.053
0.900,-0.053,0.074,0.992,147.954,-1.115,36.305
0.900,-0.066,0.083,0.976,148.107,0.229,36.046
0.900,-0.091,0.083,0.973,146.580,-1.557,35.008
0.910,-0.106,0.101,0.969,145.832,-2.458,34.092
0.910,-0.088,0.085,0.887,150.351,1.679,35.252
0.920,-0.136,0.123,0.944,153.282,-1.969,35.267
0.920,-0.122,0.138,0.907,153.466,-1.557,36.198
0.930,-0.120,0.150,0.882,153.023,0.275,37.115
0.930,-0.114,0.149,0.879,153.298,0.000,37.695
0.930,-0.120,0.153,0.894,153.908,-1.893,37.710
0.940,-0.113,0.155,0.891,155.023,-2.718,37.786
0.940,-0.111,0.166,0.875,156.214,-1.466,37.649
0.950,-0.109,0.167,0.850,157.115,0.489,37.878
0.950,-0.124,0.177,0.858,157.924,0.534,37.908
0.950,-0.127,0.182,0.838,158.366,-0.885,37.954
0.960,-0.127,0.190,0.833,158.977,-2.977,38.092
0.960,-0.122,0.215,0.827,158.443,-4.534,38.611
0.970,-0.106,0.220,0.808,156.855,-2.901,39.176
0.970,-0.099,0.232,0.760,157.008,-0.107,39.969
0.970,-0.101,0.246,0.748,158.183,-0.015,39.939
0.980,-0.111,0.268,0.728,159.145,-1.985,40.290
0.980,-0.106,0.285,0.697,157.969,-2.962,40.412
0.990,-0.096,0.296,0.702,156.595,-2.702,39.969
0.990,-0.085,0.299,0.705,156.198,-2.366,39.649
1.000,-0.068,0.297,0.724,156.183,-1.740,39.374
1.000,-0.067,0.297,0.737,155.908,-0.427,38.931
1.000,-0.061,0.305,0.732,155.847,-0.504,38.015
1.010,-0.061,0.301,0.743,156.168,-0.885,36.611
1.010,-0.057,0.307,0.734,156.870,-0.748,35.298
1.020,-0.052,0.307,0.731,157.924,0.107,36.076
1.020,-0.070,0.308,0.724,160.443,3.221,34.244
1.020,-0.061,0.319,0.696,162.137,3.542,33.328
1.030,-0.068,0.336,0.722,163.130,2.382,34.824
1.030,-0.076,0.337,0.688,165.802,4.305,34.947
1.040,-0.094,0.353,0.657,167.313,5.863,35.191
1.040,-0.085,0.374,0.655,167.847,6.626,36.672
1.050,-0.084,0.387,0.644,168.046,7.573,37.847
1.050,-0.081,0.387,0.643,168.244,8.031,38.015
1.050,-0.059,0.397,0.646,167.344,8.840,38.153
1.060,-0.036,0.402,0.647,166.824,10.748,37.832
1.060,-0.028,0.410,0.644,166.122,13.115,36.947
1.070,-0.015,0.417,0.630,165.344,15.191,36.397
1.070,-0.025,0.413,0.627,165.115,16.321,35.557
1.070,-0.031,0.426,0.615,164.550,16.153,35.145
1.080,-0.023,0.431,0.601,164.153,16.366,34.397
1.080,-0.026,0.437,0.577,163.649,16.702,33.817
1.090,-0.039,0.443,0.561,163.924,16.534,33.267
1.090,-0.042,0.447,0.552,164.977,16.046,32.809
1.090,-0.069,0.458,0.522,166.870,15.405,32.611
1.100,-0.081,0.469,0.495,168.519,13.221,32.672
1.100,-0.077,0.490,0.473,168.672,12.031,33.237
1.110,-0.058,0.511,0.452,168.565,13.618,33.710
1.110,-0.041,0.518,0.439,167.389,15.069,34.489
1.120,-0.050,0.525,0.433,165.191,15.618,35.267
1.120,-0.047,0.531,0.435,163.725,15.618,36.214
1.120,-0.043,0.524,0.457,162.672,16.092,36.931
1.130,-0.023,0.523,0.458,162.779,18.275,38.137
1.130,-0.004,0.520,0.466,163.893,20.107,38.565
1.140,0.011,0.508,0.468,165.542,21.298,38.244
1.140,0.008,0.516,0.447,167.008,21.191,37.374
1.140,0.010,0.533,0.417,167.557,21.084,36.733
1.150,0.014,0.543,0.392,167.450,21.221,35.740
1.150,0.021,0.543,0.399,167.985,21.435,35.267
1.160,0.014,0.561,0.376,169.084,20.489,34.427
1.160,0.005,0.563,0.368,169.557,19.740,34.214
1.160,0.008,0.580,0.351,170.321,18.656,34.580
1.170,0.005,0.581,0.338,171.695,18.260,34.733
1.170,0.006,0.590,0.317,172.092,18.840,35.191
1.180,0.007,0.590,0.312,172.534,19.145,35.176
1.180,0.015,0.599,0.294,173.023,19.908,35.191
1.190,0.009,0.612,0.273,173.221,20.214,35.069
1.190,0.008,0.632,0.247,172.290,20.397,35.191
1.190,0.009,0.641,0.214,170.382,21.313,35.679
1.200,-0.006,0.649,0.198,168.443,21.603,36.534
1.200,0.003,0.650,0.198,167.267,21.908,37.847
1.210,0.018,0.635,0.189,165.496,21.664,38.336
1.210,0.005,0.655,0.199,165.374,20.214,39.664
1.210,-0.000,0.640,0.195,166.550,16.076,39.008
1.220,-0.001,0.635,0.184,166.672,14.443,40.076
1.220,0.020,0.651,0.171,166.168,14.611,41.435
1.230,0.030,0.646,0.175,166.137,14.687,41.954
1.230,0.024,0.643,0.171,167.115,12.183,42.473
1.230,0.035,0.641,0.154,167.389,10.336,43.084
1.240,0.062,0.657,0.112,167.924,10.382,43.069
1.240,0.087,0.672,0.080,167.023,10.473,42.779
1.250,0.092,0.677,0.054,166.107,11.145,41.893
1.250,0.107,0.681,0.030,166.168,12.107,41.618
1.250,0.111,0.681,0.025,168.183,13.221,41.237
1.260,0.105,0.684,0.027,169.847,14.214,41.191
1.260,0.123,0.689,0.007,170.061,17.008,41.099
1.270,0.128,0.684,-0.021,168.962,21.099,40.733
1.270,0.126,0.688,-0.028,168.443,23.649,40.412
1.280,0.121,0.703,-0.047,167.695,24.855,39.878
1.280,0.103,0.716,-0.085,166.153,26.214,39.832
1.280,0.100,0.725,-0.112,163.695,26.031,40.641
1.290,0.084,0.735,-0.104,161.313,24.015,40.855
1.290,0.084,0.730,-0.101,159.328,22.412,41.298
1.300,0.086,0.725,-0.106,157.664,21.237,42.168
1.300,0.100,0.726,-0.096,156.641,20.244,42.901
1.300,0.094,0.700,-0.096,158.260,18.626,43.557
1.310,0.104,0.693,-0.121,160.061,17.191,43.679
1.310,0.113,0.698,-0.135,160.366,15.664,43.954
1.320,0.127,0.720,-0.152,160.489,15.130,44.351
1.320,0.151,0.711,-0.172,160.534,16.366,44.504
1.330,0.160,0.726,-0.190,159.893,17.267,44.458
1.330,0.165,0.732,-0.224,159.298,16.595,44.107
1.330,0.161,0.729,-0.231,159.771,13.695,43.084
1.340,0.156,0.749,-0.254,158.641,11.405,42.427
1.340,0.170,0.747,-0.280,156.855,11.374,41.618
1.350,0.172,0.760,-0.304,154.885,11.206,40.641
1.350,0.173,0.768,-0.327,151.802,10.519,39.542
1.350,0.170,0.782,-0.347,148.840,9.527,38.885
1.360,0.164,0.784,-0.348,145.969,8.092,38.122
1.360,0.171,0.775,-0.351,143.588,7.542,37.557
1.370,0.175,0.777,-0.351,141.130,8.427,36.840
1.370,0.176,0.776,-0.367,139.374,8.168,36.397
1.380,0.171,0.776,-0.365,138.458,6.977,35.832
1.380,0.173,0.782,-0.380,137.267,5.817,34.977
1.380,0.174,0.781,-0.412,135.298,6.412,34.580
1.390,0.178,0.781,-0.431,133.710,7.450,34.580
1.390,0.174,0.788,-0.443,132.351,8.046,34.595
1.400,0.174,0.790,-0.456,130.336,8.916,34.626
1.400,0.176,0.784,-0.475,128.321,9.771,34.885
1.400,0.173,0.772,-0.472,127.053,10.061,34.718
1.410,0.174,0.767,-0.474,125.679,9.679,34.641
1.410,0.168,0.768,-0.505,123.603,9.344,34.656
1.420,0.176,0.770,-0.524,121.267,8.809,34.748
1.420,0.183,0.760,-0.541,119.053,8.382,35.084
1.420,0.180,0.764,-0.548,117.298,6.809,35.130
1.430,0.179,0.761,-0.564,114.550,4.076,34.718
1.430,0.168,0.756,-0.578,111.160,0.015,34.427
1.440,0.176,0.745,-0.561,108.794,-4.168,34.000
1.440,0.182,0.728,-0.535,107.908,-7.588,33.618
1.440,0.210,0.725,-0.544,107.588,-9.679,33.405
1.450,0.213,0.729,-0.566,107.160,-10.489,32.748
1.450,0.221,0.745,-0.596,105.649,-11.786,32.275
1.460,0.219,0.752,-0.601,103.756,-13.664,31.221
1.460,0.235,0.748,-0.591,103.282,-15.389,30.382
1.470,0.241,0.749,-0.592,103.389,-15.298,29.511
1.470,0.252,0.747,-0.595,102.641,-14.427,29.069
1.470,0.244,0.754,-0.616,101.191,-14.519,28.290
1.480,0.241,0.754,-0.625,100.015,-17.099,27.664
1.480,0.236,0.758,-0.643,97.542,-18.519,26.534
1.490,0.250,0.757,-0.667,97.099,-14.885,25.893
1.490,0.262,0.755,-0.664,95.176,-9.466,25.985
1.500,0.249,0.747,-0.669,94.565,-5.160,26.031
1.500,0.239,0.750,-0.685,91.863,-3.481,25.847
1.500,0.227,0.750,-0.682,91.053,-3.023,25.603
1.510,0.225,0.734,-0.681,89.756,-3.130,25.481
1.510,0.219,0.728,-0.656,88.931,-2.901,25.786
1.520,0.217,0.720,-0.651,88.000,-2.534,25.435
1.520,0.221,0.724,-0.650,87.282,-2.702,25.679
1.520,0.228,0.716,-0.647,86.565,-3.496,25.511
1.530,0.225,0.717,-0.631,86.641,-4.885,25.008
1.530,0.233,0.719,-0.639,87.069,-6.229,24.061
1.540,0.238,0.726,-0.667,87.176,-6.305,23.420
1.540,0.256,0.746,-0.695,86.824,-5.160,22.626
1.540,0.249,0.769,-0.737,85.115,-3.878,22.305
1.550,0.237,0.787,-0.755,83.038,-4.412,21.924
1.550,0.230,0.786,-0.755,81.191,-5.176,20.992
1.560,0.224,0.776,-0.743,79.527,-5.817,20.336
1.560,0.235,0.777,-0.752,77.832,-6.107,19.573
1.560,0.224,0.773,-0.750,75.405,-6.840,19.160
1.570,0.216,0.776,-0.760,72.824,-7.985,18.794
1.570,0.199,0.761,-0.744,71.023,-9.023,18.809
1.580,0.202,0.750,-0.730,69.924,-10.336,18.656
1.580,0.211,0.750,-0.731,69.191,-10.794,18.473
1.590,0.213,0.748,-0.743,68.626,-10.504,18.595
1.590,0.204,0.754,-0.768,68.137,-10.244,18.641
1.590,0.213,0.753,-0.782,67.420,-9.542,18.763
1.600,0.216,0.755,-0.794,66.962,-8.656,19.053
1.600,0.227,0.749,-0.809,65.634,-6.702,19.374
1.610,0.224,0.734,-0.809,65.344,-5.603,19.756
1.610,0.217,0.734,-0.818,64.916,-6.137,19.374
1.610,0.209,0.727,-0.817,64.168,-7.237,19.481
1.620,0.207,0.740,-0.832,61.802,-8.168,19.496
1.620,0.195,0.733,-0.820,60.473,-9.344,19.679
1.630,0.198,0.723,-0.819,59.695,-10.504,20.092
1.630,0.206,0.723,-0.807,59.053,-11.176,20.519
1.630,0.214,0.727,-0.829,58.015,-11.466,20.794
1.640,0.215,0.731,-0.847,56.702,-11.771,20.824
1.640,0.225,0.730,-0.856,55.588,-12.046,21.130
1.650,0.235,0.736,-0.863,55.466,-11.802,21.221
1.650,0.249,0.734,-0.865,55.481,-11.450,20.947
1.660,0.254,0.734,-0.888,54.458,-10.733,20.351
1.660,0.253,0.751,-0.917,52.595,-10.977,19.893
1.660,0.261,0.744,-0.916,51.374,-10.840,19.740
1.670,0.267,0.744,-0.923,49.679,-9.664,19.389
1.670,0.273,0.738,-0.940,48.046,-7.466,18.824
1.680,0.270,0.736,-0.956,45.756,-6.840,18.137
1.680,0.280,0.745,-0.965,42.809,-6.092,17.237
1.680,0.271,0.749,-0.995,40.214,-5.237,16.519
1.690,0.271,0.749,-1.004,37.206,-4.595,16.046
1.690,0.269,0.753,-1.012,34.031,-3.328,15.817
1.700,0.271,0.754,-1.028,30.885,-2.840,15.756
1.700,0.265,0.757,-1.040,27.252,-4.595,16.107
1.700,0.260,0.769,-1.057,22.611,-3.496,15.786
1.710,0.277,0.776,-1.068,18.382,-0.046,15.725
1.710,0.301,0.779,-1.057,14.244,3.603,16.122
1.720,0.303,0.776,-1.051,9.863,5.053,15.969
1.720,0.313,0.768,-1.043,6.000,4.214,15.817
1.720,0.322,0.757,-1.033,1.939,4.153,14.947
1.730,0.322,0.754,-1.020,-1.267,2.992,13.878
1.730,0.305,0.751,-1.027,-5.176,-3.237,12.916
1.740,0.319,0.742,-0.984,-8.855,-6.824,10.168
1.740,0.354,0.738,-0.979,-10.718,-4.672,8.489
1.740,0.373,0.746,-0.966,-12.947,-2.092,7.634
1.750,0.337,0.747,-0.957,-15.771,-5.160,6.046
1.750,0.311,0.731,-0.935,-16.977,-11.695,4.748
1.760,0.297,0.734,-0.903,-17.389,-18.748,3.130
1.760,0.309,0.730,-0.889,-18.107,-23.756,1.634
1.770,0.312,0.733,-0.892,-18.824,-26.382,0.412
1.770,0.319,0.736,-0.886,-19.771,-27.786,-0.397
1.770,0.306,0.731,-0.863,-19.863,-29.313,-0.885
1.780,0.320,0.730,-0.847,-19.985,-28.840,-1.908
1.780,0.318,0.725,-0.827,-19.435,-27.023,-1.863
1.790,0.300,0.723,-0.789,-18.534,-25.756,-1.954
1.790,0.291,0.709,-0.777,-16.855,-24.702,-1.496
1.800,0.294,0.709,-0.762,-14.809,-22.107,-0.427
1.800,0.288,0.705,-0.760,-13.405,-19.496,0.626
1.800,0.290,0.706,-0.724,-11.832,-17.450,2.137
1.810,0.294,0.711,-0.719,-11.038,-16.595,2.412
1.810,0.314,0.729,-0.721,-10.107,-15.649,2.855
1.820,0.319,0.729,-0.705,-8.901,-14.672,2.977
1.820,0.330,0.748,-0.698,-8.626,-14.244,2.351
1.820,0.333,0.747,-0.693,-7.924,-13.573,2.000
1.830,0.345,0.752,-0.683,-7.023,-13.038,1.496
1.830,0.346,0.753,-0.680,-5.603,-13.130,0.656
1.840,0.354,0.764,-0.686,-4.916,-13.252,-0.351
1.840,0.353,0.773,-0.709,-4.519,-13.160,-1.450
1.840,0.350,0.786,-0.727,-4.595,-12.885,-2.931
1.850,0.354,0.794,-0.732,-4.992,-11.389,-4.305
1.850,0.348,0.802,-0.756,-5.573,-8.427,-5.374
1.860,0.345,0.796,-0.760,-6.397,-5.145,-6.427
1.860,0.346,0.803,-0.771,-7.221,-1.725,-7.206
1.870,0.348,0.789,-0.777,-8.748,1.603,-8.183
1.870,0.345,0.796,-0.779,-10.397,4.824,-9.191
1.870,0.327,0.798,-0.783,-11.939,7.221,-10.336
1.880,0.314,0.785,-0.790,-13.435,10.046,-11.954
1.880,0.329,0.781,-0.790,-14.931,13.542,-13.298
1.890,0.326,0.773,-0.806,-16.122,15.649,-14.443
1.890,0.293,0.766,-0.811,-17.466,16.473,-15.389
1.890,0.286,0.763,-0.822,-18.076,16.885,-15.679
1.900,0.288,0.756,-0.823,-18.412,18.122,-15.939
1.900,0.269,0.750,-0.824,-18.397,19.008,-15.847
1.910,0.252,0.738,-0.823,-17.756,18.656,-15.771
1.910,0.241,0.739,-0.846,-17.405,16.427,-15.863
1.920,0.230,0.747,-0.865,-18.137,13.435,-15.985
1.920,0.229,0.759,-0.884,-19.221,10.840,-15.359
1.920,0.227,0.755,-0.895,-20.244,8.122,-15.221
1.930,0.224,0.766,-0.910,-21.802,4.947,-15.344
1.930,0.237,0.777,-0.932,-24.061,2.031,-15.878
1.940,0.248,0.776,-0.941,-26.351,0.015,-16.183
1.940,0.245,0.787,-0.944,-29.145,-1.115,-17.069
1.950,0.264,0.787,-0.964,-31.817,-1.557,-17.634
1.950,0.273,0.784,-0.969,-34.779,-1.649,-18.626
1.950,0.279,0.795,-0.979,-37.481,-0.229,-19.771
1.960,0.297,0.800,-1.001,-40.901,2.046,-21.023
1.960,0.289,0.804,-1.010,-44.336,3.939,-22.046
1.970,0.283,0.806,-1.008,-48.153,4.183,-23.084
1.970,0.285,0.805,-0.981,-51.954,4.092,-23.527
1.970,0.288,0.790,-0.986,-55.863,5.710,-24.305
1.980,0.293,0.784,-0.969,-59.130,7.435,-25.160
1.980,0.286,0.776,-0.953,-62.244,8.183,-25.695
1.990,0.289,0.772,-0.930,-65.145,8.794,-25.985
1.990,0.273,0.757,-0.914,-67.191,7.130,-28.015
2.000,0.291,0.760,-0.900,-69.786,7.603,-28.031
2.000,0.286,0.767,-0.899,-72.504,7.008,-29.115
2.000,0.277,0.755,-0.875,-73.481,5.450,-29.679
2.010,0.276,0.746,-0.863,-74.168,3.298,-31.267
2.010,0.265,0.755,-0.857,-75.924,2.595,-32.183
2.020,0.259,0.759,-0.860,-77.893,2.580,-33.206
2.020,0.242,0.754,-0.833,-78.824,1.435,-34.122
2.020,0.242,0.752,-0.830,-80.061,0.916,-34.855
2.030,0.243,0.760,-0.837,-81.618,2.412,-35.389
2.030,0.229,0.755,-0.843,-83.328,4.412,-36.214
2.040,0.226,0.764,-0.858,-85.145,5.954,-36.824
2.040,0.227,0.770,-0.872,-87.740,8.076,-37.237
2.050,0.208,0.774,-0.879,-90.870,10.092,-37.817
2.050,0.195,0.783,-0.888,-94.473,11.649,-38.183
2.050,0.183,0.790,-0.886,-98.198,11.939,-38.687
2.060,0.175,0.795,-0.902,-102.137,10.870,-39.038
2.060,0.164,0.800,-0.896,-106.626,9.267,-39.771
2.070,0.151,0.806,-0.887,-110.656,6.718,-40.122
2.070,0.140,0.800,-0.874,-114.504,4.611,-40.168
2.080,0.138,0.793,-0.850,-117.481,2.305,-40.061
2.080,0.127,0.775,-0.819,-119.374,-0.824,-39.985
2.080,0.127,0.778,-0.795,-121.496,-4.260,-39.817
2.090,0.119,0.771,-0.765,-122.977,-7.771,-40.015
2.090,0.121,0.764,-0.750,-123.481,-10.962,-39.511
2.100,0.115,0.762,-0.730,-124.489,-13.771,-38.947
2.100,0.111,0.767,-0.715,-125.756,-15.786,-37.832
2.110,0.106,0.767,-0.684,-126.580,-17.588,-37.008
2.110,0.124,0.772,-0.682,-127.557,-17.908,-36.397
2.110,0.129,0.766,-0.662,-128.809,-19.481,-35.847
2.120,0.143,0.777,-0.651,-129.649,-19.924,-35.649
2.120,0.157,0.787,-0.653,-131.221,-18.748,-35.023
2.130,0.165,0.804,-0.659,-134.168,-18.061,-35.023
2.130,0.168,0.814,-0.654,-136.901,-18.733,-34.779
2.140,0.175,0.819,-0.644,-139.481,-18.626,-34.702
2.140,0.201,0.814,-0.632,-141.573,-17.786,-35.267
2.150,0.206,0.820,-0.630,-144.168,-17.695,-36.641
2.150,0.215,0.815,-0.615,-146.763,-18.672,-37.924
2.150,0.222,0.809,-0.610,-149.481,-18.137,-39.450
2.160,0.225,0.814,-0.603,-152.458,-17.145,-40.855
2.160,0.216,0.819,-0.597,-155.344,-16.656,-42.031
2.170,0.216,0.818,-0.579,-158.504,-16.198,-43.618
2.170,0.202,0.816,-0.572,-161.405,-15.786,-44.931
2.180,0.196,0.816,-0.571,-165.191,-14.992,-46.275
2.180,0.173,0.819,-0.552,-169.389,-15.344,-47.450
2.190,0.155,0.822,-0.552,-174.015,-16.092,-48.519
2.190,0.140,0.827,-0.544,-178.229,-17.466,-49.130
2.190,0.122,0.828,-0.542,-183.145,-19.573,-50.137
2.200,0.105,0.820,-0.527,-187.954,-22.092,-50.931
2.200,0.103,0.813,-0.503,-192.137,-25.573,-51.527
2.210,0.091,0.782,-0.452,-194.153,-29.176,-52.489
2.210,0.106,0.754,-0.428,-194.947,-29.237,-52.809
2.220,0.104,0.731,-0.374,-195.328,-27.939,-52.519
2.220,0.086,0.713,-0.314,-193.573,-28.824,-51.954
2.230,0.076,0.678,-0.251,-190.504,-28.397,-50.992
2.230,0.078,0.656,-0.215,-185.878,-26.947,-50.260
2.230,0.075,0.637,-0.148,-179.802,-24.290,-48.687
2.240,0.057,0.635,-0.115,-173.832,-23.237,-47.099
2.240,0.053,0.632,-0.070,-166.870,-21.725,-45.053
2.250,0.054,0.619,-0.081,-159.176,-20.183,-42.779
2.250,0.030,0.664,-0.025,-158.168,-21.740,-40.794
2.260,0.041,0.669,-0.062,-157.252,-19.130,-38.931
2.260,0.031,0.684,-0.046,-155.359,-19.511,-37.420
2.270,0.044,0.694,-0.041,-153.756,-20.290,-36.412
2.270,0.055,0.720,-0.079,-153.008,-19.084,-36.137
2.270,0.062,0.728,-0.106,-152.885,-18.244,-35.985
2.280,0.054,0.748,-0.138,-154.198,-18.748,-36.290
2.280,0.063,0.764,-0.141,-157.191,-20.580,-36.626
2.290,0.061,0.786,-0.153,-161.420,-21.130,-37.099
2.290,0.065,0.780,-0.151,-164.611,-19.618,-37.466
2.300,0.067,0.758,-0.138,-167.313,-19.099,-38.611
2.300,0.046,0.749,-0.126,-169.756,-19.863,-39.511
2.310,0.034,0.745,-0.111,-172.656,-20.809,-40.031
2.310,0.027,0.739,-0.106,-175.038,-20.687,-39.924
2.310,0.029,0.733,-0.072,-176.870,-20.046,-39.725
2.320,0.026,0.721,-0.054,-177.740,-20.687,-38.901
2.320,0.027,0.688,-0.000,-177.863,-22.137,-38.840
2.330,0.023,0.683,0.031,-178.214,-23.496,-38.519
2.330,0.022,0.661,0.068,-176.840,-26.122,-38.336
2.340,0.025,0.647,0.095,-175.511,-28.641,-38.290
2.340,0.027,0.631,0.134,-173.008,-30.168,-38.153
2.340,0.028,0.613,0.172,-169.893,-31.771,-37.679
2.350,0.026,0.592,0.194,-165.847,-33.053,-37.130
2.350,0.024,0.594,0.236,-163.206,-33.069,-36.885
2.360,0.034,0.590,0.233,-160.412,-30.870,-36.000
2.360,0.037,0.590,0.242,-158.382,-26.412,-35.496
2.370,0.031,0.591,0.241,-156.916,-22.931,-34.061
2.370,0.019,0.587,0.237,-156.153,-22.504,-33.038
2.370,-0.001,0.595,0.233,-155.832,-22.733,-32.550
2.380,-0.003,0.601,0.253,-155.908,-21.267,-31.328
2.380,-0.002,0.593,0.277,-155.130,-18.718,-30.275
2.390,-0.006,0.598,0.297,-155.313,-15.847,-28.870
2.390,-0.018,0.606,0.298,-156.198,-14.763,-27.466
2.400,-0.011,0.608,0.306,-157.710,-14.122,-26.977
2.400,-0.007,0.599,0.311,-157.863,-11.969,-26.305
2.410,-0.002,0.606,0.321,-159.145,-9.740,-26.214
2.410,-0.000,0.608,0.323,-159.573,-9.145,-26.321
2.410,-0.027,0.604,0.327,-160.244,-9.191,-26.397
2.420,-0.028,0.599,0.331,-161.252,-9.359,-26.473
2.420,-0.031,0.590,0.339,-161.145,-10.595,-26.962
2.430,-0.040,0.582,0.340,-161.359,-12.779,-27.756
2.430,-0.043,0.580,0.342,-160.687,-15.038,-28.000
2.440,-0.052,0.579,0.361,-159.969,-17.618,-27.832
2.440,-0.037,0.558,0.377,-158.763,-19.252,-27.573
2.450,-0.035,0.549,0.405,-157.069,-20.611,-27.389
2.450,-0.025,0.529,0.432,-155.832,-20.687,-26.947
2.450,-0.021,0.510,0.459,-154.260,-19.160,-26.321
2.460,-0.023,0.494,0.494,-152.641,-16.824,-25.206
2.460,-0.025,0.495,0.505,-151.069,-13.115,-23.557
2.470,-0.021,0.479,0.527,-149.908,-8.885,-22.168
2.470,-0.023,0.480,0.532,-148.916,-4.779,-21.191
2.480,-0.043,0.466,0.560,-147.221,-2.351,-20.489
2.480,-0.039,0.468,0.590,-146.244,-2.733,-20.153
2.480,-0.046,0.449,0.609,-145.527,-3.053,-20.992
2.490,-0.046,0.452,0.615,-143.924,-4.412,-21.588
2.490,-0.058,0.454,0.633,-142.107,-8.504,-22.305
2.500,-0.068,0.448,0.626,-140.824,-13.053,-23.313
2.500,-0.075,0.447,0.632,-138.458,-17.893,-23.695
2.510,-0.088,0.448,0.638,-135.710,-23.389,-23.771
2.510,-0.092,0.451,0.635,-133.267,-29.023,-23.374
2.520,-0.080,0.445,0.628,-131.069,-34.397,-22.763
2.520,-0.068,0.442,0.630,-129.649,-37.878,-22.076
2.520,-0.051,0.444,0.632,-128.443,-39.405,-21.008
2.530,-0.034,0.456,0.631,-128.061,-39.145,-20.366
2.530,-0.001,0.454,0.622,-129.053,-36.458,-19.740
2.540,0.021,0.452,0.605,-130.534,-32.534,-19.374
2.540,0.045,0.446,0.619,-132.443,-28.733,-19.679
2.550,0.060,0.435,0.631,-134.092,-24.870,-20.076
2.550,0.069,0.428,0.645,-135.863,-20.656,-21.282
2.560,0.083,0.417,0.667,-137.176,-16.122,-22.565
2.560,0.085,0.398,0.667,-137.985,-11.924,-24.458
2.560,0.082,0.389,0.698,-138.229,-9.328,-26.412
2.570,0.069,0.380,0.701,-138.947,-7.557,-28.260
2.570,0.051,0.367,0.713,-139.282,-6.901,-30.046
2.580,0.038,0.355,0.717,-138.779,-6.901,-31.298
2.580,0.017,0.337,0.746,-137.832,-7.664,-32.260
2.590,-0.009,0.328,0.760,-135.878,-8.779,-32.443
2.590,-0.029,0.314,0.781,-134.015,-9.725,-32.397
2.590,-0.051,0.308,0.802,-131.969,-11.130,-31.786
2.600,-0.064,0.296,0.813,-130.427,-12.244,-30.687
2.600,-0.067,0.289,0.823,-128.092,-11.679,-29.252
2.610,-0.080,0.290,0.824,-127.038,-10.214,-26.931
2.610,-0.074,0.296,0.816,-126.687,-7.924,-24.901
2.620,-0.078,0.279,0.847,-125.374,-6.473,-23.557
2.620,-0.080,0.268,0.861,-124.397,-6.122,-22.229
2.620,-0.079,0.264,0.868,-124.153,-3.313,-20.626
2.630,-0.069,0.251,0.851,-123.603,0.565,-19.389
2.630,-0.076,0.241,0.851,-122.534,3.573,-18.504
2.640,-0.073,0.238,0.857,-121.908,4.321,-18.458
2.640,-0.081,0.235,0.847,-121.038,3.725,-18.473
2.650,-0.092,0.224,0.851,-120.092,1.786,-18.702
2.650,-0.104,0.221,0.880,-118.840,-1.328,-18.519
2.650,-0.104,0.211,0.883,-117.176,-4.275,-18.947
2.660,-0.104,0.202,0.879,-115.863,-7.038,-19.038
2.660,-0.104,0.196,0.884,-114.794,-10.519,-18.672
2.670,-0.099,0.190,0.895,-113.435,-14.046,-18.290
2.670,-0.084,0.191,0.899,-111.924,-16.122,-17.588
2.680,-0.062,0.199,0.895,-111.206,-17.237,-17.115
2.680,-0.052,0.200,0.890,-110.565,-18.397,-16.931
2.690,-0.044,0.187,0.880,-109.878,-19.557,-17.389
2.690,-0.040,0.181,0.886,-108.733,-19.679,-17.527
2.690,-0.043,0.167,0.882,-108.901,-19.359,-17.832
2.700,-0.050,0.167,0.873,-110.305,-18.916,-17.939
2.700,-0.046,0.143,0.900,-111.832,-17.679,-18.290
2.710,-0.051,0.131,0.938,-112.855,-14.565,-18.092
2.710,-0.063,0.099,0.967,-112.916,-10.382,-17.603
2.720,-0.084,0.075,1.018,-111.618,-6.489,-17.450
2.720,-0.096,0.052,1.063,-110.336,-2.580,-16.290
2.720,-0.122,0.025,1.104,-107.924,-0.412,-16.855
2.730,-0.113,-0.021,1.102,-104.076,3.649,-18.092
2.730,-0.134,0.029,1.112,-103.573,9.450,-15.817
2.740,-0.151,0.013,1.116,-101.206,12.321,-14.137
2.740,-0.188,-0.017,1.145,-97.023,10.840,-14.076
2.750,-0.172,-0.010,1.114,-93.939,12.305,-13.588
2.750,-0.178,0.006,1.102,-92.382,15.420,-11.389
2.760,-0.238,0.000,1.087,-88.137,11.603,-11.313
2.760,-0.219,0.002,1.077,-86.015,9.908,-10.107
2.760,-0.216,0.024,1.055,-84.092,7.084,-9.435
2.770,-0.191,0.035,1.035,-81.863,4.122,-8.702
2.770,-0.186,0.054,1.013,-80.779,0.153,-7.878
2.780,-0.178,0.065,0.994,-80.000,-3.603,-6.947
2.780,-0.170,0.073,0.959,-79.496,-5.618,-5.664
2.780,-0.153,0.103,0.934,-79.328,-6.748,-3.924
2.790,-0.139,0.118,0.909,-80.443,-8.168,-2.351
2.790,-0.132,0.130,0.872,-82.076,-9.038,-1.328
2.800,-0.118,0.141,0.867,-84.611,-10.977,-0.901
2.800,-0.094,0.147,0.844,-87.557,-13.344,-1.389
2.810,-0.062,0.136,0.842,-90.595,-15.145,-2.458
2.810,-0.052,0.132,0.840,-93.084,-17.237,-3.740
2.810,-0.053,0.125,0.850,-95.618,-20.809,-5.328
2.820,-0.043,0.112,0.864,-97.481,-24.565,-7.130
2.820,-0.025,0.099,0.875,-98.489,-26.534,-8.916
2.830,-0.017,0.084,0.876,-99.328,-27.878,-10.321
2.830,-0.009,0.077,0.896,-100.046,-29.206,-11.359
2.840,0.004,0.061,0.925,-99.130,-30.153,-12.244
2.840,0.011,0.048,0.935,-98.641,-30.031,-13.023
2.840,0.008,0.032,0.934,-97.496,-29.267,-13.511
2.850,0.012,0.026,0.968,-96.733,-29.481,-13.710
2.850,0.021,0.009,0.995,-93.924,-25.740,-14.458
2.860,0.119,-0.012,1.047,-87.954,-4.458,-14.534
2.860,0.069,-0.031,1.055,-84.779,3.206,-11.374
2.860,-0.046,-0.019,1.047,-85.237,-3.542,-11.573
2.870,-0.049,-0.056,1.084,-82.122,-7.634,-11.908
2.870,-0.013,-0.052,1.114,-81.695,-5.282,-10.809
2.880,0.002,-0.069,1.126,-79.603,1.099,-9.908
2.880,-0.018,-0.071,1.139,-77.908,4.305,-10.015
2.890,-0.050,-0.071,1.137,-76.015,3.954,-9.695
2.890,-0.045,-0.072,1.133,-73.282,2.992,-9.267
2.890,-0.054,-0.070,1.122,-71.344,1.817,-9.176
2.900,-0.060,-0.076,1.103,-69.405,0.427,-8.947
2.900,-0.069,-0.069,1.082,-67.023,-1.511,-9.237
2.910,-0.079,-0.061,1.076,-65.038,-4.947,-9.420
2.910,-0.086,-0.063,1.055,-63.359,-8.901,-9.237
2.920,-0.085,-0.056,1.037,-61.695,-11.939,-9.130
2.920,-0.088,-0.067,1.038,-60.321,-16.214,-9.496
2.920,-0.080,-0.056,1.051,-59.267,-20.031,-9.527
2.930,-0.072,-0.068,1.043,-58.473,-23.405,-9.710
2.930,-0.065,-0.068,1.048,-57.527,-25.450,-9.634
2.940,-0.042,-0.068,1.046,-57.084,-26.092,-9.466
2.940,-0.026,-0.059,1.031,-56.229,-25.435,-9.328
2.950,-0.012,-0.065,1.020,-56.076,-24.275,-9.450
2.950,0.006,-0.056,0.985,-56.336,-21.908,-9.588
2.950,0.009,-0.046,0.965,-56.687,-19.374,-9.756
2.960,0.013,-0.047,0.948,-57.695,-16.763,-9.802
2.960,0.026,-0.040,0.927,-59.099,-14.458,-9.893
2.970,0.023,-0.049,0.939,-60.366,-12.702,-10.504
2.970,0.013,-0.052,0.934,-62.107,-12.641,-10.794
2.980,0.013,-0.061,0.949,-63.786,-12.992,-11.298
2.980,0.012,-0.083,0.986,-63.176,-13.740,-11.664
2.980,0.005,-0.104,1.027,-62.580,-14.962,-11.985
2.990,0.011,-0.120,1.049,-61.817,-15.527,-11.985
2.990,-0.001,-0.152,1.083,-59.328,-17.069,-11.802
3.000,0.008,-0.132,1.082,-57.832,-17.481,-12.458
3.000,0.011,-0.163,1.098,-54.382,-18.092,-12.672
3.010,0.023,-0.146,1.122,-52.137,-17.099,-11.664
3.010,0.021,-0.173,1.123,-49.374,-14.672,-11.832
3.020,0.014,-0.183,1.126,-46.595,-13.847,-12.489
3.020,0.010,-0.176,1.123,-43.695,-15.466,-12.672
3.020,0.002,-0.177,1.124,-41.282,-16.702,-12.504
3.030,-0.004,-0.188,1.123,-38.626,-15.863,-12.168
3.030,-0.006,-0.191,1.125,-35.206,-14.229,-11.557
3.040,-0.023,-0.197,1.142,-32.305,-12.916,-10.504
3.040,-0.020,-0.194,1.130,-28.611,-11.542,-9.435
3.050,-0.016,-0.189,1.118,-26.198,-9.802,-8.626
3.050,-0.013,-0.188,1.094,-24.611,-8.779,-8.198
3.050,-0.008,-0.176,1.098,-23.374,-7.969,-7.924
3.060,-0.005,-0.170,1.082,-22.687,-7.298,-7.695
3.060,-0.007,-0.170,1.081,-22.321,-6.779,-7.481
3.070,-0.001,-0.169,1.083,-22.092,-5.298,-7.069
3.070,0.003,-0.178,1.089,-21.878,-3.878,-6.901
3.080,-0.009,-0.185,1.094,-20.824,-3.176,-6.641
3.080,-0.026,-0.192,1.090,-19.420,-2.809,-6.336
3.080,-0.049,-0.191,1.092,-18.260,-3.786,-5.954
3.090,-0.048,-0.190,1.083,-16.336,-4.748,-5.511
3.090,-0.057,-0.194,1.079,-14.397,-5.252,-4.656
3.100,-0.044,-0.189,1.062,-12.504,-5.649,-3.450
3.100,-0.038,-0.177,1.062,-10.504,-5.267,-2.595
3.110,-0.027,-0.176,1.070,-8.885,-4.931,-2.000
3.110,-0.009,-0.178,1.051,-7.618,-4.198,-1.511
3.110,0.000,-0.171,1.051,-6.779,-2.931,-1.420
3.120,0.005,-0.173,1.043,-6.061,-1.298,-1.145
3.120,0.014,-0.164,1.051,-5.588,0.137,-1.069
3.130,0.019,-0.173,1.040,-5.176,1.450,-1.206
3.130,0.011,-0.161,1.068,-1.649,7.847,-0.702
3.130,-0.018,-0.162,1.075,-4.779,6.504,-0.962
3.140,0.036,-0.176,1.043,-0.473,11.817,0.550
3.140,-0.033,-0.166,1.063,-1.176,8.061,-0.198
3.150,-0.007,-0.191,1.033,0.901,5.664,-0.809
3.150,-0.004,-0.164,1.021,1.450,6.336,-0.504
3.150,-0.017,-0.161,1.000,2.229,4.763,-0.855
3.160,-0.022,-0.149,0.976,2.382,3.191,-0.931
3.160,-0.013,-0.144,0.974,2.198,1.191,-0.855
3.170,-0.022,-0.141,0.955,3.160,-0.840,-0.977
3.170,-0.016,-0.142,0.942,3.420,-2.290,-1.084
3.170,-0.012,-0.134,0.935,3.145,-4.015,-1.099
3.180,-0.008,-0.126,0.935,2.763,-5.237,-1.267
3.180,-0.004,-0.131,0.928,2.397,-6.153,-1.496
3.190,-0.003,-0.127,0.923,2.153,-6.244,-1.573
3.190,-0.006,-0.124,0.919,1.832,-6.443,-1.450
3.190,-0.003,-0.128,0.906,1.435,-6.718,-1.618
3.200,0.004,-0.137,0.914,1.466,-7.389,-1.908
3.200,0.012,-0.120,0.901,-0.656,-5.542,-1.557
3.210,-0.016,-0.141,0.924,-0.214,-6.000,-1.679
3.210,0.004,-0.132,0.904,-0.855,-5.038,-1.313
3.210,0.010,-0.133,0.903,-0.015,-3.176,-0.962
3.220,0.005,-0.139,0.915,0.687,-1.664,-0.748
3.220,0.005,-0.134,0.907,1.084,-0.382,-0.336
3.230,0.010,-0.137,0.911,1.466,0.244,-0.366
3.230,0.013,-0.140,0.913,1.466,0.473,-0.336
3.230,0.007,-0.138,0.921,1.771,0.733,-0.718
3.240,0.009,-0.151,0.916,2.046,0.885,-0.656
3.240,0.003,-0.144,0.917,2.015,1.160,-0.382
3.250,0.000,-0.147,0.918,2.351,1.496,-0.183
3.250,-0.002,-0.148,0.923,2.489,1.893,0.366
3.250,0.002,-0.152,0.917,2.702,3.008,0.656
3.260,0.011,-0.146,0.899,3.221,4.076,0.672
3.260,0.005,-0.148,0.904,3.603,4.840,0.916
3.270,-0.004,-0.156,0.899,4.122,4.305,0.779
3.270,-0.014,-0.153,0.898,4.489,2.916,0.702
3.270,-0.018,-0.159,0.896,4.733,2.214,1.084
3.280,-0.021,-0.154,0.895,4.870,1.542,0.992
3.280,-0.034,-0.155,0.904,4.931,0.656,1.359
3.290,-0.041,-0.155,0.885,5.160,-0.901,1.527
3.290,-0.049,-0.155,0.890,5.695,-2.382,1.679
3.290,-0.042,-0.153,0.886,5.924,-3.618,1.985
3.300,-0.034,-0.151,0.878,6.198,-4.641,2.229
3.300,-0.030,-0.145,0.877,6.244,-4.855,2.672
3.310,-0.018,-0.142,0.868,6.443,-4.504,3.023
3.310,-0.020,-0.142,0.872,6.565,-4.901,3.435
3.310,-0.017,-0.135,0.863,6.092,-4.702,3.649
3.320,-0.004,-0.136,0.875,5.878,-4.779,4.000
3.320,0.001,-0.128,0.875,5.435,-4.336,3.939
3.320,0.014,-0.136,0.878,5.313,-3.832,4.000
3.330,0.018,-0.137,0.884,5.099,-2.794,3.924
3.330,0.029,-0.135,0.884,4.855,-1.740,4.198
3.340,0.023,-0.129,0.883,5.053,-0.427,3.985
3.340,0.025,-0.129,0.878,4.840,1.344,4.015
3.340,0.039,-0.123,0.862,4.870,3.328,4.031
3.350,0.031,-0.125,0.871,4.931,5.481,4.061
3.350,0.022,-0.123,0.857,4.565,7.176,4.015
3.360,0.010,-0.119,0.853,4.275,7.374,3.893
3.360,-0.000,-0.114,0.841,3.939,6.565,3.817
3.360,-0.001,-0.109,0.842,3.298,5.466,3.405
3.370,0.007,-0.112,0.834,2.565,4.290,3.115
3.370,-0.006,-0.105,0.834,1.985,3.252,3.099
3.380,-0.014,-0.105,0.829,1.206,1.710,3.145
3.380,-0.012,-0.105,0.833,0.397,0.092,3.450
3.380,0.001,-0.101,0.833,-0.351,-0.824,3.450
3.390,0.008,-0.094,0.837,-1.099,-1.466,3.191
3.390,0.019,-0.102,0.831,-1.389,-1.649,2.794
3.400,0.027,-0.105,0.833,-1.954,-2.229,2.214
3.400,0.027,-0.104,0.836,-2.565,-3.038,1.496
3.400,0.028,-0.105,0.857,-2.855,-3.298,1.328
3.410,0.025,-0.111,0.865,-2.763,-3.176,1.084
3.410,0.023,-0.117,0.870,-2.397,-2.718,0.992
3.410,0.018,-0.119,0.882,-2.275,-2.427,0.779
3.420,0.014,-0.119,0.877,-1.710,-3.115,0.870
3.420,0.020,-0.117,0.882,-1.176,-3.191,0.733
3.430,0.023,-0.115,0.869,-0.931,-2.885,0.534
3.430,0.027,-0.114,0.873,-0.824,-2.244,0.611
3.430,0.030,-0.119,0.869,-0.611,-1.344,0.672
3.440,0.033,-0.113,0.872,-0.504,-0.962,0.595
3.440,0.028,-0.113,0.868,-0.718,-0.580,0.504
3.450,0.039,-0.109,0.860,-0.947,-0.183,0.427
3.450,0.033,-0.113,0.863,-1.496,0.092,-0.046
3.450,0.032,-0.113,0.867,-1.863,0.641,-0.092
3.460,0.029,-0.115,0.874,-2.336,0.855,-0.122
3.460,0.029,-0.125,0.874,-2.855,0.733,-0.382
3.470,0.027,-0.119,0.883,-3.069,0.992,-0.519
3.470,0.026,-0.121,0.886,-3.282,1.954,-0.656
3.470,0.022,-0.124,0.879,-3.237,2.626,-0.687
3.480,0.017,-0.127,0.883,-3.450,2.214,-0.794
3.480,0.007,-0.119,0.867,-3.466,1.679,-1.023
3.490,-0.003,-0.126,0.872,-3.893,0.977,-1.069
3.490,-0.000,-0.128,0.876,-3.969,-0.107,-1.069
3.500,-0.010,-0.131,0.892,-3.786,-1.313,-0.809
3.500,-0.008,-0.131,0.904,-3.740,-1.832,-0.290
3.500,-0.002,-0.135,0.911,-3.450,-2.397,-0.076
3.510,0.006,-0.136,0.904,-2.885,-2.748,-0.061
3.510,0.009,-0.144,0.924,-2.183,-2.992,-0.183
3.520,0.019,-0.136,0.918,-1.527,-2.366,-0.031
3.520,0.014,-0.141,0.923,-0.809,-1.496,-0.290
3.520,0.019,-0.137,0.923,-0.534,-0.901,-0.412
3.530,0.017,-0.134,0.895,0.015,-0.779,-0.305
3.530,0.015,-0.129,0.910,-0.137,-0.565,-0.198
3.540,0.008,-0.131,0.902,-0.046,-0.046,-0.031
3.540,0.011,-0.134,0.912,0.046,1.115,-0.137
3.540,0.012,-0.127,0.900,0.168,1.588,0.092
3.550,0.005,-0.123,0.894,-0.046,1.771,0.015
3.550,0.015,-0.128,0.881,-0.122,2.397,-0.107
3.560,0.010,-0.129,0.885,-0.458,2.962,0.015
3.560,-0.002,-0.128,0.876,-0.718,3.115,-0.107
3.560,-0.008,-0.125,0.867,-1.038,3.206,0.015
3.570,-0.010,-0.121,0.874,-1.527,3.282,0.366
3.570,-0.001,-0.124,0.869,-1.939,3.130,0.458
3.580,-0.011,-0.125,0.888,-1.924,2.901,0.672
3.580,-0.013,-0.129,0.887,-2.321,2.458,0.763
3.580,-0.009,-0.127,0.893,-2.382,2.015,0.855
3.590,0.003,-0.128,0.903,-2.519,2.458,1.084
3.590,-0.002,-0.129,0.885,-2.565,2.473,0.931
3.600,0.002,-0.130,0.909,-2.321,2.290,0.916
3.600,0.009,-0.134,0.917,-2.031,2.351,0.840
3.600,0.006,-0.138,0.911,-1.710,2.122,0.504
3.610,0.004,-0.132,0.904,-1.267,1.771,0.580
3.610,0.001,-0.134,0.908,-0.901,1.267,0.519
3.620,-0.002,-0.132,0.910,-0.565,0.260,0.382
3.620,-0.003,-0.126,0.898,0.107,-0.947,0.565
3.620,-0.001,-0.125,0.897,0.168,-1.557,0.687
3.630,-0.004,-0.123,0.892,0.122,-1.511,0.763
3.630,-0.007,-0.119,0.881,-0.122,-1.328,0.931
3.640,-0.004,-0.116,0.882,-0.397,-1.557,1.206
3.640,-0.006,-0.115,0.863,-0.687,-2.122,1.099
3.640,0.004,-0.125,0.866,-1.420,-2.870,1.084
3.650,0.011,-0.120,0.879,-2.000,-2.809,1.069
3.650,0.017,-0.127,0.893,-1.878,-2.092,0.870
3.660,0.011,-0.127,0.891,-1.802,-1.847,0.656
3.660,0.012,-0.125,0.901,-1.695,-2.061,0.611
3.660,0.014,-0.135,0.912,-1.573,-1.908,0.672
3.670,0.015,-0.128,0.903,-1.160,-0.656,0.550
3.670,0.021,-0.132,0.906,-0.702,0.779,0.824
3.680,0.014,-0.135,0.904,-0.565,1.466,0.931
3.680,0.010,-0.127,0.897,-0.382,1.710,0.931
3.680,0.015,-0.127,0.893,-0.305,2.733,0.947
3.690,0.019,-0.132,0.896,-0.107,3.756,1.008
3.690,0.013,-0.134,0.899,0.366,4.550,1.084
3.690,0.004,-0.121,0.881,0.168,4.855,1.115
3.700,0.001,-0.121,0.882,0.076,4.702,1.389
3.700,0.002,-0.119,0.876,0.015,4.534,1.527
3.710,0.001,-0.118,0.872,0.122,4.718,1.328
3.710,0.002,-0.115,0.873,0.015,4.718,1.466
3.710,-0.004,-0.113,0.863,-0.198,4.107,1.145
3.720,-0.006,-0.122,0.876,-0.397,2.840,1.145
3.720,-0.006,-0.119,0.872,-0.611,1.893,1.053
3.730,0.003,-0.119,0.868,-0.366,0.947,1.084
3.730,0.006,-0.120,0.870,-0.382,-0.153,1.038
3.730,0.000,-0.118,0.872,-0.412,-1.252,0.977
3.740,0.001,-0.120,0.878,-0.687,-2.275,0.977
3.740,0.017,-0.119,0.884,-0.626,-2.305,0.565
3.750,0.020,-0.128,0.886,-0.595,-2.031,0.336
3.750,0.012,-0.121,0.887,-0.733,-2.290,0.397
3.750,-0.001,-0.131,0.893,-0.824,-2.672,0.336
3.760,-0.004,-0.128,0.894,-0.443,-3.405,0.473
3.760,0.007,-0.129,0.906,-0.290,-3.511,0.458
3.770,0.009,-0.126,0.907,-0.366,-3.344,0.534
3.770,0.008,-0.132,0.900,0.046,-2.580,0.672
3.770,0.014,-0.130,0.901,-0.137,-2.137,0.565
3.780,0.013,-0.130,0.895,0.031,-1.756,0.458
3.780,0.014,-0.129,0.889,-0.046,-1.374,0.183
3.790,0.022,-0.126,0.898,-0.244,-0.504,0.412
3.790,0.014,-0.127,0.891,-0.305,0.382,0.229
3.790,0.011,-0.116,0.885,-0.275,1.313,0.534
3.800,0.008,-0.123,0.883,-0.565,2.061,0.656
3.800,0.010,-0.115,0.879,-1.053,2.458,0.641
3.810,0.005,-0.123,0.881,-1.328,2.748,0.748
3.810,0.005,-0.117,0.882,-1.786,2.611,0.794
3.810,0.008,-0.119,0.890,-1.786,2.473,1.160
3.820,0.009,-0.132,0.896,-1.573,2.290,1.282
3.820,0.007,-0.124,0.899,-1.023,1.374,0.916
3.820,0.015,-0.129,0.912,-0.702,0.275,0.702
3.830,0.007,-0.132,0.916,-0.397,-0.458,0.214
3.830,0.010,-0.127,0.915,0.076,-0.366,0.305
3.840,0.009,-0.117,0.905,0.458,-0.611,0.275
3.840,0.002,-0.119,0.894,0.641,-0.382,0.641
3.840,-0.004,-0.114,0.882,0.412,-0.183,0.977
3.850,-0.000,-0.116,0.881,0.473,-0.092,1.221
3.850,0.003,-0.115,0.888,0.626,0.137,1.237
3.860,0.006,-0.115,0.886,0.901,-0.046,1.466
3.860,-0.004,-0.121,0.887,1.282,-1.405,1.038
3.860,0.002,-0.133,0.898,1.542,-2.565,0.534
3.870,0.025,-0.131,0.909,1.832,-2.260,0.366
3.870,0.028,-0.126,0.905,2.214,-0.962,0.061
3.880,0.028,-0.123,0.903,2.321,0.214,0.168
3.880,0.023,-0.123,0.904,2.336,0.794,0.244
3.880,0.018,-0.124,0.885,2.015,1.435,0.534
3.890,0.024,-0.115,0.887,1.954,2.458,0.412
3.890,0.021,-0.118,0.874,1.634,3.573,0.443
3.890,0.026,-0.119,0.885,1.252,4.275,0.489
3.900,0.020,-0.115,0.873,0.947,5.023,0.443
3.900,0.020,-0.114,0.872,0.473,5.450,0.580
3.910,0.014,-0.114,0.870,-0.351,5.924,0.550
3.910,0.008,-0.115,0.866,-1.084,5.908,0.748
3.910,0.009,-0.112,0.868,-1.649,6.000,0.687
3.920,0.000,-0.119,0.879,-1.740,5.695,0.901
3.920,-0.007,-0.125,0.878,-0.733,3.817,0.626
3.930,-0.023,-0.123,0.888,-0.473,0.076,-0.061
3.930,-0.018,-0.135,0.898,-0.427,-4.183,-0.718
3.930,-0.000,-0.129,0.927,-0.473,-6.672,-1.282
3.940,0.009,-0.136,0.935,0.611,-7.191,-1.313
3.940,0.006,-0.134,0.935,1.221,-7.924,-1.008
3.950,-0.007,-0.132,0.933,2.107,-8.931,-0.763
3.950,-0.010,-0.131,0.923,2.687,-9.954,-0.321
3.950,0.003,-0.132,0.926,3.420,-10.107,-0.046
3.960,0.014,-0.134,0.922,3.969,-9.130,0.305
3.960,0.033,-0.132,0.914,4.382,-7.557,0.366
3.970,0.033,-0.126,0.913,4.443,-5.527,0.260
3.970,0.049,-0.123,0.925,4.366,-3.863,0.198
3.970,0.046,-0.123,0.916,4.031,-1.649,-0.061
3.980,0.041,-0.113,0.913,4.061,1.130,-0.107
3.980,0.041,-0.111,0.914,3.511,3.893,0.336
3.990,0.035,-0.111,0.892,3.176,6.305,0.458
3.990,0.038,-0.109,0.885,2.931,8.260,0.687
3.990,0.026,-0.107,0.887,2.565,9.969,0.779
4.000,0.025,-0.115,0.889,2.794,11.649,0.901
4.000,0.013,-0.109,0.891,2.779,12.885,1.023
4.010,0.005,-0.114,0.897,3.435,12.809,0.901
4.010,-0.018,-0.119,0.879,4.153,10.458,0.290
4.010,-0.026,-0.110,0.875,4.321,5.802,-0.260
4.020,-0.024,-0.109,0.884,3.145,0.962,-0.977
4.020,-0.003,-0.103,0.894,3.221,-1.099,-1.450
4.030,0.011,-0.105,0.885,3.328,-0.885,-1.420
4.030,-0.000,-0.099,0.880,2.870,-0.931,-1.313
4.030,-0.004,-0.101,0.873,2.656,-1.588,-1.176
4.040,-0.003,-0.095,0.881,2.092,-1.771,-1.313
4.040,0.003,-0.106,0.884,1.847,-0.931,-0.977
4.050,0.006,-0.102,0.879,1.969,0.656,-1.023
4.050,-0.000,-0.109,0.876,1.649,1.649,-0.962
4.050,-0.006,-0.106,0.871,1.542,2.229,-1.069
4.060,-0.005,-0.099,0.866,0.947,2.000,-0.855
4.060,-0.010,-0.102,0.877,0.580,2.031,-0.718
4.070,-0.008,-0.105,0.871,0.366,2.489,-0.885
4.070,-0.017,-0.103,0.878,0.076,1.969,-0.779
4.070,-0.024,-0.109,0.873,0.000,0.733,-0.702
4.080,-0.025,-0.105,0.867,-0.397,-0.427,-0.366
4.080,-0.014,-0.102,0.874,-0.473,-1.023,-0.260
4.090,-0.008,-0.103,0.875,-0.290,-1.298,0.214
4.090,0.000,-0.108,0.879,-0.168,-1.191,0.321
4.090,0.011,-0.107,0.879,0.168,-0.763,0.351
4.100,0.007,-0.110,0.893,0.626,0.092,0.275
4.100,0.007,-0.113,0.900,1.023,0.870,0.214
4.110,0.003,-0.114,0.886,1.420,1.634,0.382
4.110,0.002,-0.113,0.894,1.588,2.626,0.321
4.110,-0.000,-0.107,0.887,1.511,3.069,0.290
