Time,acce_x,acce_y,acce_z,gyro_x,gyro_y, gyro_z
0.000,0.059,0.012,0.821,7.969,-3.588,1.481
0.000,0.063,0.021,0.814,7.359,-2.977,1.359
0.010,0.066,0.015,0.806,6.947,-3.511,1.359
0.010,0.077,0.012,0.822,6.366,-4.458,1.053
0.010,0.075,0.018,0.819,6.046,-5.725,0.534
0.020,0.077,0.021,0.816,5.802,-6.397,0.321
0.020,0.082,0.023,0.809,5.282,-6.840,0.076
0.020,0.086,0.026,0.802,4.565,-6.458,0.122
0.030,0.091,0.037,0.800,4.244,-6.061,0.031
0.030,0.099,0.032,0.805,3.817,-6.061,-0.275
0.030,0.103,0.031,0.793,3.542,-6.183,-0.550
0.040,0.110,0.030,0.796,2.977,-6.092,-0.977
0.040,0.123,0.031,0.804,2.580,-5.573,-1.328
0.040,0.116,0.031,0.798,2.046,-4.427,-1.847
0.050,0.112,0.037,0.793,1.664,-3.145,-2.092
0.050,0.105,0.027,0.799,0.779,-2.733,-2.687
0.050,0.108,0.024,0.810,0.336,-1.863,-2.763
0.060,0.104,0.024,0.813,-0.397,-0.794,-2.901
0.060,0.104,0.022,0.819,-0.855,0.000,-2.992
0.060,0.091,0.014,0.827,-1.618,0.626,-3.282
0.070,0.082,0.014,0.834,-2.046,0.427,-3.542
0.070,0.071,0.010,0.843,-2.229,-0.321,-4.031
0.080,0.071,0.009,0.837,-2.489,-1.405,-4.183
0.080,0.063,-0.001,0.845,-2.656,-2.504,-4.290
0.080,0.062,0.009,0.845,-2.550,-2.198,-4.183
0.090,0.051,-0.001,0.846,-2.748,-1.679,-3.908
0.090,0.044,0.005,0.830,-3.038,-1.924,-3.588
0.100,0.041,0.003,0.834,-3.603,-2.122,-3.496
0.100,0.040,0.011,0.823,-4.382,-1.939,-3.374
0.100,0.039,0.012,0.814,-4.931,-1.313,-2.931
0.110,0.039,0.007,0.816,-5.695,-0.137,-2.550
0.110,0.030,0.013,0.829,-6.458,0.489,-2.290
0.120,0.032,0.009,0.832,-7.084,0.473,-2.092
0.120,0.033,0.000,0.840,-7.573,0.458,-1.908
0.120,0.041,-0.003,0.841,-7.924,0.076,-1.847
0.130,0.037,0.004,0.853,-8.076,-0.244,-1.771
0.130,0.032,0.004,0.847,-8.168,-1.145,-1.664
0.140,0.033,-0.001,0.872,-8.168,-1.450,-1.679
0.140,0.039,-0.003,0.864,-8.321,-1.908,-1.527
0.140,0.040,-0.005,0.861,-8.260,-1.405,-1.313
0.150,0.045,0.002,0.860,-8.168,-1.069,-1.237
0.150,0.055,-0.007,0.870,-8.092,-1.084,-0.885
0.160,0.053,-0.004,0.877,-8.244,-0.534,-0.870
0.160,0.045,-0.006,0.871,-8.290,0.137,-1.038
0.160,0.053,-0.006,0.893,-8.076,0.779,-1.252
0.170,0.055,-0.006,0.893,-8.015,1.618,-1.130
0.170,0.053,-0.012,0.901,-7.359,2.015,-1.145
0.180,0.037,-0.011,0.900,-7.206,2.168,-1.160
0.180,0.035,-0.010,0.894,-7.267,1.435,-1.420
0.180,0.038,-0.012,0.895,-7.008,0.626,-1.267
0.190,0.039,-0.011,0.899,-6.916,0.321,-1.420
0.190,0.043,-0.011,0.895,-6.702,-0.076,-1.267
0.200,0.041,-0.009,0.894,-6.885,-0.122,-0.992
0.200,0.043,-0.011,0.884,-7.191,-0.779,-0.779
0.210,0.041,-0.010,0.882,-7.481,-1.618,-0.656
0.210,0.048,-0.010,0.890,-7.908,-1.740,-0.870
0.210,0.043,-0.015,0.894,-7.771,-1.695,-0.733
0.220,0.047,-0.015,0.914,-7.664,-1.527,-0.702
0.220,0.046,-0.023,0.907,-7.069,-0.763,-0.534
0.230,0.050,-0.012,0.919,-6.870,-0.260,-0.092
0.230,0.037,-0.018,0.925,-6.550,0.504,0.153
0.230,0.049,-0.014,0.924,-6.351,2.107,0.504
0.240,0.052,-0.021,0.919,-5.817,2.840,0.672
0.240,0.047,-0.020,0.921,-5.298,2.977,0.641
0.250,0.042,-0.021,0.925,-5.313,2.534,0.702
0.250,0.043,-0.011,0.913,-5.450,2.626,0.611
0.250,0.050,-0.010,0.911,-5.160,2.870,0.870
0.260,0.057,-0.018,0.920,-5.481,3.069,1.145
0.260,0.055,-0.007,0.911,-5.817,2.962,1.298
0.260,0.053,-0.008,0.906,-5.863,2.794,1.481
0.270,0.064,-0.010,0.911,-5.802,2.580,1.740
0.270,0.063,-0.012,0.918,-5.924,2.626,1.634
0.280,0.072,-0.010,0.917,-5.893,2.534,1.710
0.280,0.075,-0.015,0.928,-5.664,2.687,1.466
0.280,0.060,-0.010,0.908,-5.802,2.397,1.313
0.290,0.060,-0.010,0.918,-5.832,1.649,1.359
0.290,0.079,-0.020,0.927,-5.908,1.252,1.130
0.300,0.086,-0.013,0.940,-4.962,1.344,0.794
0.300,0.085,-0.028,0.941,-4.656,1.679,0.351
0.300,0.084,-0.021,0.948,-4.107,2.214,0.244
0.310,0.079,-0.018,0.936,-3.664,2.061,-0.168
0.310,0.080,-0.021,0.941,-3.496,1.695,-0.473
0.320,0.079,-0.020,0.945,-2.870,1.374,-0.641
0.320,0.071,-0.016,0.932,-2.779,1.145,-0.763
0.320,0.059,-0.013,0.942,-2.779,0.748,-0.565
0.330,0.060,-0.011,0.926,-2.687,-0.321,-0.321
0.330,0.062,-0.006,0.931,-2.748,-1.176,-0.290
0.340,0.064,-0.008,0.922,-2.992,-1.847,-0.229
0.340,0.068,-0.011,0.934,-3.511,-1.695,-0.031
0.340,0.074,-0.010,0.949,-3.618,-1.725,0.092
0.350,0.070,-0.013,0.959,-3.573,-1.634,-0.061
0.350,0.089,-0.018,0.961,-3.389,-1.221,-0.229
0.360,0.083,-0.022,0.981,-2.412,-0.397,-0.443
0.360,0.080,-0.024,0.994,-1.817,0.061,-0.351
0.360,0.074,-0.022,0.991,-1.267,0.534,-0.290
0.370,0.080,-0.030,1.002,-0.290,1.282,-0.229
0.370,0.082,-0.023,1.005,0.901,1.206,-0.489
0.380,0.082,-0.030,1.020,1.679,0.107,-0.901
0.380,0.076,-0.021,1.011,2.153,-1.008,-1.099
0.380,0.079,-0.030,1.020,2.977,-1.008,-1.145
0.390,0.075,-0.023,1.010,3.481,-0.702,-1.145
0.390,0.073,-0.018,1.012,3.527,-0.977,-1.160
0.400,0.061,-0.018,1.007,3.359,-1.679,-1.038
0.400,0.051,-0.025,1.003,3.359,-2.824,-0.947
0.400,0.047,-0.028,1.031,3.267,-3.557,-0.718
0.410,0.042,-0.035,1.050,3.924,-3.603,-0.565
0.410,0.041,-0.036,1.061,4.962,-4.290,-0.107
0.420,0.029,-0.036,1.068,5.710,-5.252,0.321
0.420,0.031,-0.046,1.073,6.901,-6.031,0.626
0.420,0.033,-0.041,1.068,7.969,-6.168,0.779
0.430,0.044,-0.045,1.075,9.237,-5.679,0.992
0.430,0.048,-0.044,1.073,10.733,-5.008,1.206
0.440,0.048,-0.050,1.072,11.969,-4.763,1.359
0.440,0.045,-0.046,1.066,13.527,-4.565,1.527
0.440,0.044,-0.047,1.062,14.702,-4.366,1.603
0.450,0.051,-0.046,1.043,16.061,-4.015,1.847
0.450,0.048,-0.042,1.042,17.298,-3.618,2.015
0.460,0.048,-0.041,1.029,18.595,-3.221,2.183
0.460,0.039,-0.035,1.021,19.786,-3.420,2.260
0.460,0.043,-0.039,0.994,20.824,-3.557,2.336
0.470,0.046,-0.036,0.985,21.924,-3.573,2.260
0.470,0.037,-0.028,0.963,22.382,-4.183,2.489
0.480,0.033,-0.021,0.950,22.672,-5.237,2.794
0.480,0.035,-0.014,0.940,22.427,-5.481,3.084
0.480,0.043,-0.001,0.920,22.519,-5.344,3.618
0.490,0.042,0.002,0.909,22.229,-4.962,3.908
0.490,0.053,0.005,0.895,21.802,-4.397,4.260
0.500,0.058,0.010,0.876,21.450,-4.214,4.260
0.500,0.063,0.010,0.873,21.038,-4.397,4.260
0.500,0.073,0.020,0.867,20.366,-4.137,4.275
0.510,0.086,0.020,0.860,20.000,-3.328,3.832
0.510,0.095,0.026,0.843,19.191,-2.214,3.649
0.510,0.101,0.023,0.848,18.656,-1.603,3.237
0.520,0.091,0.023,0.846,18.244,-2.305,2.489
0.520,0.090,0.020,0.859,17.924,-3.405,1.985
0.530,0.082,0.023,0.863,17.771,-4.015,1.939
0.530,0.077,0.026,0.865,17.557,-4.076,2.046
0.530,0.084,0.031,0.861,17.496,-3.145,2.305
0.540,0.084,0.029,0.862,17.481,-1.679,2.336
0.540,0.082,0.017,0.870,17.450,-0.718,2.458
0.550,0.083,0.020,0.875,17.573,0.046,2.229
0.550,0.074,0.020,0.879,17.939,0.397,1.908
0.550,0.066,0.017,0.880,18.137,0.931,1.725
0.560,0.062,0.014,0.894,18.290,1.420,1.985
0.560,0.058,0.025,0.903,18.519,2.580,2.427
0.570,0.045,0.022,0.885,18.794,3.802,2.992
0.570,0.043,0.023,0.892,18.931,4.611,3.450
0.570,0.032,0.030,0.878,18.885,4.443,4.046
0.580,0.028,0.029,0.874,18.916,3.435,4.229
0.580,0.033,0.035,0.869,18.595,2.000,4.137
0.580,0.042,0.033,0.874,18.351,0.412,4.031
0.590,0.037,0.029,0.876,18.290,-0.351,3.985
0.590,0.034,0.034,0.877,18.305,-1.160,3.756
0.600,0.033,0.030,0.868,18.519,-2.534,4.031
0.600,0.032,0.037,0.867,18.611,-3.496,4.046
0.600,0.034,0.040,0.853,18.443,-4.656,4.366
0.610,0.040,0.042,0.841,18.351,-4.916,4.382
0.610,0.045,0.051,0.838,18.198,-5.511,4.214
0.620,0.047,0.054,0.833,17.786,-5.954,4.183
0.620,0.046,0.055,0.826,17.420,-6.183,4.321
0.620,0.046,0.068,0.818,16.855,-6.229,4.718
0.630,0.054,0.075,0.811,16.031,-5.267,5.008
0.630,0.068,0.076,0.812,15.115,-4.137,5.405
0.630,0.074,0.082,0.811,14.687,-3.588,5.573
0.640,0.080,0.083,0.820,14.198,-3.176,5.160
0.640,0.092,0.076,0.817,14.061,-2.824,4.748
0.650,0.098,0.078,0.824,13.863,-2.290,4.122
0.650,0.109,0.074,0.826,13.603,-1.405,3.695
0.650,0.107,0.065,0.825,13.664,-0.519,3.344
0.660,0.105,0.080,0.823,13.740,-0.122,2.901
0.660,0.101,0.077,0.814,13.450,-0.611,2.626
0.670,0.108,0.085,0.797,13.084,-1.069,2.244
0.670,0.108,0.088,0.776,12.580,-1.740,1.603
0.670,0.112,0.086,0.782,11.847,-1.954,0.931
0.680,0.115,0.085,0.784,10.916,-2.137,0.443
0.680,0.106,0.086,0.771,10.198,-2.397,-0.107
0.690,0.100,0.089,0.759,9.267,-3.221,-0.519
0.690,0.086,0.090,0.749,8.458,-4.153,-0.916
0.690,0.087,0.083,0.764,7.893,-4.656,-1.206
0.700,0.083,0.089,0.754,7.359,-4.473,-1.481
0.700,0.074,0.083,0.764,6.519,-4.519,-1.542
0.710,0.079,0.089,0.761,5.878,-4.397,-1.328
0.710,0.073,0.097,0.755,5.298,-3.969,-1.176
0.710,0.072,0.104,0.764,4.748,-3.679,-0.992
0.720,0.076,0.093,0.765,3.954,-3.420,-1.038
0.720,0.076,0.088,0.762,2.672,-3.420,-0.885
0.720,0.072,0.089,0.765,2.061,-2.977,-0.885
0.730,0.072,0.087,0.765,1.130,-3.099,-0.748
0.730,0.075,0.086,0.774,0.046,-2.534,-0.565
0.740,0.076,0.082,0.783,-0.824,-2.443,-0.580
0.740,0.076,0.076,0.789,-1.252,-2.122,-0.702
0.740,0.072,0.072,0.787,-1.191,-2.489,-0.809
0.750,0.058,0.077,0.802,-1.496,-2.656,-0.611
0.750,0.063,0.075,0.807,-1.786,-2.687,-0.473
0.760,0.059,0.076,0.795,-1.817,-2.870,-0.137
0.760,0.067,0.078,0.794,-2.336,-2.931,0.015
0.760,0.068,0.081,0.801,-2.611,-2.809,0.046
0.770,0.076,0.075,0.808,-2.580,-2.962,0.107
0.770,0.081,0.077,0.815,-2.962,-2.962,0.137
0.780,0.081,0.068,0.823,-3.420,-2.275,0.092
0.780,0.088,0.074,0.823,-3.756,-1.466,0.031
0.780,0.084,0.071,0.833,-3.847,-1.176,-0.031
0.790,0.082,0.074,0.831,-4.275,-0.931,-0.214
0.790,0.081,0.074,0.839,-4.611,-0.962,-0.534
0.800,0.088,0.072,0.827,-5.191,-0.565,-0.779
0.800,0.083,0.076,0.840,-5.313,0.595,-0.611
0.800,0.081,0.071,0.840,-5.511,1.511,-0.519
0.810,0.076,0.074,0.853,-5.756,1.969,-0.397
0.810,0.074,0.066,0.850,-5.573,1.893,-0.351
0.820,0.068,0.064,0.871,-5.191,1.176,-0.641
0.820,0.072,0.067,0.871,-5.053,1.053,-0.687
0.820,0.080,0.066,0.871,-4.931,1.603,-0.794
0.830,0.078,0.063,0.876,-4.595,2.122,-0.840
0.830,0.072,0.068,0.875,-4.214,1.740,-0.855
0.840,0.069,0.062,0.875,-4.443,0.809,-1.053
0.840,0.063,0.072,0.875,-4.687,-0.015,-1.099
0.840,0.060,0.072,0.879,-4.931,-0.336,-1.099
0.850,0.054,0.067,0.885,-5.130,-0.504,-0.809
0.850,0.056,0.072,0.890,-5.282,-0.153,-0.427
0.850,0.049,0.066,0.888,-5.313,0.015,-0.351
0.860,0.051,0.064,0.904,-5.435,-0.351,-0.076
0.860,0.051,0.062,0.892,-5.420,-0.550,-0.076
0.870,0.059,0.067,0.906,-5.191,-0.397,0.061
0.870,0.047,0.068,0.908,-4.824,0.229,0.504
0.870,0.042,0.073,0.900,-4.748,0.443,0.916
0.880,0.043,0.072,0.906,-4.580,0.473,1.282
0.880,0.047,0.075,0.906,-4.580,0.672,1.695
0.890,0.063,0.073,0.906,-4.061,1.038,1.756
0.890,0.067,0.071,0.923,-3.756,1.298,1.832
0.890,0.075,0.077,0.919,-3.802,1.282,1.695
0.900,0.076,0.074,0.921,-3.573,1.130,1.725
0.900,0.079,0.071,0.935,-3.405,1.679,1.756
0.910,0.092,0.077,0.928,-2.779,2.076,1.664
0.910,0.085,0.073,0.927,-2.458,2.840,1.649
0.910,0.087,0.077,0.926,-1.969,2.702,1.847
0.920,0.088,0.076,0.930,-1.924,2.397,1.679
0.920,0.084,0.085,0.913,-1.557,2.763,1.771
0.920,0.086,0.085,0.912,-1.527,3.069,1.481
0.930,0.080,0.081,0.915,-1.466,3.038,1.450
0.930,0.085,0.084,0.910,-1.817,2.947,1.450
0.940,0.082,0.086,0.909,-2.137,2.061,1.237
0.940,0.081,0.083,0.916,-2.260,2.137,1.298
0.940,0.072,0.083,0.905,-2.366,2.275,1.466
0.950,0.074,0.090,0.907,-2.473,1.832,1.496
0.950,0.070,0.084,0.897,-2.473,1.313,1.557
0.950,0.072,0.089,0.909,-2.611,0.641,1.664
0.960,0.077,0.089,0.912,-2.427,0.718,1.664
0.960,0.084,0.083,0.902,-2.565,0.977,1.924
0.970,0.083,0.085,0.905,-2.534,1.313,1.985
0.970,0.091,0.077,0.905,-2.672,1.542,1.832
0.970,0.098,0.082,0.899,-2.656,1.344,1.450
0.980,0.096,0.082,0.903,-2.550,1.221,0.992
0.980,0.094,0.076,0.902,-2.809,0.046,0.550
0.990,0.084,0.076,0.918,-2.718,-0.504,0.427
0.990,0.083,0.068,0.919,-2.351,-0.107,0.427
0.990,0.082,0.067,0.919,-2.290,0.443,0.595
1.000,0.074,0.067,0.922,-1.832,0.122,0.901
1.000,0.077,0.064,0.923,-1.649,0.031,0.733
1.000,0.070,0.062,0.926,-0.931,-0.015,0.626
1.010,0.067,0.065,0.927,-0.611,-0.122,0.916
1.010,0.077,0.063,0.926,-0.015,-0.305,0.840
1.020,0.067,0.069,0.919,0.366,-0.962,0.794
1.020,0.067,0.071,0.916,0.443,-2.534,0.702
1.020,0.066,0.069,0.907,-0.214,-3.359,0.702
1.030,0.080,0.070,0.918,-0.366,-3.313,0.870
1.030,0.078,0.070,0.906,-0.427,-2.534,0.916
1.040,0.078,0.066,0.920,-0.275,-1.786,1.298
1.040,0.078,0.069,0.912,-0.565,-1.053,1.359
1.040,0.089,0.063,0.907,-0.595,-0.855,1.298
1.050,0.083,0.061,0.913,-0.290,-0.305,1.237
1.050,0.093,0.063,0.925,0.061,-0.214,1.313
1.060,0.094,0.068,0.932,0.137,0.092,1.252
1.060,0.087,0.069,0.917,0.000,0.672,1.282
1.060,0.091,0.072,0.917,0.336,0.931,1.221
1.070,0.084,0.071,0.918,0.351,1.084,1.221
1.070,0.082,0.068,0.927,0.366,0.962,1.389
1.070,0.086,0.069,0.932,0.687,1.084,1.389
1.080,0.090,0.070,0.926,0.992,0.748,1.237
1.080,0.089,0.068,0.924,1.252,0.458,0.992
1.080,0.084,0.067,0.928,1.740,-0.214,0.733
1.090,0.087,0.062,0.938,2.092,-0.229,0.580
1.090,0.093,0.062,0.932,2.656,-0.107,0.397
1.100,0.093,0.061,0.949,3.344,0.244,0.443
1.100,0.075,0.049,0.949,3.985,-0.092,0.290
1.100,0.072,0.051,0.965,4.015,-0.916,0.366
1.110,0.078,0.048,0.981,4.427,-1.618,0.321
1.110,0.082,0.050,0.982,4.824,-1.496,0.198
1.120,0.070,0.038,0.988,5.084,-1.939,0.382
1.120,0.070,0.038,1.000,5.527,-2.351,0.702
1.120,0.065,0.032,1.018,6.198,-2.214,1.023
1.130,0.078,0.024,1.033,7.221,-1.802,1.313
1.130,0.083,0.027,1.040,8.046,-1.221,1.664
1.130,0.083,0.021,1.065,9.511,-0.290,2.198
1.140,0.080,0.021,1.086,11.008,0.565,2.977
1.140,0.086,0.021,1.106,12.733,1.832,3.450
1.150,0.099,0.021,1.132,14.443,2.840,4.092
1.150,0.111,0.018,1.144,16.290,4.489,4.336
1.150,0.132,0.018,1.154,18.382,6.229,3.985
1.160,0.147,0.017,1.177,20.122,8.031,3.481
1.160,0.151,0.017,1.185,21.954,9.588,2.901
1.170,0.138,0.009,1.202,23.847,9.878,2.504
1.170,0.123,0.002,1.229,25.679,9.557,2.260
1.170,0.107,0.001,1.239,28.137,9.053,2.275
1.180,0.093,-0.011,1.287,31.221,8.611,2.641
1.180,0.097,-0.014,1.315,34.504,8.504,2.947
1.180,0.098,-0.021,1.339,38.305,9.557,3.023
1.190,0.094,-0.024,1.354,42.260,10.473,3.252
1.190,0.074,-0.027,1.369,46.519,10.901,2.977
1.200,0.054,-0.023,1.364,50.336,10.458,3.069
1.200,0.038,-0.027,1.355,53.710,9.588,3.725
1.200,-0.009,-0.027,1.392,57.985,8.076,4.366
1.210,-0.013,-0.012,1.380,62.015,6.718,5.710
1.210,-0.013,-0.011,1.378,64.580,6.076,6.290
1.220,-0.021,-0.003,1.375,67.634,3.145,6.809
1.220,-0.037,-0.001,1.376,70.580,-1.008,7.679
1.220,-0.029,-0.001,1.384,73.756,-4.153,8.305
1.230,-0.018,0.003,1.398,76.962,-4.870,9.725
1.230,-0.013,-0.002,1.406,80.580,-4.885,10.901
1.240,-0.014,-0.003,1.402,84.794,-5.069,12.183
1.240,-0.014,0.001,1.402,88.748,-5.115,13.145
1.240,0.003,0.008,1.404,92.046,-5.053,13.939
1.250,0.022,0.006,1.397,96.672,-4.748,14.504
1.250,0.024,0.015,1.393,99.023,-3.939,14.519
1.260,0.024,0.026,1.381,102.519,-3.328,14.718
1.260,0.014,0.030,1.375,105.084,-3.084,15.267
1.260,0.025,0.038,1.350,107.511,-3.099,15.389
1.270,0.034,0.038,1.348,110.000,-3.053,16.031
1.270,0.032,0.047,1.337,112.534,-3.450,16.275
1.280,0.028,0.051,1.327,115.084,-4.244,16.733
1.280,0.031,0.052,1.302,117.298,-5.405,17.282
1.290,0.034,0.057,1.295,119.649,-6.473,17.786
1.290,0.036,0.063,1.298,122.763,-6.885,18.153
1.290,0.050,0.067,1.281,125.603,-7.206,18.595
1.300,0.051,0.063,1.273,128.489,-7.756,18.779
1.300,0.041,0.060,1.279,131.664,-8.809,19.374
1.310,0.044,0.059,1.268,134.901,-9.710,19.710
1.310,0.039,0.065,1.258,137.573,-10.458,20.168
1.310,0.035,0.059,1.237,140.214,-10.550,20.992
1.320,0.033,0.063,1.234,142.992,-10.885,22.076
1.320,0.020,0.054,1.229,146.137,-11.389,23.145
1.330,0.007,0.058,1.219,148.977,-12.382,24.519
1.330,0.019,0.051,1.208,151.740,-12.931,24.962
1.330,0.026,0.055,1.197,154.687,-12.870,25.649
1.340,0.025,0.063,1.188,158.275,-12.855,25.969
1.340,0.035,0.070,1.160,160.947,-13.115,25.817
1.350,0.036,0.085,1.115,163.359,-13.542,25.435
1.350,0.030,0.096,1.101,165.496,-14.824,25.038
1.360,0.020,0.107,1.084,167.588,-17.664,25.008
1.360,0.022,0.111,1.083,169.603,-20.122,25.069
1.360,0.025,0.121,1.065,172.000,-21.221,25.710
1.370,0.033,0.121,1.045,175.298,-22.336,25.786
1.370,0.039,0.132,1.019,178.046,-22.977,25.756
1.380,0.042,0.143,0.993,179.817,-23.832,25.847
1.380,0.044,0.159,0.957,181.344,-24.153,25.786
1.380,0.058,0.167,0.935,182.595,-23.313,26.061
1.390,0.072,0.177,0.926,183.863,-20.931,26.504
1.390,0.078,0.188,0.911,184.931,-18.229,27.084
1.400,0.072,0.191,0.888,185.481,-15.298,28.061
1.400,0.078,0.196,0.869,186.198,-13.466,28.885
1.410,0.073,0.192,0.870,187.313,-12.321,29.847
1.410,0.083,0.209,0.847,187.832,-10.137,30.550
1.410,0.079,0.205,0.826,187.740,-7.634,31.542
1.420,0.077,0.214,0.817,187.969,-5.954,31.939
1.420,0.082,0.216,0.816,189.634,-6.061,32.061
1.430,0.085,0.230,0.802,191.420,-9.267,31.634
1.430,0.089,0.224,0.793,192.931,-12.214,30.977
1.430,0.107,0.237,0.772,194.046,-12.427,30.366
1.440,0.117,0.240,0.748,195.206,-9.725,29.008
1.440,0.110,0.241,0.697,193.679,-5.267,28.198
1.450,0.108,0.283,0.683,193.252,-2.992,28.519
1.450,0.097,0.252,0.698,198.763,-8.046,27.450
1.450,0.084,0.285,0.711,204.183,-18.962,27.298
1.460,0.098,0.275,0.685,210.046,-25.466,25.863
1.460,0.115,0.296,0.589,211.237,-25.908,24.687
1.470,0.106,0.326,0.507,210.168,-26.229,23.924
1.470,0.075,0.330,0.496,210.244,-29.496,24.153
1.480,0.071,0.338,0.513,210.168,-33.603,24.779
1.480,0.080,0.348,0.500,210.458,-35.832,25.557
1.480,0.111,0.344,0.494,211.053,-36.305,25.634
1.490,0.124,0.350,0.473,211.008,-36.672,25.359
1.490,0.140,0.351,0.450,211.328,-36.626,24.504
1.500,0.163,0.361,0.450,211.878,-36.198,23.588
1.500,0.176,0.366,0.458,213.221,-34.092,22.321
1.500,0.180,0.365,0.443,214.702,-30.916,21.328
1.510,0.186,0.371,0.425,215.786,-27.695,20.397
1.510,0.183,0.384,0.395,216.977,-24.901,19.771
1.520,0.163,0.390,0.362,218.046,-23.298,19.237
1.520,0.147,0.415,0.323,218.748,-22.916,19.557
1.530,0.150,0.416,0.296,219.542,-22.855,19.847
1.530,0.154,0.426,0.292,220.214,-21.954,20.198
1.530,0.158,0.425,0.262,220.763,-20.565,20.275
1.540,0.149,0.435,0.217,220.153,-19.527,20.427
1.540,0.135,0.446,0.187,218.824,-20.519,20.931
1.550,0.122,0.458,0.157,217.130,-22.626,21.542
1.550,0.131,0.467,0.140,216.229,-23.756,22.137
1.550,0.149,0.471,0.132,215.298,-23.893,22.550
1.560,0.165,0.472,0.099,213.939,-23.939,22.412
1.560,0.165,0.491,0.064,211.588,-25.053,21.985
1.570,0.165,0.505,0.046,209.634,-26.687,21.557
1.570,0.172,0.508,0.047,208.763,-28.626,21.450
1.580,0.184,0.509,0.046,208.092,-29.176,21.389
1.580,0.198,0.513,0.028,207.725,-28.107,21.588
1.580,0.205,0.520,0.010,207.603,-26.565,21.786
1.590,0.215,0.528,-0.015,207.176,-24.626,22.366
1.590,0.239,0.537,-0.026,207.603,-20.687,22.656
1.600,0.258,0.530,-0.049,208.336,-15.008,22.534
1.600,0.260,0.544,-0.079,207.832,-11.466,22.046
1.610,0.259,0.545,-0.115,205.985,-9.863,22.137
1.610,0.261,0.567,-0.114,202.611,-6.489,22.198
1.610,0.280,0.544,-0.183,204.916,1.679,22.183
1.620,0.259,0.571,-0.184,204.290,3.847,22.168
1.620,0.264,0.592,-0.223,201.664,5.557,22.092
1.630,0.264,0.603,-0.288,198.977,7.542,22.168
1.630,0.268,0.624,-0.312,195.282,9.649,22.198
1.630,0.279,0.645,-0.336,192.214,10.718,22.687
1.640,0.283,0.646,-0.369,188.916,15.344,23.725
1.640,0.289,0.677,-0.399,183.573,20.550,23.969
1.650,0.302,0.688,-0.410,178.580,24.855,24.733
1.650,0.334,0.707,-0.413,173.130,29.573,24.931
1.650,0.354,0.729,-0.428,166.122,37.863,24.748
1.660,0.375,0.723,-0.419,161.649,51.847,24.107
1.660,0.387,0.728,-0.407,158.443,64.992,24.260
1.670,0.391,0.749,-0.403,155.420,74.656,23.679
1.670,0.319,0.740,-0.459,150.656,75.099,22.687
1.680,0.240,0.780,-0.521,141.664,66.000,22.321
1.680,0.244,0.789,-0.519,133.282,60.962,22.962
1.680,0.261,0.798,-0.481,125.878,56.840,23.649
1.690,0.245,0.782,-0.420,119.939,50.351,24.137
1.690,0.215,0.759,-0.375,117.740,43.267,23.863
1.700,0.208,0.753,-0.373,117.466,36.840,24.137
1.700,0.162,0.742,-0.370,116.107,25.634,24.519
1.700,0.133,0.734,-0.365,115.389,11.313,25.374
1.710,0.132,0.739,-0.372,115.405,-1.191,26.443
1.710,0.150,0.724,-0.374,116.229,-11.756,27.496
1.720,0.172,0.712,-0.365,117.359,-18.397,28.595
1.720,0.191,0.709,-0.379,118.229,-22.305,29.771
1.730,0.204,0.695,-0.366,119.496,-25.771,30.947
1.730,0.227,0.705,-0.369,119.664,-31.588,30.977
1.730,0.247,0.688,-0.401,119.649,-33.725,30.534
1.740,0.279,0.698,-0.429,119.802,-33.389,30.244
1.740,0.292,0.680,-0.414,120.992,-32.382,29.893
1.750,0.319,0.682,-0.419,122.962,-29.802,29.450
1.750,0.336,0.680,-0.410,126.107,-27.267,29.466
1.760,0.354,0.668,-0.423,129.298,-23.802,29.115
1.760,0.344,0.668,-0.462,131.298,-21.313,29.069
1.760,0.332,0.681,-0.483,133.435,-21.756,28.763
1.770,0.355,0.692,-0.520,135.450,-11.099,25.710
1.770,0.353,0.686,-0.608,140.565,-5.725,26.275
1.780,0.268,0.724,-0.663,138.275,-20.183,25.969
1.780,0.233,0.739,-0.760,134.580,-36.107,23.954
1.790,0.300,0.744,-0.813,130.840,-40.916,21.893
1.790,0.345,0.768,-0.805,126.962,-37.679,20.504
1.790,0.337,0.766,-0.835,123.740,-36.153,18.885
1.800,0.310,0.762,-0.880,119.817,-38.489,17.328
1.800,0.308,0.771,-0.904,114.763,-40.489,15.908
1.810,0.310,0.780,-0.909,110.076,-38.366,14.901
1.810,0.306,0.766,-0.900,107.084,-34.611,14.137
1.810,0.291,0.757,-0.905,104.641,-31.252,14.183
1.820,0.276,0.761,-0.922,101.481,-29.481,14.244
1.820,0.273,0.768,-0.941,97.847,-27.221,14.901
1.830,0.287,0.781,-0.943,93.924,-23.420,15.786
1.830,0.300,0.777,-0.948,90.015,-20.550,15.847
1.840,0.292,0.779,-0.963,85.847,-19.863,15.664
1.840,0.300,0.803,-0.979,80.611,-19.374,15.634
1.840,0.300,0.818,-0.995,75.038,-18.947,15.588
1.850,0.305,0.820,-0.988,69.847,-19.252,15.710
1.850,0.323,0.829,-0.988,64.366,-19.664,15.069
1.860,0.332,0.841,-0.987,59.099,-19.160,14.473
1.860,0.337,0.843,-0.977,54.137,-19.588,13.267
1.870,0.334,0.837,-0.968,49.603,-21.038,11.542
1.870,0.330,0.828,-0.942,45.191,-23.557,10.275
1.870,0.347,0.832,-0.907,41.405,-23.527,9.542
1.880,0.356,0.823,-0.857,38.992,-21.481,8.626
1.880,0.357,0.825,-0.836,36.916,-20.229,7.573
1.890,0.357,0.827,-0.826,33.618,-19.618,6.489
1.890,0.358,0.828,-0.823,30.855,-19.176,5.359
1.890,0.364,0.826,-0.791,28.641,-17.924,4.015
1.900,0.361,0.824,-0.771,26.947,-15.771,3.176
1.900,0.341,0.828,-0.771,25.176,-13.206,2.687
1.910,0.335,0.827,-0.767,23.130,-12.702,1.756
1.910,0.322,0.830,-0.760,20.947,-12.870,1.069
1.910,0.298,0.828,-0.751,19.573,-13.908,0.244
1.920,0.288,0.825,-0.736,18.687,-16.321,-0.137
1.920,0.280,0.822,-0.723,17.649,-19.435,-0.840
1.930,0.290,0.829,-0.714,16.290,-20.855,-1.023
1.930,0.314,0.831,-0.721,15.130,-19.908,-1.328
1.940,0.322,0.832,-0.715,14.962,-18.519,-1.893
1.940,0.326,0.835,-0.719,14.534,-18.107,-2.901
1.940,0.327,0.836,-0.733,13.496,-17.542,-4.412
1.950,0.320,0.843,-0.743,12.092,-16.748,-5.374
1.950,0.315,0.841,-0.750,10.611,-15.206,-6.260
1.960,0.295,0.844,-0.764,9.282,-13.771,-6.672
1.960,0.276,0.853,-0.760,8.076,-13.481,-7.374
1.960,0.275,0.849,-0.757,6.214,-13.985,-7.664
1.970,0.267,0.860,-0.771,3.725,-13.618,-7.725
1.970,0.269,0.863,-0.771,1.710,-12.351,-7.344
1.980,0.277,0.864,-0.748,-0.198,-9.893,-7.130
1.980,0.283,0.860,-0.758,-1.725,-8.229,-7.420
1.980,0.292,0.850,-0.754,-3.420,-6.763,-7.908
1.990,0.297,0.848,-0.739,-4.656,-4.763,-8.198
1.990,0.295,0.848,-0.736,-5.649,-1.832,-8.519
2.000,0.282,0.841,-0.733,-6.611,0.962,-8.931
2.000,0.271,0.837,-0.726,-7.557,2.947,-9.008
2.000,0.254,0.839,-0.722,-8.107,3.710,-8.763
2.010,0.235,0.835,-0.715,-8.855,3.893,-8.183
2.010,0.220,0.831,-0.692,-9.481,3.588,-7.298
2.020,0.226,0.833,-0.668,-9.908,3.145,-6.275
2.020,0.238,0.838,-0.664,-10.412,3.313,-5.557
2.020,0.246,0.837,-0.649,-10.824,3.191,-5.115
2.030,0.265,0.846,-0.647,-11.405,3.160,-5.038
2.030,0.273,0.847,-0.647,-12.611,2.443,-5.313
2.040,0.294,0.843,-0.633,-13.160,1.817,-5.679
2.040,0.296,0.845,-0.629,-13.893,1.649,-6.366
2.050,0.286,0.843,-0.607,-14.397,0.855,-6.855
2.050,0.287,0.847,-0.595,-14.809,-0.061,-7.405
2.050,0.284,0.849,-0.593,-15.053,-0.076,-7.847
2.060,0.286,0.845,-0.584,-15.725,1.023,-7.954
2.060,0.264,0.848,-0.589,-16.565,1.695,-7.817
2.070,0.254,0.853,-0.582,-17.023,2.519,-7.588
2.070,0.257,0.854,-0.572,-16.977,2.489,-7.405
2.070,0.252,0.844,-0.575,-16.748,2.565,-7.130
2.080,0.252,0.841,-0.566,-16.611,2.779,-7.313
2.080,0.264,0.849,-0.568,-16.504,3.679,-7.420
2.090,0.261,0.851,-0.571,-16.489,5.634,-7.176
2.090,0.259,0.849,-0.570,-16.122,8.000,-7.160
2.090,0.260,0.848,-0.580,-15.145,10.275,-6.855
2.100,0.261,0.848,-0.598,-14.733,11.267,-6.794
2.100,0.255,0.852,-0.606,-14.992,12.214,-6.702
2.110,0.253,0.852,-0.638,-15.618,13.557,-6.443
2.110,0.264,0.853,-0.653,-16.534,13.893,-6.412
2.120,0.256,0.860,-0.653,-17.237,13.191,-5.939
2.120,0.265,0.852,-0.675,-18.534,11.817,-5.679
2.120,0.277,0.852,-0.675,-19.908,10.931,-5.695
2.130,0.293,0.856,-0.690,-21.649,9.939,-6.137
2.130,0.305,0.849,-0.690,-22.931,8.061,-6.992
2.140,0.327,0.843,-0.694,-24.244,7.588,-7.649
2.140,0.339,0.843,-0.703,-25.221,7.221,-8.885
2.140,0.340,0.851,-0.712,-26.427,6.672,-9.847
2.150,0.349,0.841,-0.711,-27.496,6.519,-10.916
2.150,0.345,0.852,-0.735,-28.916,6.702,-11.802
2.160,0.344,0.846,-0.736,-30.183,6.550,-12.718
2.160,0.341,0.848,-0.758,-32.092,7.099,-13.847
2.160,0.337,0.851,-0.763,-34.321,8.031,-14.489
2.170,0.329,0.856,-0.780,-36.794,9.252,-15.725
2.170,0.319,0.855,-0.792,-39.710,10.351,-16.595
2.180,0.310,0.855,-0.808,-42.748,12.000,-17.573
2.180,0.314,0.854,-0.826,-46.260,13.802,-19.450
2.190,0.317,0.851,-0.829,-49.237,14.763,-21.786
2.190,0.302,0.846,-0.860,-53.282,16.595,-23.969
2.190,0.274,0.840,-0.861,-56.763,18.031,-25.588
2.200,0.258,0.826,-0.863,-60.183,19.832,-26.718
2.200,0.244,0.815,-0.871,-63.771,22.321,-27.160
2.210,0.215,0.812,-0.869,-67.206,24.244,-27.328
2.210,0.196,0.803,-0.877,-71.099,26.198,-26.702
2.220,0.176,0.801,-0.892,-75.008,28.214,-25.542
2.220,0.161,0.794,-0.904,-79.466,30.183,-24.382
2.220,0.140,0.791,-0.888,-83.710,31.298,-22.580
2.230,0.141,0.788,-0.874,-88.305,31.435,-20.992
2.230,0.159,0.782,-0.865,-92.031,31.939,-19.267
2.240,0.163,0.778,-0.863,-96.015,31.069,-17.969
2.240,0.186,0.784,-0.870,-100.015,29.786,-17.435
2.250,0.228,0.776,-0.857,-104.183,30.397,-17.344
2.250,0.253,0.784,-0.854,-108.244,32.168,-17.603
2.250,0.262,0.790,-0.867,-112.580,32.901,-18.595
2.260,0.269,0.787,-0.857,-116.962,32.824,-20.015
2.260,0.281,0.786,-0.844,-120.748,32.443,-21.527
2.270,0.278,0.783,-0.830,-124.336,31.832,-22.809
2.270,0.273,0.780,-0.823,-128.382,30.641,-23.863
2.280,0.262,0.773,-0.824,-132.687,30.351,-24.931
2.280,0.255,0.777,-0.808,-136.748,30.015,-25.450
2.280,0.247,0.768,-0.783,-140.290,30.351,-25.511
2.290,0.240,0.763,-0.750,-143.695,29.985,-25.221
2.290,0.238,0.760,-0.716,-147.099,29.878,-24.840
2.300,0.252,0.759,-0.686,-149.954,30.718,-24.534
2.300,0.256,0.756,-0.673,-152.901,31.221,-23.939
2.310,0.260,0.756,-0.630,-155.924,30.718,-23.389
2.310,0.282,0.749,-0.598,-158.626,30.076,-23.527
2.310,0.296,0.749,-0.557,-160.412,30.321,-24.305
2.320,0.314,0.730,-0.519,-161.481,29.802,-25.756
2.320,0.308,0.723,-0.478,-160.916,29.313,-27.954
2.330,0.310,0.722,-0.445,-160.336,26.901,-29.664
2.330,0.293,0.721,-0.446,-159.603,24.244,-31.405
2.340,0.283,0.721,-0.426,-158.687,22.595,-32.870
2.340,0.267,0.728,-0.397,-157.679,20.214,-34.000
2.350,0.267,0.733,-0.391,-157.206,18.244,-34.656
2.350,0.263,0.742,-0.388,-157.389,15.496,-35.771
2.350,0.255,0.744,-0.369,-158.290,12.656,-36.489
2.360,0.248,0.742,-0.353,-159.084,10.168,-37.359
2.360,0.249,0.740,-0.347,-160.565,8.489,-38.550
2.370,0.254,0.745,-0.338,-161.893,8.763,-39.893
2.370,0.258,0.741,-0.326,-163.664,9.588,-41.542
2.380,0.237,0.741,-0.309,-165.359,9.786,-43.130
2.380,0.224,0.738,-0.302,-167.298,10.183,-44.214
2.380,0.183,0.739,-0.297,-169.038,11.221,-44.733
2.390,0.154,0.736,-0.302,-171.603,12.687,-44.458
2.390,0.128,0.746,-0.304,-174.855,14.168,-43.618
2.400,0.106,0.738,-0.300,-178.504,16.870,-42.412
2.400,0.087,0.733,-0.279,-182.046,18.183,-40.733
2.410,0.058,0.722,-0.258,-185.359,17.542,-38.779
2.410,0.042,0.711,-0.224,-188.000,16.977,-36.641
2.410,0.023,0.695,-0.202,-190.489,17.038,-33.969
2.420,0.025,0.681,-0.155,-191.725,17.802,-30.931
2.420,0.039,0.663,-0.116,-191.527,18.565,-28.229
2.430,0.070,0.647,-0.067,-191.053,19.481,-26.061
2.430,0.081,0.637,-0.032,-189.847,20.092,-24.855
2.440,0.103,0.628,0.001,-188.214,19.954,-24.550
2.440,0.124,0.628,0.007,-187.084,18.305,-24.885
2.440,0.136,0.631,0.006,-187.267,15.847,-25.924
2.450,0.155,0.639,0.008,-188.321,13.603,-27.191
2.450,0.164,0.646,0.004,-189.313,10.565,-28.885
2.460,0.162,0.652,0.009,-190.779,7.221,-30.824
2.460,0.188,0.657,-0.008,-193.282,4.351,-32.885
2.470,0.203,0.656,-0.038,-197.252,2.351,-35.176
2.470,0.182,0.653,-0.053,-201.313,0.748,-36.687
2.470,0.163,0.642,-0.036,-205.756,0.183,-36.855
2.480,0.129,0.633,-0.040,-210.015,2.351,-36.595
2.480,0.119,0.624,-0.054,-215.359,5.252,-36.031
2.490,0.095,0.621,-0.057,-221.374,6.672,-35.832
2.490,0.081,0.609,-0.072,-228.244,8.427,-35.542
2.500,0.063,0.604,-0.090,-235.588,10.794,-35.328
2.500,0.046,0.584,-0.089,-244.290,12.458,-35.176
2.500,0.009,0.546,-0.059,-251.023,11.664,-34.214
2.510,-0.020,0.511,0.006,-256.656,9.573,-32.229
2.510,-0.038,0.474,0.075,-259.527,9.710,-29.588
2.520,-0.040,0.417,0.175,-258.702,10.824,-26.748
2.520,-0.041,0.377,0.285,-254.595,7.099,-23.511
2.530,-0.065,0.345,0.381,-249.374,-0.229,-20.626
2.530,-0.043,0.314,0.469,-242.305,-6.779,-17.603
2.530,-0.010,0.300,0.541,-232.305,-9.740,-14.611
2.540,0.035,0.307,0.572,-222.794,-10.504,-12.000
2.540,0.061,0.290,0.567,-214.702,-10.443,-11.832
2.550,0.103,0.327,0.524,-210.733,-11.053,-11.359
2.550,0.109,0.324,0.523,-206.122,-13.160,-11.618
2.560,0.123,0.337,0.504,-203.588,-12.962,-11.695
2.560,0.168,0.361,0.469,-204.107,-8.504,-12.168
2.560,0.171,0.374,0.425,-206.061,-3.176,-13.084
2.570,0.170,0.380,0.398,-209.359,0.015,-14.550
2.570,0.146,0.388,0.366,-213.634,2.504,-15.756
2.580,0.151,0.398,0.333,-219.084,5.969,-17.191
2.580,0.147,0.384,0.319,-225.725,7.481,-18.397
2.590,0.122,0.386,0.303,-233.466,7.145,-19.359
2.590,0.094,0.364,0.320,-241.237,4.382,-19.954
2.590,0.096,0.344,0.350,-247.725,-0.153,-20.718
2.600,0.099,0.317,0.412,-252.015,-8.489,-21.634
2.600,0.123,0.274,0.473,-254.656,-17.221,-22.809
2.610,0.160,0.247,0.504,-257.099,-24.061,-24.977
2.610,0.186,0.204,0.584,-255.832,-30.885,-27.450
2.620,0.200,0.142,0.713,-250.031,-36.840,-29.863
2.620,0.170,0.087,0.809,-240.611,-41.527,-30.992
2.620,0.140,0.098,0.896,-234.489,-44.321,-30.061
2.630,0.106,0.070,0.936,-224.244,-48.275,-27.405
2.630,0.064,0.064,0.955,-212.076,-52.366,-23.221
2.640,0.006,0.091,1.008,-197.634,-63.511,-17.939
2.640,0.145,0.042,0.961,-186.672,-55.740,-14.931
2.650,0.174,0.108,0.796,-186.153,-39.359,-9.542
2.650,0.159,0.098,0.785,-184.580,-28.580,-6.641
2.650,0.174,0.084,0.799,-180.870,-21.878,-4.626
2.660,0.209,0.099,0.792,-181.527,-14.885,-2.763
2.660,0.237,0.085,0.767,-183.267,-5.618,-3.328
2.670,0.231,0.102,0.743,-189.084,-0.641,-4.244
2.670,0.182,0.074,0.766,-192.962,-2.046,-5.359
2.680,0.166,0.045,0.800,-193.450,-6.931,-9.053
2.680,0.220,0.057,0.762,-199.359,-5.008,-11.267
2.680,0.213,0.039,0.717,-204.473,-6.489,-14.595
2.690,0.225,0.028,0.779,-208.870,-4.534,-18.824
2.690,0.211,-0.021,0.851,-204.550,-1.374,-20.840
2.700,0.159,-0.029,0.889,-204.626,-14.458,-23.435
2.700,0.158,-0.033,0.881,-203.664,-25.908,-25.588
2.710,0.191,-0.061,0.917,-199.725,-26.763,-27.008
2.710,0.199,-0.077,0.994,-194.977,-23.145,-26.611
2.710,0.178,-0.116,1.027,-188.397,-20.489,-24.718
2.720,0.129,-0.160,1.044,-183.725,-17.802,-22.885
2.720,0.111,-0.153,1.090,-180.519,-12.305,-17.771
2.730,0.103,-0.197,1.179,-176.504,-7.130,-13.725
2.730,0.131,-0.216,1.222,-173.435,2.733,-9.344
2.740,0.140,-0.246,1.233,-169.405,9.450,-7.206
2.740,0.136,-0.262,1.255,-166.458,9.771,-6.214
2.740,0.182,-0.270,1.296,-164.260,11.298,-6.397
2.750,0.212,-0.277,1.292,-161.557,16.794,-7.695
2.750,0.198,-0.280,1.319,-157.786,18.962,-9.038
2.760,0.169,-0.284,1.326,-152.565,18.305,-10.489
2.760,0.160,-0.278,1.309,-148.626,16.641,-11.847
2.770,0.146,-0.269,1.283,-144.366,14.321,-12.885
2.770,0.135,-0.264,1.279,-138.992,10.672,-13.573
2.770,0.121,-0.256,1.264,-134.015,6.687,-13.802
2.780,0.114,-0.249,1.274,-129.863,2.122,-13.817
2.780,0.122,-0.248,1.273,-126.366,-0.168,-13.542
2.790,0.142,-0.234,1.262,-123.069,-0.626,-13.298
2.790,0.167,-0.250,1.297,-120.214,-0.718,-13.756
2.800,0.172,-0.251,1.298,-117.160,-0.137,-14.229
2.800,0.150,-0.269,1.319,-114.076,-0.198,-14.321
2.800,0.141,-0.280,1.334,-110.290,0.229,-14.656
2.810,0.148,-0.286,1.360,-106.595,1.496,-14.763
2.810,0.143,-0.293,1.378,-102.076,4.519,-14.458
2.820,0.132,-0.295,1.392,-97.099,8.198,-13.298
2.820,0.116,-0.295,1.408,-91.466,11.496,-12.550
2.830,0.110,-0.301,1.424,-84.947,14.458,-11.725
2.830,0.090,-0.298,1.409,-79.389,15.298,-11.023
2.830,0.079,-0.283,1.414,-73.481,14.794,-9.893
2.840,0.062,-0.276,1.401,-68.031,14.153,-8.870
2.840,0.050,-0.260,1.373,-63.176,13.206,-7.908
2.850,0.053,-0.246,1.352,-58.977,12.275,-6.885
2.850,0.059,-0.239,1.330,-55.450,11.206,-5.817
2.860,0.057,-0.227,1.297,-52.519,10.916,-5.740
2.860,0.072,-0.220,1.271,-50.611,10.626,-5.588
2.860,0.067,-0.213,1.234,-48.626,8.443,-5.969
2.870,0.063,-0.204,1.207,-47.206,5.969,-6.290
2.870,0.062,-0.187,1.170,-47.405,5.130,-6.244
2.880,0.069,-0.173,1.137,-48.397,5.191,-5.710
2.880,0.074,-0.170,1.130,-49.481,5.511,-4.901
2.880,0.075,-0.163,1.130,-50.214,5.771,-4.244
2.890,0.091,-0.166,1.128,-50.672,7.237,-4.366
2.890,0.104,-0.163,1.119,-50.885,8.183,-4.122
2.900,0.100,-0.173,1.138,-50.855,8.107,-4.061
2.900,0.108,-0.170,1.158,-50.229,8.962,-3.969
2.900,0.104,-0.176,1.162,-48.901,9.771,-3.908
2.910,0.096,-0.185,1.170,-46.824,9.313,-3.924
2.910,0.086,-0.189,1.171,-44.351,8.962,-3.771
2.920,0.069,-0.181,1.177,-42.275,7.756,-3.664
2.920,0.067,-0.187,1.165,-40.244,5.939,-3.634
2.920,0.072,-0.183,1.159,-38.366,4.092,-3.466
2.930,0.066,-0.181,1.159,-36.092,2.656,-3.634
2.930,0.076,-0.177,1.146,-34.198,1.634,-3.374
2.940,0.082,-0.174,1.145,-32.595,0.672,-3.695
2.940,0.086,-0.167,1.141,-30.626,0.382,-3.267
2.940,0.092,-0.164,1.125,-29.344,2.046,-3.756
2.950,0.117,-0.150,1.083,-28.489,6.076,-2.870
2.950,0.073,-0.169,1.112,-25.389,3.405,-2.885
2.960,0.096,-0.159,1.088,-23.618,3.756,-2.641
2.960,0.116,-0.147,1.031,-23.863,7.817,-2.183
2.970,0.121,-0.148,1.018,-23.649,9.802,-2.000
2.970,0.116,-0.148,1.042,-23.069,9.298,-2.183
2.970,0.116,-0.164,1.035,-23.038,9.725,-2.351
2.980,0.118,-0.157,1.031,-23.115,11.084,-2.260
2.980,0.109,-0.167,1.044,-22.305,10.198,-2.382
2.990,0.107,-0.179,1.068,-21.344,8.748,-2.565
2.990,0.120,-0.180,1.072,-20.336,9.511,-2.870
2.990,0.121,-0.179,1.076,-18.916,10.412,-2.733
3.000,0.110,-0.185,1.067,-17.069,10.198,-2.916
3.000,0.100,-0.182,1.077,-15.023,10.046,-2.977
3.010,0.104,-0.174,1.058,-13.038,10.992,-2.916
3.010,0.104,-0.179,1.049,-11.053,12.122,-3.084
3.010,0.100,-0.177,1.037,-9.206,12.763,-2.840
3.020,0.105,-0.167,1.036,-7.847,14.107,-2.718
3.020,0.097,-0.172,1.025,-6.366,15.176,-2.489
3.030,0.090,-0.168,1.028,-4.855,15.435,-2.412
3.030,0.095,-0.161,1.014,-3.802,15.130,-2.458
3.040,0.082,-0.165,0.997,-3.023,14.916,-2.595
3.040,0.084,-0.157,0.992,-2.031,14.153,-2.565
3.040,0.077,-0.157,0.987,-3.115,11.863,-3.069
3.050,0.093,-0.151,0.989,0.275,12.870,-3.282
3.050,0.080,-0.160,0.985,1.756,11.435,-2.779
3.060,0.043,-0.158,0.999,1.924,7.374,-3.450
3.060,0.052,-0.167,0.984,3.374,4.565,-3.603
3.060,0.047,-0.165,0.985,4.626,0.824,-3.557
3.070,0.051,-0.155,0.978,5.527,-1.954,-3.481
3.070,0.075,-0.154,0.963,5.557,-0.366,-2.794
3.080,0.068,-0.148,0.952,5.496,-1.160,-2.458
3.080,0.081,-0.148,0.951,5.206,-0.458,-2.458
3.080,0.085,-0.143,0.948,5.130,1.618,-2.092
3.090,0.093,-0.146,0.949,5.573,3.237,-2.137
3.090,0.078,-0.141,0.939,5.664,4.473,-2.031
3.090,0.076,-0.137,0.917,5.649,5.832,-1.817
3.100,0.070,-0.132,0.910,5.099,6.916,-1.756
3.100,0.071,-0.127,0.906,4.366,7.160,-1.557
3.110,0.068,-0.127,0.900,3.557,7.802,-1.191
3.110,0.068,-0.120,0.888,3.252,8.504,-0.992
3.110,0.066,-0.124,0.889,2.824,9.206,-0.733
3.120,0.058,-0.124,0.883,2.275,9.282,-0.443
3.120,0.059,-0.119,0.877,1.664,8.656,0.061
3.130,0.049,-0.113,0.877,1.130,7.710,0.397
3.130,0.050,-0.125,0.886,0.427,6.076,0.550
3.130,0.051,-0.118,0.879,-0.198,4.550,0.718
3.140,0.062,-0.118,0.885,-0.641,4.366,0.992
3.140,0.061,-0.117,0.889,-0.992,4.443,1.344
3.150,0.063,-0.118,0.892,-1.466,4.504,1.863
3.150,0.055,-0.115,0.886,-1.924,4.748,2.382
3.150,0.067,-0.117,0.897,-2.519,4.992,2.824
3.160,0.081,-0.120,0.897,-2.595,4.901,2.977
3.160,0.082,-0.118,0.909,-3.145,4.565,2.916
3.170,0.087,-0.121,0.909,-3.206,4.595,2.595
3.170,0.090,-0.128,0.918,-3.023,5.282,2.595
3.170,0.090,-0.128,0.925,-3.023,5.817,2.687
3.180,0.099,-0.128,0.921,-2.840,6.321,2.504
3.180,0.103,-0.133,0.932,-2.412,6.382,2.290
3.180,0.091,-0.135,0.929,-1.786,6.168,2.031
3.190,0.090,-0.136,0.930,-1.130,5.115,1.863
3.190,0.093,-0.133,0.918,-0.519,3.679,1.252
3.200,0.094,-0.131,0.923,-0.092,2.580,0.580
3.200,0.096,-0.132,0.912,0.702,2.214,0.275
3.200,0.099,-0.132,0.908,1.298,1.969,-0.366
3.210,0.099,-0.128,0.908,1.496,2.122,-0.733
3.210,0.095,-0.129,0.906,2.305,2.763,-1.084
3.220,0.081,-0.132,0.890,3.389,2.916,-1.069
3.220,0.080,-0.128,0.878,2.931,3.176,-0.931
3.220,0.074,-0.127,0.875,2.473,4.397,-0.672
3.230,0.084,-0.129,0.872,1.679,6.015,-0.244
3.230,0.076,-0.118,0.875,0.397,7.145,0.229
3.240,0.069,-0.120,0.876,-0.473,7.939,0.611
3.240,0.058,-0.127,0.882,-0.595,7.847,1.023
3.240,0.059,-0.131,0.875,-0.458,7.557,1.374
3.250,0.062,-0.131,0.870,0.733,6.565,1.649
3.250,0.062,-0.133,0.883,1.557,4.519,1.817
3.250,0.082,-0.139,0.888,2.168,4.519,1.389
3.260,0.090,-0.129,0.862,1.756,6.534,1.420
3.260,0.071,-0.135,0.875,2.153,5.130,1.130
3.270,0.063,-0.142,0.883,2.214,2.840,1.145
3.270,0.075,-0.143,0.877,2.168,3.435,1.115
3.270,0.078,-0.138,0.866,2.137,4.473,1.099
3.280,0.077,-0.138,0.872,1.954,4.702,1.344
3.280,0.074,-0.136,0.868,1.954,3.924,1.511
3.290,0.077,-0.131,0.870,1.450,3.328,1.649
3.290,0.094,-0.132,0.877,1.527,4.122,1.420
3.290,0.092,-0.130,0.865,1.344,5.344,1.176
3.300,0.077,-0.136,0.872,1.420,5.069,1.282
3.300,0.066,-0.127,0.883,1.588,3.832,1.374
3.300,0.069,-0.139,0.881,2.076,2.672,1.328
3.310,0.078,-0.133,0.877,2.244,2.580,1.191
3.310,0.082,-0.130,0.868,2.351,1.817,0.763
3.320,0.083,-0.129,0.866,2.336,0.626,0.321
3.320,0.073,-0.127,0.863,2.641,-1.176,-0.336
3.320,0.070,-0.126,0.875,2.763,-3.115,-0.626
3.330,0.074,-0.129,0.865,3.023,-3.710,-0.931
3.330,0.080,-0.130,0.874,3.374,-4.092,-1.130
3.340,0.077,-0.135,0.870,3.252,-4.595,-1.328
3.340,0.080,-0.128,0.869,2.672,-4.580,-1.420
3.340,0.081,-0.128,0.876,2.550,-3.908,-1.802
3.350,0.083,-0.119,0.855,2.275,-2.977,-1.893
3.350,0.076,-0.121,0.862,1.023,-2.977,-2.092
3.360,0.080,-0.113,0.866,-0.122,-2.198,-2.229
3.360,0.085,-0.118,0.864,-0.519,-0.595,-2.336
3.360,0.073,-0.114,0.864,-1.191,0.656,-2.321
3.370,0.063,-0.111,0.864,-1.954,1.115,-2.168
3.370,0.051,-0.121,0.868,-2.809,0.947,-2.107
3.380,0.053,-0.122,0.882,-3.420,0.427,-1.847
3.380,0.049,-0.121,0.879,-3.664,0.763,-1.817
3.380,0.042,-0.119,0.888,-3.649,1.267,-1.756
3.390,0.044,-0.126,0.882,-3.527,1.420,-1.252
3.390,0.038,-0.129,0.896,-3.344,0.901,-1.053
3.400,0.031,-0.124,0.900,-2.962,0.702,-0.763
3.400,0.030,-0.128,0.909,-2.305,0.611,-0.565
3.400,0.034,-0.122,0.907,-1.817,1.893,0.000
3.410,0.037,-0.127,0.904,-0.336,2.397,0.336
3.410,0.039,-0.124,0.906,-0.947,1.573,0.244
3.420,0.045,-0.126,0.910,-0.809,0.641,0.397
3.420,0.058,-0.126,0.914,-0.534,0.794,0.305
3.420,0.065,-0.122,0.910,-0.901,1.496,0.351
3.430,0.062,-0.125,0.909,-0.840,2.534,0.595
3.430,0.058,-0.129,0.913,-0.550,2.687,0.290
3.430,0.057,-0.130,0.914,-0.534,2.305,0.214
3.440,0.061,-0.126,0.912,-0.580,2.534,0.198
3.440,0.059,-0.124,0.908,-0.168,2.656,0.336
3.450,0.060,-0.122,0.906,0.061,2.504,0.351
3.450,0.059,-0.122,0.908,0.092,1.573,0.183
3.450,0.062,-0.123,0.901,0.076,1.450,-0.015
3.460,0.062,-0.125,0.905,0.260,1.618,-0.214
3.460,0.053,-0.122,0.897,0.214,1.557,-0.595
3.470,0.052,-0.123,0.893,0.198,0.458,-0.687
3.470,0.041,-0.122,0.898,0.168,-0.779,-0.763
3.470,0.043,-0.120,0.903,0.290,-1.298,-0.870
3.480,0.047,-0.123,0.900,0.794,-1.542,-0.672
3.480,0.035,-0.119,0.887,0.748,-1.634,-0.382
3.490,0.032,-0.117,0.885,0.275,-2.382,-0.229
3.490,0.043,-0.115,0.888,0.214,-2.137,0.015
3.490,0.044,-0.115,0.888,0.275,-1.649,0.244
3.500,0.041,-0.119,0.892,0.031,-1.466,0.382
3.500,0.039,-0.125,0.889,-0.046,-1.710,0.626
3.510,0.036,-0.117,0.895,-0.305,-1.985,0.641
3.510,0.053,-0.121,0.890,-0.290,-2.046,0.779
3.510,0.055,-0.123,0.901,-0.076,-1.679,0.687
3.520,0.057,-0.116,0.894,0.183,-1.298,0.809
3.520,0.060,-0.122,0.897,0.183,-1.389,0.718
3.530,0.064,-0.116,0.894,0.275,-1.527,0.748
3.530,0.065,-0.122,0.902,0.580,-0.916,0.672
3.530,0.064,-0.120,0.892,0.733,-0.137,0.595
3.540,0.058,-0.126,0.890,0.840,0.214,0.656
3.540,0.055,-0.117,0.887,1.008,-0.137,0.901
3.540,0.055,-0.117,0.896,1.298,-0.565,1.008
3.550,0.059,-0.122,0.897,1.389,-1.267,1.221
3.550,0.052,-0.119,0.902,1.832,-1.710,0.962
3.560,0.059,-0.111,0.892,1.954,-2.000,0.809
3.560,0.063,-0.108,0.877,1.649,-2.137,0.687
3.560,0.066,-0.116,0.881,1.450,-2.855,0.687
3.570,0.064,-0.112,0.873,1.298,-2.595,0.489
3.570,0.057,-0.110,0.875,1.405,-2.687,0.626
3.580,0.062,-0.116,0.870,1.176,-2.534,0.687
3.580,0.056,-0.117,0.857,0.626,-3.252,0.565
3.580,0.057,-0.113,0.863,-0.076,-4.137,0.687
3.590,0.078,-0.118,0.882,-0.366,-3.389,0.580
3.590,0.076,-0.117,0.880,-0.458,-2.076,0.977
3.600,0.071,-0.118,0.888,-0.489,-1.511,0.962
3.600,0.060,-0.121,0.884,-1.115,-1.847,1.252
3.600,0.066,-0.119,0.882,-1.221,-1.817,1.130
3.610,0.074,-0.127,0.894,-1.038,-0.672,1.008
3.610,0.078,-0.116,0.893,-1.099,0.763,1.374
3.620,0.066,-0.122,0.886,-1.038,1.389,1.527
3.620,0.072,-0.121,0.886,-1.023,1.756,1.664
3.620,0.067,-0.114,0.885,-1.405,1.374,1.695
3.630,0.067,-0.122,0.873,-1.450,1.069,1.573
3.630,0.068,-0.125,0.887,-1.481,0.840,1.405
3.640,0.076,-0.120,0.893,-1.695,0.733,1.130
3.640,0.076,-0.120,0.899,-1.618,1.542,1.160
3.640,0.070,-0.120,0.887,-1.588,2.000,1.267
3.650,0.062,-0.114,0.886,-1.710,2.031,1.130
3.650,0.067,-0.125,0.885,-1.740,2.015,1.450
3.650,0.065,-0.120,0.877,-1.542,2.305,1.481
3.660,0.065,-0.124,0.890,-1.511,1.710,1.664
3.660,0.066,-0.115,0.895,-1.985,1.069,1.588
3.670,0.077,-0.119,0.899,-1.466,1.191,1.481
3.670,0.068,-0.124,0.904,-1.099,1.740,1.603
3.670,0.065,-0.126,0.903,-0.885,2.076,1.710
3.680,0.059,-0.122,0.909,-0.916,2.061,1.634
3.680,0.061,-0.118,0.903,-0.580,1.450,1.679
3.690,0.054,-0.120,0.896,-0.366,0.412,1.618
3.690,0.060,-0.120,0.896,-0.260,-0.183,1.527
3.690,0.070,-0.118,0.895,-0.168,-0.733,1.511
3.700,0.074,-0.114,0.899,0.305,-0.870,1.267
3.700,0.070,-0.120,0.887,0.198,-1.786,1.099
3.710,0.070,-0.124,0.893,-0.046,-2.366,1.099
3.710,0.076,-0.125,0.893,-0.214,-2.275,0.992
3.710,0.076,-0.120,0.883,0.076,-1.542,0.748
3.720,0.079,-0.125,0.890,0.076,-1.023,0.779
3.720,0.074,-0.121,0.878,0.061,-1.053,0.611
3.730,0.065,-0.124,0.882,0.061,-1.450,0.519
3.730,0.074,-0.118,0.880,-0.015,-1.176,0.626
3.730,0.070,-0.118,0.895,0.137,-0.427,0.550
3.740,0.061,-0.118,0.887,0.015,0.458,0.656
3.740,0.064,-0.118,0.878,0.015,1.511,1.053
3.740,0.059,-0.119,0.877,-0.061,2.122,1.130
3.750,0.056,-0.115,0.878,0.015,2.718,1.344
3.750,0.062,-0.122,0.862,-0.214,3.710,1.511
3.760,0.067,-0.116,0.858,-0.611,4.855,1.878
3.760,0.056,-0.117,0.863,-0.840,4.794,1.832
3.760,0.057,-0.112,0.861,-1.420,4.504,1.908
3.770,0.054,-0.115,0.868,-1.618,4.015,2.061
3.770,0.057,-0.108,0.858,-1.969,3.847,1.939
3.780,0.060,-0.116,0.865,-2.305,3.863,1.939
3.780,0.063,-0.114,0.866,-2.687,3.008,1.908
3.780,0.059,-0.117,0.870,-2.931,2.076,1.985
3.790,0.068,-0.114,0.872,-3.053,1.252,1.954
3.790,0.061,-0.107,0.875,-2.992,0.504,1.832
3.800,0.066,-0.110,0.880,-3.481,-0.137,1.756
3.800,0.083,-0.111,0.886,-3.511,-0.260,1.710
3.800,0.088,-0.109,0.886,-3.588,0.076,1.496
3.810,0.089,-0.107,0.891,-3.679,-0.076,1.603
3.810,0.099,-0.108,0.898,-3.237,0.000,1.008
3.820,0.102,-0.114,0.895,-3.527,-0.397,0.718
3.820,0.102,-0.112,0.901,-3.420,-1.420,0.092
3.820,0.099,-0.117,0.898,-3.267,-1.420,-0.366
3.830,0.100,-0.113,0.901,-2.901,-0.626,-0.534
3.830,0.096,-0.119,0.903,-2.534,0.397,-0.855
3.840,0.083,-0.121,0.897,-2.397,0.702,-0.580
3.840,0.075,-0.116,0.901,-1.832,0.580,-0.947
3.840,0.074,-0.121,0.899,-1.847,0.092,-0.763
3.850,0.066,-0.119,0.888,-1.389,0.489,-1.038
3.850,0.066,-0.115,0.900,-1.160,0.504,-1.084
3.860,0.060,-0.119,0.897,-1.053,0.656,-0.916
3.860,0.056,-0.120,0.892,-0.977,0.183,-0.824
3.860,0.059,-0.119,0.889,-1.573,-0.580,-0.794
3.870,0.061,-0.120,0.888,-1.924,-1.191,-0.855
3.870,0.062,-0.119,0.892,-2.031,-0.611,-0.687
3.880,0.064,-0.120,0.904,-1.924,0.183,-0.809
3.880,0.064,-0.119,0.898,-1.496,0.611,-0.626
3.880,0.062,-0.122,0.898,-1.725,0.534,-0.672
3.890,0.058,-0.116,0.907,-2.183,-0.336,-0.611
3.890,0.067,-0.115,0.899,-1.863,0.076,-0.626
3.900,0.064,-0.121,0.905,-1.588,1.084,-0.550
3.900,0.072,-0.121,0.903,-1.267,1.863,-0.290
3.900,0.071,-0.118,0.903,-1.145,2.107,-0.473
3.910,0.053,-0.125,0.904,-0.748,1.756,-0.412
3.910,0.055,-0.125,0.908,-0.687,2.092,-0.321
3.920,0.052,-0.118,0.912,-0.382,2.672,-0.122
3.920,0.053,-0.120,0.905,-0.260,3.374,0.076
3.920,0.050,-0.124,0.906,-0.061,3.069,0.198
3.930,0.038,-0.123,0.892,0.122,2.580,0.275
3.930,0.044,-0.131,0.894,-0.214,2.290,0.611
3.930,0.046,-0.117,0.886,-0.198,2.305,0.718
3.940,0.048,-0.117,0.884,-0.565,2.153,0.565
3.940,0.043,-0.115,0.891,-1.023,1.466,0.519
3.950,0.052,-0.117,0.887,-1.160,1.282,0.656
3.950,0.053,-0.110,0.892,-1.450,1.634,0.687
3.950,0.059,-0.115,0.899,-1.679,1.802,1.053
3.960,0.054,-0.115,0.894,-1.573,1.939,1.099
3.960,0.050,-0.122,0.892,-1.710,1.511,1.282
3.970,0.057,-0.120,0.894,-1.435,1.511,1.176
3.970,0.064,-0.123,0.904,-1.099,1.695,0.931
3.970,0.075,-0.124,0.917,-0.611,1.084,0.504
3.980,0.071,-0.124,0.910,-0.229,0.702,0.168
3.980,0.061,-0.119,0.904,-0.031,-0.305,-0.137
3.990,0.057,-0.122,0.901,-0.137,-0.687,-0.122
3.990,0.058,-0.120,0.904,-0.031,-0.611,-0.076
3.990,0.057,-0.118,0.908,0.351,0.290,0.183
4.000,0.054,-0.117,0.904,0.779,1.069,0.382
4.000,0.055,-0.117,0.905,0.977,1.618,0.473
4.010,0.044,-0.113,0.895,1.160,1.466,0.641
4.010,0.045,-0.112,0.898,1.679,1.511,0.595
4.010,0.051,-0.117,0.898,1.618,1.221,0.672
4.020,0.043,-0.120,0.893,1.725,1.130,0.824
4.020,0.045,-0.115,0.885,1.802,1.206,0.947
4.020,0.052,-0.105,0.888,1.466,0.550,0.947
