Time,acce_x,acce_y,acce_z,gyro_x,gyro_y, gyro_z
0.000,0.183,-0.257,0.861,-1.634,-3.344,-0.366
0.000,0.182,-0.248,0.869,-1.282,-2.824,-0.260
0.010,0.186,-0.246,0.864,-1.176,-1.710,-0.092
0.010,0.187,-0.246,0.866,-0.885,-1.008,0.015
0.010,0.190,-0.246,0.859,-0.733,0.015,0.183
0.020,0.174,-0.248,0.853,-0.931,0.229,0.870
0.020,0.176,-0.250,0.857,-1.221,0.366,1.328
0.020,0.176,-0.246,0.856,-1.679,0.519,1.450
0.030,0.190,-0.250,0.852,-1.618,1.023,1.725
0.030,0.187,-0.246,0.860,-1.893,1.252,1.649
0.030,0.192,-0.251,0.865,-2.137,1.237,1.573
0.040,0.194,-0.247,0.861,-2.305,1.130,1.313
0.040,0.199,-0.251,0.859,-2.305,0.840,1.298
0.040,0.195,-0.253,0.860,-2.046,0.290,1.160
0.050,0.189,-0.254,0.854,-1.954,0.198,1.298
0.050,0.186,-0.248,0.851,-1.588,0.366,1.603
0.050,0.186,-0.246,0.842,-1.863,0.076,1.603
0.060,0.190,-0.247,0.847,-2.183,-0.489,1.649
0.060,0.201,-0.253,0.854,-2.443,-0.809,1.710
0.070,0.202,-0.250,0.867,-2.473,-0.916,1.527
0.070,0.205,-0.241,0.859,-2.626,-0.641,1.405
0.070,0.191,-0.253,0.856,-2.656,-0.168,1.618
0.080,0.193,-0.253,0.842,-2.443,-0.321,1.573
0.080,0.200,-0.243,0.851,-2.229,0.137,1.649
0.090,0.192,-0.248,0.827,-2.153,0.718,1.863
0.090,0.188,-0.240,0.847,-2.275,0.840,2.015
0.090,0.187,-0.244,0.838,-2.290,0.763,2.168
0.100,0.185,-0.234,0.829,-2.534,0.595,2.168
0.100,0.187,-0.238,0.832,-2.962,1.099,2.382
0.110,0.189,-0.235,0.823,-3.420,1.618,1.969
0.110,0.191,-0.238,0.832,-3.237,1.282,1.939
0.110,0.188,-0.235,0.828,-3.359,0.550,2.015
0.120,0.192,-0.234,0.824,-3.740,-0.214,2.015
0.120,0.202,-0.236,0.838,-3.679,-0.931,1.756
0.130,0.205,-0.240,0.846,-4.076,-1.298,1.481
0.130,0.206,-0.237,0.851,-3.985,-2.137,1.115
0.130,0.208,-0.240,0.853,-4.244,-2.611,1.099
0.140,0.209,-0.241,0.864,-4.473,-2.672,0.870
0.140,0.209,-0.246,0.875,-4.290,-2.885,0.763
0.150,0.207,-0.246,0.880,-3.893,-3.481,0.855
0.150,0.215,-0.251,0.892,-3.893,-3.710,0.412
0.150,0.228,-0.253,0.896,-3.481,-3.786,-0.031
0.160,0.227,-0.256,0.895,-2.870,-3.435,-0.366
0.160,0.223,-0.248,0.906,-2.473,-2.885,-0.687
0.170,0.219,-0.257,0.894,-1.908,-2.504,-1.023
0.170,0.223,-0.259,0.890,-1.282,-2.321,-1.252
0.170,0.217,-0.263,0.891,-0.321,-1.695,-1.313
0.180,0.213,-0.256,0.883,-0.122,-0.947,-1.420
0.180,0.212,-0.256,0.874,0.168,-0.550,-1.282
0.190,0.213,-0.246,0.878,0.336,0.168,-1.130
0.190,0.206,-0.250,0.864,0.198,0.809,-1.267
0.190,0.209,-0.244,0.865,0.214,1.527,-1.160
0.200,0.199,-0.245,0.858,0.092,2.168,-1.374
0.200,0.196,-0.243,0.843,-0.382,2.580,-1.267
0.210,0.192,-0.247,0.843,-1.130,2.504,-1.206
0.210,0.193,-0.246,0.844,-1.466,2.366,-1.099
0.210,0.188,-0.248,0.861,-1.588,2.641,-0.779
0.220,0.182,-0.249,0.847,-2.198,2.901,-0.656
0.220,0.188,-0.248,0.847,-2.412,3.237,-0.504
0.230,0.188,-0.249,0.841,-2.489,2.840,-0.382
0.230,0.184,-0.246,0.857,-2.550,2.656,-0.473
0.230,0.178,-0.247,0.853,-2.427,2.443,-0.290
0.240,0.178,-0.249,0.859,-2.382,1.908,-0.351
0.240,0.190,-0.251,0.871,-2.275,2.092,-0.519
0.250,0.192,-0.244,0.863,-1.908,1.634,-0.534
0.250,0.190,-0.250,0.864,-1.374,1.466,-0.611
0.250,0.177,-0.250,0.855,-1.282,1.313,-0.733
0.260,0.179,-0.250,0.855,-1.221,0.626,-0.916
0.260,0.182,-0.243,0.859,-1.267,-0.366,-0.809
0.270,0.190,-0.243,0.852,-1.328,-1.115,-1.023
0.270,0.182,-0.241,0.844,-1.405,-1.664,-1.008
0.270,0.185,-0.250,0.846,-1.908,-1.847,-0.870
0.280,0.177,-0.242,0.845,-2.275,-1.847,-0.809
0.280,0.184,-0.246,0.845,-2.611,-2.229,-0.458
0.290,0.190,-0.250,0.849,-2.550,-1.908,-0.229
0.290,0.190,-0.251,0.861,-2.611,-1.420,-0.137
0.290,0.191,-0.243,0.863,-2.550,-0.916,0.046
0.300,0.190,-0.254,0.862,-2.718,-0.489,0.122
0.300,0.192,-0.250,0.856,-2.748,-0.183,0.275
0.310,0.191,-0.256,0.872,-3.053,0.519,0.244
0.310,0.185,-0.256,0.863,-2.809,0.977,0.412
0.310,0.194,-0.254,0.877,-2.672,1.252,0.702
0.320,0.191,-0.257,0.879,-2.672,1.420,0.580
0.320,0.187,-0.257,0.879,-2.229,1.542,0.534
0.330,0.188,-0.257,0.878,-2.061,1.664,0.840
0.330,0.184,-0.258,0.877,-1.756,1.878,0.794
0.330,0.178,-0.253,0.877,-1.176,1.771,0.763
0.340,0.180,-0.250,0.869,-1.160,1.954,0.901
0.340,0.180,-0.254,0.877,-1.084,1.695,0.916
0.350,0.176,-0.250,0.874,-0.779,1.313,0.748
0.350,0.184,-0.260,0.874,-0.397,0.992,0.748
0.350,0.181,-0.253,0.876,-0.137,0.992,0.656
0.360,0.181,-0.252,0.872,0.168,0.916,0.687
0.360,0.178,-0.247,0.868,-0.015,0.840,0.626
0.360,0.176,-0.253,0.853,0.092,0.550,0.672
0.370,0.177,-0.248,0.847,0.061,0.534,0.794
0.370,0.178,-0.242,0.845,-0.168,-0.305,0.977
0.380,0.179,-0.245,0.845,-0.489,-1.115,1.023
0.380,0.178,-0.244,0.847,-0.687,-1.176,1.053
0.380,0.174,-0.244,0.846,-1.038,-1.481,1.267
0.390,0.180,-0.239,0.846,-1.481,-1.405,1.649
0.390,0.180,-0.240,0.845,-1.527,-1.130,1.634
0.400,0.189,-0.242,0.864,-1.298,-0.916,1.634
0.400,0.198,-0.242,0.861,-1.557,-0.244,1.527
0.400,0.184,-0.241,0.851,-1.481,0.015,1.664
0.410,0.189,-0.245,0.856,-1.405,0.229,1.679
0.410,0.202,-0.244,0.861,-1.237,0.626,1.313
0.420,0.195,-0.246,0.872,-0.855,0.458,1.237
0.420,0.192,-0.249,0.870,-0.870,0.214,0.977
0.420,0.193,-0.241,0.864,-1.176,0.305,1.038
0.430,0.199,-0.250,0.855,-1.298,0.061,1.160
0.430,0.190,-0.240,0.869,-1.191,-0.336,0.870
0.440,0.190,-0.248,0.870,-0.809,-0.504,0.947
0.440,0.187,-0.244,0.857,-0.473,-0.443,1.206
0.440,0.192,-0.242,0.855,-0.382,-0.076,1.099
0.450,0.192,-0.239,0.860,-0.534,0.107,1.038
0.450,0.192,-0.245,0.848,-0.794,-0.260,1.237
0.460,0.192,-0.239,0.845,-1.084,-0.275,0.962
0.460,0.192,-0.241,0.847,-1.527,-0.198,1.130
0.460,0.187,-0.237,0.861,-1.603,0.107,1.160
0.470,0.194,-0.242,0.861,-1.603,0.229,1.344
0.470,0.189,-0.241,0.876,-1.817,0.351,1.527
0.480,0.196,-0.249,0.867,-1.802,1.115,1.618
0.480,0.201,-0.252,0.876,-1.527,1.511,1.817
0.480,0.206,-0.248,0.879,-1.282,2.122,1.679
0.490,0.200,-0.247,0.880,-0.992,1.817,1.756
0.490,0.200,-0.253,0.869,-0.794,1.740,1.695
0.490,0.209,-0.252,0.866,-0.794,1.893,1.313
0.500,0.207,-0.248,0.874,-0.595,1.893,1.099
0.500,0.209,-0.251,0.877,-0.565,1.511,0.931
0.510,0.207,-0.247,0.866,-0.443,1.664,0.656
0.510,0.200,-0.250,0.865,-0.427,1.405,0.595
0.510,0.198,-0.244,0.853,-0.382,1.573,0.397
0.520,0.195,-0.244,0.854,-0.763,1.542,0.107
0.520,0.189,-0.241,0.846,-1.069,1.298,-0.046
0.530,0.195,-0.248,0.861,-1.160,1.206,0.153
0.530,0.196,-0.245,0.854,-1.481,1.221,0.107
0.530,0.191,-0.234,0.848,-1.725,1.115,-0.031
0.540,0.187,-0.245,0.852,-2.000,1.237,-0.031
0.540,0.183,-0.247,0.853,-2.260,0.611,-0.092
0.550,0.179,-0.242,0.848,-2.321,0.275,0.092
0.550,0.178,-0.252,0.862,-2.626,-0.168,0.046
0.550,0.178,-0.246,0.859,-2.397,-0.595,0.168
0.560,0.174,-0.245,0.861,-2.565,-0.916,0.290
0.560,0.178,-0.249,0.865,-2.656,-0.840,0.351
0.570,0.171,-0.249,0.867,-2.290,-0.748,0.305
0.570,0.181,-0.246,0.870,-2.153,-0.809,0.580
0.570,0.184,-0.251,0.883,-1.969,-0.290,0.748
0.580,0.178,-0.253,0.881,-1.496,-0.656,0.626
0.580,0.171,-0.250,0.890,-0.794,-0.290,0.931
0.590,0.172,-0.256,0.868,-0.397,-0.504,1.023
0.590,0.177,-0.257,0.867,-0.366,-0.489,1.115
0.590,0.172,-0.251,0.862,-0.153,0.015,1.282
0.600,0.182,-0.256,0.859,-0.321,0.611,1.420
0.600,0.179,-0.257,0.864,0.092,1.023,1.298
0.610,0.174,-0.256,0.861,0.275,1.176,1.542
0.610,0.166,-0.262,0.853,-0.244,1.282,1.649
0.610,0.165,-0.258,0.850,-0.046,1.435,1.832
0.620,0.162,-0.262,0.860,-0.229,1.328,1.954
0.620,0.159,-0.260,0.864,-0.168,1.191,2.275
0.620,0.153,-0.257,0.858,-0.046,1.160,2.763
0.630,0.147,-0.272,0.869,0.275,0.824,3.206
0.630,0.159,-0.263,0.868,0.153,0.504,3.649
0.640,0.158,-0.258,0.865,0.351,0.687,4.000
0.640,0.165,-0.265,0.877,0.519,0.733,4.015
0.640,0.167,-0.264,0.878,0.885,1.084,4.122
0.650,0.173,-0.259,0.874,1.053,1.115,4.214
0.650,0.172,-0.258,0.868,1.237,0.855,4.031
0.660,0.173,-0.263,0.864,1.008,0.809,3.908
0.660,0.165,-0.261,0.864,1.344,1.069,3.817
0.660,0.151,-0.264,0.863,1.237,1.008,4.076
0.670,0.150,-0.255,0.862,1.176,0.641,4.580
0.670,0.145,-0.258,0.856,0.702,-0.229,4.870
0.670,0.148,-0.258,0.848,0.702,-0.519,5.221
0.680,0.148,-0.260,0.858,0.550,-0.824,5.206
0.680,0.142,-0.262,0.853,0.672,-1.313,5.542
0.690,0.131,-0.268,0.854,0.763,-1.573,6.031
0.690,0.125,-0.268,0.865,1.084,-2.061,6.290
0.690,0.111,-0.270,0.856,1.176,-2.748,6.870
0.700,0.102,-0.267,0.869,1.435,-3.817,7.863
0.700,0.080,-0.270,0.866,2.107,-4.916,8.748
0.710,0.078,-0.262,0.870,2.458,-6.061,9.817
0.710,0.084,-0.261,0.877,2.534,-6.748,10.809
0.710,0.089,-0.260,0.877,2.550,-7.466,11.740
0.720,0.098,-0.253,0.888,2.794,-7.679,12.397
0.720,0.102,-0.256,0.885,2.809,-8.458,12.977
0.730,0.112,-0.256,0.881,2.931,-8.733,13.267
0.730,0.120,-0.252,0.884,2.824,-9.511,13.527
0.730,0.125,-0.260,0.889,3.023,-9.985,13.939
0.740,0.131,-0.265,0.899,3.328,-10.443,14.015
0.740,0.145,-0.258,0.910,3.496,-11.008,14.122
0.750,0.144,-0.266,0.920,3.771,-11.466,14.137
0.750,0.147,-0.264,0.924,4.382,-11.603,14.122
0.750,0.144,-0.261,0.926,5.176,-11.863,14.427
0.760,0.141,-0.263,0.922,5.573,-11.893,14.733
0.760,0.157,-0.263,0.912,6.137,-11.679,14.840
0.770,0.160,-0.261,0.914,6.733,-11.481,15.053
0.770,0.159,-0.260,0.920,7.176,-11.466,14.992
0.770,0.170,-0.257,0.915,8.000,-10.931,15.099
0.780,0.159,-0.248,0.919,8.336,-10.519,15.511
0.780,0.163,-0.250,0.899,8.519,-9.924,15.832
0.790,0.171,-0.247,0.899,8.702,-9.405,16.061
0.790,0.167,-0.248,0.891,8.626,-9.496,16.076
0.790,0.176,-0.250,0.891,8.824,-9.282,16.336
0.800,0.181,-0.245,0.896,9.084,-8.901,16.489
0.800,0.180,-0.235,0.886,9.191,-8.427,16.397
0.810,0.185,-0.236,0.892,9.389,-8.183,16.351
0.810,0.191,-0.234,0.895,9.282,-8.290,16.214
0.810,0.184,-0.235,0.886,9.618,-8.290,16.168
0.820,0.187,-0.228,0.881,9.557,-8.458,15.893
0.820,0.187,-0.234,0.869,9.511,-8.702,16.031
0.830,0.176,-0.232,0.877,9.359,-8.550,16.000
0.830,0.186,-0.229,0.873,9.389,-9.069,16.015
0.830,0.179,-0.228,0.876,9.176,-9.679,16.458
0.840,0.183,-0.222,0.863,8.885,-9.511,16.580
0.840,0.185,-0.222,0.864,8.748,-9.038,16.672
0.850,0.195,-0.223,0.871,8.473,-8.595,16.672
0.850,0.200,-0.224,0.874,8.290,-8.092,16.427
0.850,0.197,-0.229,0.865,8.427,-8.031,16.275
0.860,0.193,-0.222,0.866,8.092,-7.557,16.550
0.860,0.183,-0.218,0.860,8.244,-7.206,16.550
0.870,0.185,-0.218,0.866,7.847,-7.115,16.855
0.870,0.179,-0.219,0.855,7.786,-6.855,17.252
0.870,0.183,-0.224,0.867,7.359,-6.870,17.588
0.880,0.183,-0.220,0.865,7.328,-6.916,17.710
0.880,0.178,-0.223,0.864,7.588,-7.053,17.756
0.890,0.173,-0.225,0.864,7.328,-7.038,17.939
0.890,0.167,-0.235,0.860,6.916,-7.374,18.122
0.890,0.157,-0.239,0.860,7.053,-7.695,18.473
0.900,0.141,-0.243,0.877,7.069,-8.580,18.885
0.900,0.133,-0.243,0.882,7.221,-9.084,19.679
0.910,0.124,-0.244,0.885,7.618,-9.405,20.519
0.910,0.111,-0.259,0.887,7.710,-9.695,21.588
0.910,0.109,-0.263,0.897,8.260,-10.351,22.641
0.920,0.103,-0.264,0.897,9.008,-9.771,23.649
0.920,0.094,-0.265,0.904,9.664,-9.252,24.855
0.930,0.087,-0.268,0.898,10.672,-8.718,26.260
0.930,0.073,-0.270,0.884,11.176,-8.076,27.878
0.930,0.070,-0.277,0.891,11.405,-7.221,29.679
0.940,0.058,-0.277,0.881,11.664,-6.443,31.756
0.940,0.042,-0.280,0.894,11.878,-5.832,33.924
0.950,0.033,-0.286,0.893,11.802,-5.008,36.565
0.950,0.018,-0.292,0.895,12.824,-4.366,38.718
0.950,-0.013,-0.296,0.897,13.084,-4.473,41.969
0.960,-0.042,-0.293,0.893,13.313,-4.519,45.313
0.960,-0.058,-0.306,0.893,13.740,-3.893,49.863
0.970,-0.070,-0.303,0.899,14.718,-3.710,53.863
0.970,-0.077,-0.311,0.905,15.038,-4.229,57.969
0.980,-0.100,-0.320,0.880,15.374,-5.802,61.863
0.980,-0.106,-0.315,0.877,15.038,-6.458,65.649
0.980,-0.110,-0.318,0.863,14.687,-7.695,69.130
0.990,-0.107,-0.321,0.873,14.626,-9.160,72.580
0.990,-0.122,-0.323,0.874,14.382,-11.191,75.695
1.000,-0.130,-0.333,0.888,14.611,-12.641,78.885
1.000,-0.136,-0.336,0.893,14.718,-13.878,82.427
1.010,-0.143,-0.341,0.885,14.580,-14.565,85.603
1.010,-0.125,-0.340,0.906,14.229,-15.344,88.229
1.010,-0.115,-0.342,0.911,14.672,-15.496,90.702
1.020,-0.103,-0.347,0.929,15.908,-15.664,92.565
1.020,-0.097,-0.348,0.936,16.733,-16.168,94.794
1.030,-0.092,-0.343,0.929,17.649,-16.397,96.550
1.030,-0.085,-0.341,0.917,17.985,-16.931,97.557
1.030,-0.071,-0.345,0.911,18.076,-17.756,97.618
1.040,-0.067,-0.344,0.914,18.611,-19.389,99.435
1.040,-0.056,-0.338,0.916,19.313,-20.580,100.198
1.050,-0.053,-0.337,0.907,19.603,-21.679,100.885
1.050,-0.059,-0.340,0.907,19.710,-22.275,102.214
1.060,-0.043,-0.339,0.917,20.305,-23.023,102.931
1.060,-0.038,-0.342,0.912,21.160,-23.847,103.878
1.070,-0.031,-0.346,0.921,21.969,-24.534,104.718
1.070,-0.031,-0.338,0.904,22.443,-25.557,105.878
1.070,-0.035,-0.342,0.906,22.992,-26.656,106.550
1.080,-0.018,-0.344,0.909,23.557,-28.168,107.420
1.080,-0.005,-0.344,0.896,23.405,-29.313,107.695
1.090,0.006,-0.343,0.883,23.313,-30.443,107.832
1.090,-0.009,-0.349,0.884,23.252,-32.031,108.275
1.100,-0.025,-0.353,0.890,23.939,-33.725,109.176
1.100,-0.035,-0.352,0.894,24.565,-35.069,110.260
1.100,-0.036,-0.357,0.878,25.511,-36.000,111.374
1.110,-0.036,-0.364,0.865,25.802,-36.260,112.992
1.110,-0.043,-0.371,0.855,26.458,-36.641,114.565
1.120,-0.037,-0.365,0.861,26.962,-36.809,116.107
1.120,-0.032,-0.362,0.865,27.145,-36.534,117.802
1.130,-0.024,-0.366,0.853,27.038,-34.931,119.511
1.130,-0.018,-0.361,0.849,27.053,-34.214,120.748
1.130,-0.008,-0.367,0.840,26.977,-33.557,122.107
1.140,-0.020,-0.372,0.849,27.145,-32.840,123.664
1.140,-0.036,-0.371,0.847,27.420,-32.763,125.847
1.150,-0.038,-0.376,0.844,28.000,-32.107,128.076
1.150,-0.032,-0.376,0.840,28.305,-31.603,130.137
1.160,-0.013,-0.374,0.843,28.580,-30.916,132.031
1.160,0.001,-0.376,0.844,28.687,-30.519,133.527
1.160,-0.002,-0.384,0.840,28.611,-30.504,134.641
1.170,-0.011,-0.389,0.829,28.305,-32.244,135.695
1.170,0.003,-0.388,0.831,28.153,-34.244,136.550
1.180,0.009,-0.387,0.820,27.756,-36.290,137.130
1.180,0.014,-0.384,0.837,27.893,-38.336,137.649
1.190,0.017,-0.381,0.837,27.847,-40.809,137.863
1.190,0.030,-0.383,0.838,27.969,-43.573,138.198
1.190,0.046,-0.386,0.832,28.336,-46.290,138.763
1.200,0.052,-0.388,0.831,29.267,-48.550,139.084
1.200,0.058,-0.380,0.830,30.061,-50.427,139.939
1.210,0.074,-0.386,0.823,30.244,-51.527,140.443
1.210,0.083,-0.388,0.822,30.473,-51.878,141.084
1.220,0.086,-0.397,0.825,30.702,-52.198,141.893
1.220,0.091,-0.396,0.827,30.947,-52.168,143.008
1.220,0.088,-0.399,0.838,31.328,-51.847,144.397
1.230,0.091,-0.404,0.836,31.618,-50.244,146.092
1.230,0.109,-0.401,0.825,32.061,-47.328,147.985
1.240,0.116,-0.404,0.822,32.076,-44.336,149.802
1.240,0.121,-0.402,0.832,32.229,-41.557,151.573
1.250,0.132,-0.404,0.831,32.397,-38.031,153.328
1.250,0.123,-0.414,0.839,33.282,-34.794,155.237
1.250,0.137,-0.417,0.829,33.847,-31.374,157.252
1.260,0.143,-0.420,0.832,34.168,-28.565,159.435
1.260,0.128,-0.428,0.846,35.115,-27.405,161.695
1.270,0.138,-0.435,0.857,36.641,-26.947,163.664
1.270,0.145,-0.438,0.851,38.229,-25.817,165.603
1.280,0.174,-0.434,0.850,39.130,-24.870,167.206
1.280,0.189,-0.442,0.835,39.939,-24.275,167.527
1.280,0.202,-0.438,0.825,40.672,-24.122,167.496
1.290,0.208,-0.430,0.806,40.580,-24.443,167.008
1.290,0.215,-0.429,0.801,40.366,-26.183,166.229
1.300,0.212,-0.429,0.812,40.290,-28.458,165.908
1.300,0.210,-0.421,0.795,40.687,-30.550,165.557
1.310,0.218,-0.422,0.779,40.489,-31.466,165.893
1.310,0.226,-0.417,0.791,40.031,-31.282,165.908
1.310,0.238,-0.420,0.783,40.458,-31.359,165.710
1.320,0.227,-0.418,0.783,41.313,-33.710,165.679
1.320,0.237,-0.416,0.758,40.779,-35.893,165.359
1.330,0.243,-0.412,0.739,39.634,-37.405,164.931
1.330,0.259,-0.402,0.716,38.137,-38.626,164.534
1.330,0.265,-0.399,0.720,36.733,-40.534,164.122
1.340,0.287,-0.398,0.721,35.252,-42.702,163.863
1.340,0.293,-0.403,0.738,34.504,-44.916,163.420
1.350,0.306,-0.407,0.745,33.939,-45.511,162.977
1.350,0.330,-0.410,0.732,33.069,-43.679,162.504
1.360,0.350,-0.406,0.730,31.664,-41.847,161.786
1.360,0.351,-0.416,0.732,30.382,-41.053,161.313
1.360,0.343,-0.421,0.761,30.351,-40.336,161.359
1.370,0.345,-0.423,0.768,30.656,-39.374,161.649
1.370,0.354,-0.423,0.769,30.779,-37.573,161.863
1.380,0.364,-0.433,0.779,30.947,-36.626,162.046
1.380,0.370,-0.434,0.791,31.710,-35.878,161.878
1.390,0.376,-0.426,0.782,31.924,-35.756,161.588
1.390,0.378,-0.426,0.781,32.733,-36.061,161.099
1.390,0.380,-0.426,0.780,33.359,-37.237,160.641
1.400,0.385,-0.423,0.772,33.450,-38.626,160.504
1.400,0.375,-0.427,0.768,34.061,-42.076,160.031
1.410,0.386,-0.419,0.773,34.824,-46.214,159.298
1.410,0.411,-0.416,0.749,34.748,-47.985,157.939
1.420,0.430,-0.409,0.734,33.740,-49.573,156.885
1.420,0.434,-0.401,0.742,32.748,-51.588,156.061
1.420,0.442,-0.395,0.733,32.443,-52.733,155.420
1.430,0.452,-0.394,0.734,32.107,-51.924,155.344
1.430,0.476,-0.392,0.713,30.672,-50.183,154.931
1.440,0.492,-0.402,0.711,29.237,-48.351,154.183
1.440,0.493,-0.399,0.718,28.519,-46.763,153.649
1.450,0.508,-0.399,0.743,28.046,-44.534,152.962
1.450,0.540,-0.389,0.741,27.374,-40.550,151.924
1.450,0.553,-0.390,0.742,26.626,-35.634,150.550
1.460,0.561,-0.392,0.749,25.695,-31.450,149.160
1.460,0.556,-0.393,0.745,25.664,-28.763,147.924
1.470,0.558,-0.387,0.761,25.817,-26.962,146.702
1.470,0.563,-0.385,0.765,26.702,-25.435,145.542
1.480,0.569,-0.387,0.753,27.282,-24.366,143.573
1.480,0.577,-0.383,0.737,27.053,-23.328,140.992
1.480,0.551,-0.378,0.734,26.702,-24.870,139.145
1.490,0.555,-0.369,0.729,26.397,-25.908,137.359
1.490,0.548,-0.361,0.715,25.573,-27.115,135.450
1.500,0.552,-0.362,0.716,25.053,-27.924,134.580
1.500,0.535,-0.361,0.705,24.473,-27.542,133.573
1.510,0.523,-0.368,0.719,24.015,-26.550,132.565
1.510,0.508,-0.368,0.724,23.771,-25.725,132.031
1.510,0.500,-0.368,0.727,23.893,-24.916,131.908
1.520,0.484,-0.373,0.751,23.969,-24.183,132.580
1.520,0.482,-0.364,0.750,24.473,-22.244,133.863
1.530,0.493,-0.365,0.742,24.061,-19.450,134.763
1.530,0.517,-0.345,0.729,23.099,-16.824,135.160
1.530,0.539,-0.339,0.726,21.618,-14.962,134.824
1.540,0.555,-0.332,0.720,20.321,-14.290,134.275
1.540,0.575,-0.338,0.704,18.534,-12.565,131.725
1.550,0.604,-0.321,0.697,16.458,-10.321,128.733
1.550,0.612,-0.320,0.695,14.611,-8.702,125.557
1.560,0.605,-0.316,0.696,13.740,-8.336,122.137
1.560,0.581,-0.315,0.702,12.672,-9.252,119.573
1.560,0.559,-0.315,0.673,11.267,-9.145,117.298
1.570,0.522,-0.311,0.655,9.008,-9.130,115.939
1.570,0.482,-0.302,0.646,7.038,-10.565,115.313
1.580,0.464,-0.312,0.637,4.534,-13.115,114.580
1.580,0.447,-0.310,0.627,1.053,-17.450,114.137
1.590,0.402,-0.322,0.625,-2.397,-22.321,114.870
1.590,0.346,-0.319,0.621,-6.122,-26.519,116.931
1.590,0.316,-0.324,0.624,-11.176,-30.427,120.962
1.600,0.308,-0.338,0.648,-14.473,-33.832,124.779
1.600,0.329,-0.339,0.669,-16.641,-36.733,128.534
1.610,0.368,-0.351,0.689,-18.947,-38.473,131.084
1.610,0.417,-0.356,0.740,-19.221,-39.634,131.740
1.620,0.453,-0.355,0.787,-17.542,-40.931,131.893
1.620,0.512,-0.364,0.798,-16.076,-42.901,130.809
1.620,0.553,-0.357,0.788,-16.107,-44.534,128.458
1.630,0.615,-0.353,0.773,-14.260,-40.962,123.756
1.630,0.719,-0.344,0.803,-10.947,-31.893,116.977
1.640,0.763,-0.329,0.823,-6.962,-24.824,108.275
1.640,0.781,-0.334,0.835,-3.450,-23.176,99.893
1.650,0.768,-0.335,0.823,-0.397,-20.397,91.374
1.650,0.733,-0.335,0.800,2.107,-12.992,85.649
1.650,0.693,-0.305,0.770,4.076,-7.924,80.611
1.660,0.676,-0.337,0.733,3.878,-7.282,75.908
1.660,0.659,-0.312,0.745,3.023,-9.496,71.481
1.670,0.685,-0.297,0.714,1.710,-4.336,68.855
1.670,0.659,-0.321,0.741,-0.779,-5.191,63.924
1.670,0.667,-0.319,0.781,-0.672,-2.718,60.229
1.680,0.631,-0.319,0.791,-1.557,0.397,57.786
1.680,0.619,-0.330,0.771,-2.336,3.893,55.557
1.690,0.585,-0.324,0.758,-3.008,7.221,53.542
1.690,0.571,-0.331,0.776,-3.313,9.878,51.710
1.690,0.579,-0.333,0.798,-3.313,12.992,49.511
1.700,0.570,-0.345,0.809,-2.229,14.672,46.611
1.700,0.538,-0.337,0.807,-1.099,14.733,44.641
1.710,0.487,-0.340,0.787,-2.244,12.916,43.924
1.710,0.503,-0.338,0.830,-3.878,12.397,43.450
1.710,0.530,-0.346,0.849,-3.420,12.275,40.840
1.720,0.550,-0.353,0.874,-2.626,11.802,37.908
1.720,0.538,-0.353,0.869,-2.443,12.198,35.466
1.730,0.512,-0.351,0.875,-2.427,11.771,34.031
1.730,0.489,-0.363,0.865,-1.771,11.542,32.901
1.730,0.494,-0.353,0.882,-1.115,11.588,31.023
1.740,0.514,-0.362,0.885,-0.244,12.885,28.748
1.740,0.500,-0.346,0.880,-0.351,11.481,27.130
1.750,0.484,-0.344,0.887,-1.359,9.756,25.374
1.750,0.481,-0.357,0.903,-1.573,7.863,23.466
1.750,0.471,-0.345,0.914,-0.458,6.962,22.000
1.760,0.463,-0.347,0.938,0.718,5.969,20.061
1.760,0.480,-0.346,0.918,0.931,5.557,17.695
1.770,0.476,-0.335,0.900,0.748,5.115,15.099
1.770,0.463,-0.326,0.887,0.473,6.321,13.008
1.770,0.445,-0.320,0.890,0.000,6.550,11.023
1.780,0.442,-0.316,0.889,-0.168,7.344,8.779
1.780,0.429,-0.311,0.887,-0.580,8.351,6.183
1.790,0.410,-0.303,0.888,-1.221,7.664,3.847
1.790,0.400,-0.299,0.895,-2.092,6.962,1.191
1.790,0.360,-0.300,0.898,-2.580,6.107,-0.443
1.800,0.330,-0.292,0.893,-2.977,6.046,-0.870
1.800,0.282,-0.300,0.884,-3.206,5.008,-0.901
1.810,0.265,-0.306,0.897,-2.809,3.053,-0.504
1.810,0.263,-0.303,0.908,-1.847,1.710,-0.336
1.810,0.264,-0.309,0.917,-0.351,2.153,-0.519
1.820,0.261,-0.310,0.906,1.160,1.573,-0.763
1.820,0.266,-0.304,0.884,2.076,0.366,-1.435
1.830,0.277,-0.295,0.857,2.397,-0.565,-2.458
1.830,0.288,-0.294,0.847,2.534,-0.519,-3.298
1.830,0.283,-0.296,0.841,2.580,-0.840,-3.527
1.840,0.280,-0.306,0.824,2.351,-2.153,-3.649
1.840,0.283,-0.296,0.825,2.351,-3.038,-3.924
1.850,0.301,-0.289,0.800,1.084,-3.084,-4.046
1.850,0.341,-0.291,0.784,-0.260,-1.756,-4.947
1.850,0.363,-0.292,0.782,-1.573,0.107,-6.000
1.860,0.370,-0.291,0.789,-2.489,1.878,-6.809
1.860,0.379,-0.298,0.786,-3.802,3.985,-8.107
1.870,0.387,-0.302,0.772,-4.427,6.198,-8.855
1.870,0.402,-0.294,0.759,-5.511,8.122,-9.817
1.870,0.417,-0.307,0.753,-6.870,10.015,-11.237
1.880,0.425,-0.309,0.745,-7.847,11.832,-13.282
1.880,0.441,-0.312,0.743,-8.885,14.275,-15.115
1.890,0.440,-0.312,0.740,-10.641,15.496,-16.748
1.890,0.439,-0.324,0.764,-11.237,15.328,-18.198
1.890,0.423,-0.330,0.781,-11.649,12.031,-19.466
1.900,0.433,-0.343,0.790,-11.313,9.420,-20.992
1.900,0.448,-0.347,0.803,-10.275,8.031,-21.939
1.910,0.454,-0.357,0.802,-9.511,7.344,-23.160
1.910,0.464,-0.361,0.797,-8.076,5.893,-24.092
1.920,0.491,-0.360,0.804,-7.389,6.198,-25.847
1.920,0.532,-0.359,0.771,-6.718,7.115,-28.046
1.920,0.548,-0.348,0.769,-6.397,7.420,-30.489
1.930,0.563,-0.363,0.766,-6.748,8.137,-32.947
1.930,0.569,-0.360,0.763,-7.115,8.443,-36.031
1.940,0.574,-0.353,0.750,-7.542,8.046,-38.687
1.940,0.578,-0.361,0.742,-8.641,6.702,-41.573
1.940,0.576,-0.369,0.737,-10.092,4.947,-44.504
1.950,0.600,-0.374,0.739,-11.405,3.374,-48.260
1.950,0.612,-0.367,0.749,-12.290,2.183,-51.695
1.960,0.618,-0.375,0.750,-13.038,0.260,-55.511
1.960,0.621,-0.391,0.735,-14.519,-1.817,-58.962
1.960,0.627,-0.392,0.756,-15.863,-2.656,-62.137
1.970,0.638,-0.396,0.747,-16.718,-2.718,-65.756
1.970,0.652,-0.403,0.743,-17.847,-2.198,-68.931
1.980,0.666,-0.404,0.740,-18.901,-1.221,-72.214
1.980,0.685,-0.406,0.745,-20.397,1.252,-75.817
1.990,0.701,-0.403,0.733,-22.107,5.069,-79.237
1.990,0.708,-0.408,0.724,-24.046,9.573,-82.656
1.990,0.712,-0.409,0.719,-25.878,13.466,-85.405
2.000,0.728,-0.410,0.710,-28.351,19.038,-88.779
2.000,0.726,-0.406,0.693,-30.931,25.832,-92.122
2.010,0.728,-0.407,0.679,-34.534,31.221,-94.779
2.010,0.733,-0.421,0.701,-35.649,32.885,-99.069
2.020,0.740,-0.435,0.729,-35.206,32.000,-103.313
2.020,0.729,-0.435,0.713,-35.740,31.863,-107.634
2.020,0.724,-0.451,0.716,-35.740,30.641,-112.092
2.030,0.698,-0.457,0.746,-34.809,27.740,-116.290
2.030,0.683,-0.468,0.759,-33.450,24.489,-119.863
2.040,0.668,-0.480,0.763,-31.924,21.053,-122.947
2.040,0.651,-0.481,0.757,-30.855,17.115,-125.786
2.050,0.658,-0.483,0.764,-30.183,13.237,-128.962
2.050,0.669,-0.487,0.770,-29.313,11.160,-132.244
2.050,0.661,-0.488,0.769,-28.611,8.504,-135.710
2.060,0.664,-0.487,0.750,-28.580,6.550,-139.115
2.060,0.669,-0.486,0.730,-29.252,5.893,-142.214
2.070,0.681,-0.476,0.724,-30.443,8.290,-145.435
2.070,0.689,-0.481,0.707,-32.031,11.221,-149.099
2.080,0.711,-0.477,0.700,-33.496,15.038,-153.176
2.080,0.727,-0.478,0.683,-35.160,20.504,-157.954
2.080,0.728,-0.477,0.670,-36.947,27.359,-162.443
2.090,0.720,-0.477,0.658,-39.817,34.092,-166.550
2.090,0.702,-0.479,0.644,-42.550,40.947,-170.198
2.100,0.677,-0.491,0.630,-45.374,47.344,-173.618
2.100,0.660,-0.495,0.623,-48.275,52.855,-177.481
2.110,0.653,-0.509,0.624,-51.008,57.023,-181.176
2.110,0.632,-0.507,0.626,-53.359,59.649,-184.626
2.120,0.597,-0.523,0.644,-55.359,60.580,-188.244
2.120,0.580,-0.537,0.657,-57.435,61.557,-191.115
2.120,0.532,-0.545,0.661,-58.779,59.725,-193.221
2.130,0.471,-0.570,0.705,-58.580,56.565,-194.916
2.130,0.413,-0.576,0.754,-56.840,50.855,-194.733
2.140,0.335,-0.609,0.810,-53.710,45.328,-192.748
2.140,0.294,-0.619,0.860,-48.641,40.000,-190.031
2.150,0.275,-0.627,0.905,-42.290,34.672,-186.656
2.150,0.264,-0.620,0.925,-35.939,28.443,-183.557
2.150,0.279,-0.608,0.912,-30.092,24.824,-180.458
2.160,0.302,-0.586,0.893,-25.115,24.031,-177.649
2.160,0.323,-0.575,0.875,-21.908,26.137,-175.618
2.170,0.344,-0.561,0.861,-19.115,29.710,-173.389
2.170,0.358,-0.536,0.818,-17.344,34.977,-171.221
2.180,0.362,-0.519,0.768,-17.466,41.435,-169.695
2.180,0.404,-0.500,0.724,-18.901,49.588,-169.099
2.180,0.431,-0.479,0.682,-21.771,58.366,-170.198
2.190,0.458,-0.472,0.641,-25.542,66.076,-172.351
2.190,0.454,-0.464,0.615,-30.198,71.695,-175.725
2.200,0.445,-0.454,0.593,-35.725,76.733,-179.313
2.200,0.436,-0.449,0.562,-41.481,79.832,-183.099
2.210,0.400,-0.455,0.559,-46.794,79.069,-186.504
2.210,0.365,-0.466,0.583,-50.244,74.000,-189.649
2.220,0.338,-0.481,0.607,-52.305,67.710,-192.748
2.220,0.317,-0.501,0.640,-54.107,61.145,-195.328
2.220,0.268,-0.533,0.687,-54.931,54.260,-197.023
2.230,0.214,-0.550,0.729,-53.893,46.351,-196.809
2.230,0.138,-0.566,0.779,-51.282,38.779,-195.038
2.240,0.099,-0.569,0.828,-48.076,31.389,-191.023
2.240,0.068,-0.571,0.843,-45.221,26.382,-185.939
2.250,0.066,-0.574,0.865,-41.649,25.634,-180.000
2.250,0.076,-0.574,0.874,-38.275,29.557,-173.588
2.250,0.085,-0.565,0.880,-34.718,36.031,-167.023
2.260,0.106,-0.560,0.864,-32.046,46.412,-160.748
2.260,0.098,-0.546,0.859,-29.466,56.977,-153.969
2.270,0.087,-0.542,0.856,-26.275,65.679,-147.115
2.270,0.099,-0.539,0.847,-23.420,74.916,-141.771
2.280,0.112,-0.526,0.827,-21.542,83.878,-137.878
2.280,0.117,-0.504,0.791,-20.733,93.206,-134.351
2.280,0.117,-0.499,0.776,-21.710,100.168,-132.092
2.290,0.119,-0.489,0.756,-23.328,104.183,-130.931
2.290,0.129,-0.480,0.757,-24.931,106.107,-130.702
2.300,0.124,-0.475,0.733,-27.191,106.366,-131.038
2.300,0.128,-0.467,0.705,-30.214,104.214,-132.275
2.310,0.123,-0.467,0.714,-33.435,100.321,-134.153
2.310,0.126,-0.464,0.715,-36.046,93.740,-136.779
2.320,0.119,-0.465,0.710,-38.061,85.313,-139.405
2.320,0.101,-0.474,0.707,-39.985,74.092,-141.802
2.320,0.085,-0.474,0.733,-41.298,62.122,-143.725
2.330,0.074,-0.480,0.740,-42.183,49.740,-145.695
2.330,0.083,-0.485,0.764,-43.221,39.084,-146.962
2.340,0.077,-0.488,0.801,-43.267,28.275,-147.893
2.340,0.094,-0.495,0.821,-42.916,20.733,-148.427
2.350,0.105,-0.496,0.831,-41.893,16.718,-148.290
2.350,0.106,-0.496,0.834,-41.084,14.443,-147.603
2.350,0.114,-0.507,0.866,-39.099,14.382,-146.351
2.360,0.127,-0.508,0.861,-36.702,16.229,-144.855
2.360,0.139,-0.506,0.870,-34.427,20.229,-143.221
2.370,0.145,-0.499,0.858,-32.351,25.740,-141.145
2.370,0.142,-0.508,0.867,-30.244,32.015,-139.023
2.380,0.122,-0.507,0.854,-27.878,37.939,-137.008
2.380,0.114,-0.512,0.858,-26.061,44.504,-134.824
2.380,0.114,-0.512,0.851,-25.206,50.275,-132.901
2.390,0.110,-0.502,0.837,-24.550,56.092,-131.313
2.390,0.108,-0.499,0.834,-23.802,62.076,-130.031
2.400,0.099,-0.499,0.816,-23.603,66.824,-128.779
2.400,0.093,-0.500,0.804,-23.740,69.969,-127.573
2.410,0.085,-0.495,0.783,-23.786,71.740,-126.779
2.410,0.083,-0.487,0.775,-24.489,72.382,-126.611
2.420,0.086,-0.485,0.766,-25.099,71.893,-126.626
2.420,0.083,-0.479,0.762,-26.168,70.427,-126.947
2.420,0.094,-0.471,0.766,-27.191,68.015,-128.214
2.430,0.097,-0.465,0.755,-28.260,65.206,-129.802
2.430,0.090,-0.469,0.760,-28.840,60.489,-131.252
2.440,0.063,-0.469,0.782,-29.511,54.595,-132.122
2.440,0.023,-0.479,0.795,-29.038,48.611,-132.305
2.450,-0.004,-0.474,0.804,-27.878,42.824,-131.008
2.450,-0.031,-0.472,0.829,-26.458,37.618,-128.977
2.450,-0.032,-0.477,0.832,-24.641,33.298,-126.687
2.460,-0.021,-0.475,0.842,-22.901,30.321,-124.336
2.460,-0.018,-0.470,0.858,-21.176,29.023,-121.740
2.470,-0.018,-0.468,0.870,-18.870,28.656,-118.947
2.470,-0.008,-0.463,0.873,-16.916,30.519,-116.412
2.480,0.003,-0.454,0.879,-15.221,34.183,-113.954
2.480,0.013,-0.442,0.870,-13.847,39.267,-111.786
2.490,0.004,-0.444,0.847,-12.641,43.466,-110.092
2.490,-0.008,-0.440,0.849,-11.664,46.885,-108.321
2.490,-0.015,-0.441,0.830,-10.947,50.809,-106.687
2.500,-0.027,-0.435,0.822,-10.779,53.084,-105.450
2.500,-0.033,-0.422,0.807,-10.901,53.695,-104.382
2.510,-0.046,-0.421,0.784,-11.282,52.748,-103.328
2.510,-0.062,-0.410,0.760,-12.000,50.565,-102.901
2.520,-0.075,-0.395,0.763,-13.221,46.931,-102.275
2.520,-0.090,-0.386,0.749,-14.824,41.725,-101.496
2.520,-0.096,-0.390,0.760,-16.489,36.718,-100.550
2.530,-0.123,-0.386,0.749,-17.786,31.496,-98.931
2.530,-0.149,-0.387,0.774,-19.069,25.298,-97.084
2.540,-0.168,-0.388,0.787,-20.321,19.435,-94.504
2.540,-0.169,-0.389,0.783,-21.466,15.069,-92.183
2.550,-0.160,-0.380,0.812,-22.260,12.275,-89.221
2.550,-0.159,-0.382,0.847,-22.122,9.099,-86.305
2.560,-0.152,-0.388,0.875,-21.832,6.763,-83.603
2.560,-0.139,-0.385,0.874,-21.221,5.985,-80.901
2.560,-0.115,-0.377,0.885,-20.351,6.611,-78.565
2.570,-0.103,-0.379,0.887,-19.527,7.206,-76.412
2.570,-0.104,-0.370,0.889,-18.901,7.344,-74.000
2.580,-0.098,-0.365,0.892,-18.351,7.481,-71.954
2.580,-0.082,-0.365,0.885,-18.015,8.137,-70.031
2.590,-0.072,-0.361,0.899,-17.863,9.588,-67.695
2.590,-0.051,-0.361,0.906,-17.557,12.489,-65.557
2.590,-0.048,-0.361,0.920,-16.672,16.046,-63.466
2.600,-0.071,-0.362,0.913,-15.481,18.595,-60.855
2.600,-0.083,-0.363,0.913,-14.611,21.038,-58.382
2.610,-0.080,-0.369,0.920,-13.740,22.626,-56.412
2.610,-0.067,-0.362,0.923,-12.611,24.489,-54.687
2.620,-0.066,-0.361,0.933,-11.817,25.374,-53.389
2.620,-0.062,-0.354,0.934,-10.824,25.756,-52.153
2.620,-0.068,-0.357,0.939,-9.908,25.298,-50.351
2.630,-0.083,-0.357,0.936,-8.427,23.160,-48.992
2.630,-0.085,-0.354,0.928,-7.313,21.786,-47.328
2.640,-0.100,-0.351,0.926,-5.664,19.145,-45.023
2.640,-0.119,-0.347,0.923,-4.351,16.794,-42.672
2.650,-0.137,-0.347,0.926,-2.183,12.992,-39.511
2.650,-0.146,-0.343,0.921,-0.824,9.969,-36.382
2.650,-0.133,-0.323,0.910,0.275,8.427,-33.023
2.660,-0.128,-0.323,0.903,1.328,7.115,-29.771
2.660,-0.104,-0.310,0.895,2.321,5.603,-27.237
2.670,-0.088,-0.305,0.910,2.748,4.794,-24.794
2.670,-0.067,-0.309,0.891,2.931,4.031,-22.901
2.670,-0.038,-0.300,0.884,2.855,4.336,-21.145
2.680,-0.025,-0.290,0.872,3.115,4.412,-19.771
2.680,-0.013,-0.282,0.870,2.977,4.321,-18.550
2.690,-0.013,-0.280,0.861,3.344,3.573,-17.725
2.690,-0.013,-0.276,0.839,2.733,1.863,-16.580
2.690,-0.001,-0.272,0.834,1.878,0.092,-15.573
2.700,0.010,-0.273,0.839,1.435,-0.916,-14.366
2.700,0.015,-0.268,0.840,0.687,-2.046,-13.405
2.710,0.016,-0.270,0.842,0.412,-3.771,-12.656
2.710,0.021,-0.266,0.841,-0.137,-5.771,-12.015
2.720,0.031,-0.271,0.832,-1.328,-7.740,-11.420
2.720,0.023,-0.267,0.829,-2.504,-8.794,-10.397
2.720,0.041,-0.262,0.836,-3.664,-9.099,-9.374
2.730,0.052,-0.268,0.843,-4.336,-8.824,-8.290
2.730,0.051,-0.264,0.850,-4.550,-8.137,-7.328
2.740,0.041,-0.264,0.845,-4.519,-7.298,-6.031
2.740,0.042,-0.265,0.833,-4.977,-6.504,-4.397
2.740,0.040,-0.264,0.827,-5.771,-5.695,-2.901
2.750,0.045,-0.271,0.815,-6.855,-4.962,-1.099
2.750,0.049,-0.257,0.834,-7.939,-4.351,0.611
2.760,0.050,-0.263,0.836,-8.779,-4.076,1.740
2.760,0.065,-0.258,0.830,-10.015,-4.748,2.977
2.760,0.074,-0.262,0.850,-10.947,-5.130,3.878
2.770,0.090,-0.267,0.871,-11.221,-5.435,4.626
2.770,0.106,-0.266,0.873,-11.038,-5.618,5.023
2.780,0.107,-0.263,0.879,-11.603,-6.794,5.084
2.780,0.114,-0.259,0.895,-11.603,-7.679,5.237
2.780,0.125,-0.270,0.910,-10.947,-8.580,5.389
2.790,0.136,-0.273,0.916,-10.412,-9.771,5.740
2.790,0.154,-0.271,0.942,-9.573,-10.718,5.679
2.800,0.193,-0.274,0.950,-8.504,-10.947,4.779
2.800,0.212,-0.278,0.963,-6.718,-11.328,3.908
2.800,0.222,-0.285,0.987,-4.824,-11.847,2.779
2.810,0.227,-0.281,0.982,-2.763,-11.557,2.031
2.810,0.233,-0.281,0.984,-0.550,-10.473,1.664
2.820,0.243,-0.286,0.992,1.649,-9.282,1.130
2.820,0.243,-0.294,0.983,3.359,-8.260,0.916
2.820,0.239,-0.288,0.976,5.405,-6.595,0.901
2.830,0.237,-0.287,0.962,7.221,-4.443,1.313
2.830,0.232,-0.288,0.943,8.076,-2.458,1.771
2.840,0.234,-0.278,0.935,8.672,-0.214,2.153
2.840,0.232,-0.284,0.929,9.115,2.137,2.824
2.840,0.234,-0.281,0.925,9.298,4.000,3.252
2.850,0.233,-0.280,0.912,9.542,5.511,3.802
2.850,0.237,-0.274,0.901,9.481,7.191,3.969
2.860,0.243,-0.272,0.895,9.863,9.359,3.756
2.860,0.241,-0.281,0.896,10.229,11.160,3.893
2.860,0.227,-0.277,0.885,10.718,12.366,3.771
2.870,0.221,-0.273,0.890,11.542,12.916,3.847
2.870,0.210,-0.278,0.879,12.290,12.947,3.817
2.880,0.198,-0.276,0.875,12.794,12.672,3.969
2.880,0.198,-0.273,0.858,12.901,12.351,4.168
2.880,0.184,-0.266,0.843,13.115,11.695,4.229
2.890,0.188,-0.268,0.841,13.221,10.305,4.275
2.890,0.183,-0.261,0.830,12.885,9.130,4.122
2.900,0.177,-0.259,0.826,12.198,7.435,4.153
2.900,0.171,-0.258,0.811,11.710,5.710,4.229
2.900,0.173,-0.255,0.810,11.008,4.870,4.153
2.910,0.180,-0.256,0.797,9.847,4.321,4.076
2.910,0.182,-0.257,0.800,8.656,3.420,3.939
2.910,0.184,-0.257,0.793,7.405,2.260,3.527
2.920,0.177,-0.256,0.802,6.366,0.916,3.115
2.920,0.177,-0.253,0.798,5.328,-0.580,3.053
2.930,0.172,-0.253,0.800,4.733,-1.985,2.885
2.930,0.174,-0.256,0.809,4.427,-2.687,3.023
2.930,0.163,-0.261,0.808,3.893,-4.534,3.099
2.940,0.160,-0.262,0.819,3.359,-6.748,3.328
2.940,0.168,-0.262,0.823,2.931,-7.542,3.573
2.950,0.193,-0.261,0.841,2.626,-6.611,3.496
2.950,0.202,-0.264,0.836,2.687,-5.618,3.298
2.950,0.206,-0.265,0.853,2.550,-5.130,2.901
2.960,0.205,-0.271,0.844,2.977,-3.466,2.519
2.960,0.204,-0.274,0.835,2.870,-1.893,2.733
2.970,0.203,-0.271,0.849,3.038,-0.427,2.656
2.970,0.200,-0.274,0.836,2.641,1.191,2.870
2.970,0.194,-0.260,0.834,2.580,2.305,2.947
2.980,0.196,-0.275,0.840,2.153,2.611,2.962
2.980,0.199,-0.270,0.839,1.878,3.160,3.084
2.980,0.201,-0.275,0.843,1.313,3.359,2.916
2.990,0.194,-0.274,0.841,1.008,3.038,2.702
2.990,0.198,-0.274,0.846,1.099,2.137,2.595
3.000,0.191,-0.270,0.852,1.038,1.298,2.412
3.000,0.192,-0.274,0.847,1.176,0.519,2.580
3.000,0.180,-0.273,0.852,1.267,-0.321,2.519
3.010,0.175,-0.272,0.856,1.939,-1.466,3.069
3.010,0.167,-0.268,0.867,2.489,-2.885,3.618
3.020,0.163,-0.271,0.864,2.824,-3.786,4.229
3.020,0.170,-0.271,0.854,2.916,-4.305,4.870
3.020,0.185,-0.260,0.857,3.145,-3.802,5.527
3.030,0.186,-0.257,0.855,2.947,-2.931,6.107
3.030,0.183,-0.256,0.843,3.069,-2.000,6.626
3.030,0.194,-0.254,0.832,2.794,-0.885,6.794
3.040,0.193,-0.254,0.835,2.412,0.595,7.084
3.040,0.193,-0.247,0.820,1.771,1.359,7.191
3.050,0.190,-0.252,0.810,1.313,2.046,7.389
3.050,0.192,-0.249,0.817,0.092,1.878,7.405
3.050,0.201,-0.247,0.824,-0.977,1.344,7.557
3.060,0.207,-0.246,0.835,-1.267,1.115,7.267
3.060,0.199,-0.249,0.843,-1.435,0.489,6.885
3.070,0.206,-0.245,0.839,-1.832,-0.534,6.885
3.070,0.208,-0.250,0.838,-1.756,-1.557,6.702
3.070,0.204,-0.249,0.849,-1.695,-3.527,6.305
3.080,0.206,-0.251,0.859,-1.634,-5.328,5.802
3.080,0.216,-0.255,0.876,-1.130,-6.687,5.267
3.090,0.219,-0.252,0.883,-0.595,-7.481,5.130
3.090,0.219,-0.257,0.880,-0.244,-8.198,4.840
3.090,0.221,-0.253,0.885,0.290,-8.565,4.489
3.100,0.221,-0.251,0.872,0.779,-8.702,4.397
3.100,0.217,-0.250,0.878,0.794,-8.366,4.290
3.110,0.219,-0.254,0.864,0.733,-7.985,4.183
3.110,0.232,-0.250,0.885,0.382,-7.237,4.336
3.110,0.234,-0.253,0.889,0.580,-5.878,4.214
3.120,0.232,-0.256,0.884,1.038,-4.321,4.412
3.120,0.230,-0.253,0.880,1.115,-3.450,4.290
3.130,0.221,-0.248,0.882,1.069,-3.206,4.443
3.130,0.223,-0.257,0.888,1.435,-2.641,4.290
3.130,0.227,-0.256,0.888,1.603,-1.954,4.366
3.140,0.232,-0.253,0.902,2.092,-1.740,4.229
3.140,0.229,-0.254,0.893,2.794,-1.481,4.229
3.140,0.216,-0.256,0.888,3.344,-1.344,4.137
3.150,0.215,-0.252,0.883,3.954,-1.557,4.336
3.150,0.206,-0.253,0.881,4.183,-2.107,4.137
3.160,0.208,-0.249,0.869,4.046,-2.229,4.198
3.160,0.191,-0.250,0.870,3.954,-2.061,4.458
3.160,0.199,-0.246,0.855,4.015,-2.137,4.611
3.170,0.198,-0.250,0.858,3.939,-2.000,5.084
3.170,0.201,-0.245,0.860,3.908,-0.977,5.389
3.180,0.198,-0.251,0.851,3.679,-0.061,5.603
3.180,0.194,-0.252,0.856,3.664,0.534,5.618
3.180,0.194,-0.249,0.855,3.359,1.191,5.863
3.190,0.189,-0.246,0.843,3.069,1.481,5.832
3.190,0.197,-0.243,0.826,2.336,2.015,5.985
3.190,0.190,-0.241,0.834,1.969,1.450,5.847
3.200,0.190,-0.241,0.847,1.053,1.618,5.786
3.200,0.183,-0.248,0.841,0.595,1.237,5.954
3.210,0.186,-0.245,0.844,0.122,0.565,5.740
3.210,0.191,-0.244,0.843,-0.336,-0.015,5.756
3.210,0.198,-0.244,0.848,-0.779,-0.565,5.695
3.220,0.199,-0.246,0.845,-0.611,-0.962,5.557
3.220,0.197,-0.241,0.856,-0.534,-1.649,5.176
3.230,0.191,-0.250,0.855,-0.351,-2.427,5.053
3.230,0.201,-0.243,0.856,-0.031,-2.626,4.885
3.230,0.201,-0.247,0.872,0.214,-1.832,4.672
3.240,0.196,-0.243,0.873,0.962,-1.847,5.023
3.240,0.195,-0.231,0.864,1.298,-1.939,5.038
3.250,0.194,-0.235,0.854,1.786,-1.802,4.916
3.250,0.190,-0.227,0.854,2.061,-1.969,5.191
3.250,0.191,-0.227,0.845,1.725,-2.550,5.237
3.260,0.191,-0.221,0.828,1.664,-2.855,5.191
3.260,0.194,-0.219,0.826,1.145,-3.115,5.206
3.270,0.196,-0.221,0.825,0.656,-3.435,5.252
3.270,0.191,-0.226,0.825,0.168,-4.092,5.252
3.270,0.205,-0.221,0.814,-0.794,-4.504,5.282
3.280,0.207,-0.221,0.816,-1.588,-4.885,5.023
3.280,0.210,-0.219,0.822,-2.351,-5.511,4.947
3.290,0.216,-0.222,0.825,-2.779,-6.015,4.611
3.290,0.223,-0.225,0.832,-3.237,-5.969,4.534
3.290,0.226,-0.223,0.832,-3.679,-5.786,4.305
3.300,0.220,-0.232,0.831,-4.000,-6.260,4.290
3.300,0.232,-0.236,0.849,-4.321,-6.015,4.061
3.310,0.234,-0.238,0.865,-4.076,-4.992,3.878
3.310,0.236,-0.238,0.865,-3.481,-3.481,3.786
3.310,0.229,-0.237,0.873,-2.885,-2.550,3.878
3.320,0.222,-0.238,0.862,-2.137,-2.107,3.603
3.320,0.232,-0.241,0.867,-1.679,-1.481,3.450
3.330,0.238,-0.230,0.860,-1.298,-0.260,3.603
3.330,0.232,-0.228,0.860,-0.901,0.977,3.466
3.330,0.235,-0.226,0.851,-0.870,1.679,3.221
3.340,0.230,-0.227,0.854,-0.824,2.321,3.160
3.340,0.227,-0.223,0.845,-0.702,2.977,2.733
3.340,0.226,-0.222,0.837,-0.977,3.191,2.366
3.350,0.224,-0.222,0.843,-1.282,3.374,1.954
3.350,0.213,-0.224,0.829,-1.511,3.206,1.802
3.360,0.205,-0.227,0.836,-1.969,2.504,1.511
3.360,0.204,-0.228,0.842,-2.076,2.290,1.389
3.360,0.200,-0.234,0.846,-2.153,1.924,1.466
3.370,0.191,-0.235,0.850,-2.061,1.832,1.542
3.370,0.183,-0.235,0.844,-1.985,1.405,1.924
3.380,0.179,-0.243,0.841,-2.137,0.565,2.061
3.380,0.177,-0.241,0.846,-2.122,0.000,2.244
3.380,0.182,-0.248,0.844,-1.847,0.244,2.351
3.390,0.178,-0.247,0.842,-1.573,0.595,2.931
3.390,0.183,-0.245,0.837,-1.573,1.145,3.053
3.400,0.173,-0.252,0.838,-1.603,1.695,3.252
3.400,0.181,-0.249,0.829,-1.420,1.893,3.466
3.400,0.175,-0.250,0.826,-1.649,1.954,3.802
3.410,0.172,-0.249,0.831,-1.985,1.969,3.847
3.410,0.169,-0.251,0.825,-1.878,1.939,4.366
3.420,0.174,-0.247,0.836,-1.771,2.015,4.748
3.420,0.177,-0.244,0.824,-1.954,2.092,4.702
3.420,0.181,-0.248,0.819,-1.756,1.756,4.916
3.430,0.178,-0.247,0.820,-1.878,1.435,5.160
3.430,0.175,-0.249,0.828,-1.786,1.130,5.649
3.430,0.177,-0.245,0.824,-1.786,1.221,6.061
3.440,0.187,-0.237,0.823,-1.954,1.282,6.412
3.440,0.188,-0.243,0.835,-1.771,1.237,6.443
3.450,0.190,-0.245,0.827,-1.679,1.115,6.305
3.450,0.198,-0.239,0.824,-2.000,0.626,6.382
3.450,0.196,-0.234,0.822,-2.336,0.168,6.122
3.460,0.208,-0.237,0.830,-2.687,-0.382,5.542
3.460,0.211,-0.232,0.818,-2.962,-0.290,5.435
3.470,0.209,-0.231,0.825,-2.885,-0.748,4.962
3.470,0.202,-0.232,0.837,-3.313,-1.908,4.870
3.470,0.201,-0.232,0.830,-3.374,-2.565,4.641
3.480,0.193,-0.227,0.827,-3.405,-3.405,4.351
3.480,0.199,-0.223,0.827,-4.229,-4.458,4.702
3.490,0.203,-0.225,0.825,-4.885,-5.420,4.641
3.490,0.211,-0.220,0.820,-5.191,-6.382,4.687
3.490,0.215,-0.219,0.827,-5.802,-6.901,4.183
3.500,0.214,-0.217,0.828,-6.519,-7.145,4.076
3.500,0.217,-0.213,0.827,-7.527,-7.679,3.695
3.510,0.218,-0.209,0.834,-8.382,-8.122,3.817
3.510,0.219,-0.215,0.832,-9.145,-8.458,3.939
3.510,0.225,-0.221,0.852,-9.160,-8.229,3.939
3.520,0.243,-0.215,0.861,-9.450,-7.588,3.496
3.520,0.249,-0.222,0.887,-8.931,-7.008,3.313
3.530,0.241,-0.225,0.895,-8.092,-7.099,3.069
3.530,0.244,-0.229,0.892,-7.588,-7.206,2.748
3.530,0.247,-0.229,0.892,-7.130,-6.229,2.565
3.540,0.238,-0.235,0.883,-6.153,-5.649,2.351
3.540,0.231,-0.235,0.895,-5.573,-5.496,2.427
3.550,0.233,-0.232,0.882,-5.313,-5.802,2.382
3.550,0.236,-0.234,0.884,-5.023,-5.023,2.092
3.550,0.239,-0.236,0.873,-4.672,-3.771,1.725
3.560,0.223,-0.243,0.865,-4.809,-2.977,1.832
3.560,0.232,-0.240,0.857,-5.099,-1.985,1.557
3.570,0.223,-0.242,0.851,-5.160,-0.992,1.359
3.570,0.220,-0.248,0.855,-5.359,-0.046,1.221
3.570,0.213,-0.250,0.856,-5.618,0.733,1.252
3.580,0.212,-0.249,0.848,-5.878,1.099,1.328
3.580,0.198,-0.258,0.861,-6.153,1.206,1.603
3.590,0.201,-0.271,0.856,-6.305,1.298,1.740
3.590,0.196,-0.267,0.870,-6.183,1.817,1.786
3.590,0.199,-0.274,0.869,-5.664,2.641,1.802
3.600,0.201,-0.279,0.873,-5.298,2.641,2.000
3.600,0.193,-0.282,0.872,-4.855,2.412,2.183
3.610,0.195,-0.289,0.874,-4.260,2.550,2.046
3.610,0.195,-0.295,0.866,-3.863,2.794,2.229
3.610,0.195,-0.289,0.881,-3.450,3.267,2.473
3.620,0.188,-0.291,0.876,-2.824,3.099,2.824
3.620,0.185,-0.300,0.877,-2.244,2.931,2.977
3.620,0.184,-0.302,0.875,-1.740,3.038,3.344
3.630,0.186,-0.300,0.875,-1.618,3.679,3.466
3.630,0.192,-0.299,0.882,-1.344,4.931,4.076
3.640,0.193,-0.301,0.893,-0.260,5.985,4.305
3.640,0.203,-0.303,0.887,0.672,7.328,4.443
3.640,0.210,-0.299,0.885,1.221,8.061,4.595
3.650,0.203,-0.303,0.871,1.298,8.733,4.382
3.650,0.201,-0.298,0.865,1.527,9.237,4.321
3.660,0.200,-0.293,0.866,1.389,9.282,3.954
3.660,0.189,-0.299,0.849,1.374,8.504,3.786
3.660,0.182,-0.298,0.837,0.962,7.725,3.725
3.670,0.173,-0.297,0.839,0.565,6.840,3.908
3.670,0.179,-0.294,0.830,0.122,5.542,3.618
3.670,0.182,-0.281,0.818,-0.718,4.656,3.618
3.680,0.179,-0.287,0.824,-1.527,3.252,3.313
3.680,0.188,-0.281,0.826,-2.458,2.275,3.176
3.690,0.186,-0.283,0.839,-3.237,1.008,2.809
3.690,0.198,-0.288,0.843,-3.969,0.412,2.458
3.690,0.197,-0.284,0.858,-4.336,-0.275,2.076
3.700,0.198,-0.294,0.873,-4.550,-1.038,1.786
3.700,0.192,-0.296,0.891,-4.244,-1.649,1.802
3.710,0.191,-0.293,0.898,-3.679,-1.985,1.740
3.710,0.192,-0.298,0.906,-3.176,-2.122,1.939
3.710,0.197,-0.295,0.923,-2.580,-2.137,2.382
3.720,0.208,-0.299,0.923,-1.924,-2.000,2.641
3.720,0.214,-0.298,0.913,-0.763,-2.000,2.244
3.730,0.223,-0.301,0.913,-0.229,-2.214,2.107
3.730,0.221,-0.297,0.917,0.061,-2.595,1.695
3.730,0.235,-0.296,0.913,0.718,-1.832,1.206
3.740,0.232,-0.296,0.922,1.160,-1.313,0.779
3.740,0.236,-0.295,0.920,1.740,-1.496,0.626
3.750,0.226,-0.292,0.921,2.290,-1.588,0.046
3.750,0.231,-0.286,0.905,2.443,-1.237,0.168
3.750,0.222,-0.281,0.903,2.550,-0.473,-0.046
3.760,0.230,-0.280,0.912,2.550,-0.366,-0.122
3.760,0.231,-0.274,0.913,2.763,0.229,-0.137
3.770,0.219,-0.279,0.900,2.763,0.824,-0.137
3.770,0.222,-0.281,0.898,2.595,1.206,-0.107
3.770,0.223,-0.271,0.895,2.244,1.466,0.061
3.780,0.222,-0.273,0.889,2.397,1.557,0.229
3.780,0.220,-0.272,0.903,2.107,2.061,0.504
3.780,0.215,-0.264,0.904,2.061,3.298,0.595
3.790,0.219,-0.264,0.894,2.382,3.847,0.504
3.790,0.218,-0.266,0.887,2.397,4.885,0.595
3.800,0.216,-0.260,0.882,2.427,5.267,0.458
3.800,0.221,-0.256,0.883,2.061,5.328,0.061
3.800,0.215,-0.258,0.871,2.244,5.634,0.046
3.810,0.213,-0.254,0.879,2.198,6.244,-0.198
3.810,0.200,-0.247,0.867,2.046,6.107,-0.519
3.820,0.194,-0.248,0.843,1.817,5.374,-0.580
3.820,0.189,-0.252,0.847,1.634,4.382,-0.901
3.820,0.193,-0.242,0.844,1.298,2.977,-0.870
3.830,0.185,-0.242,0.841,1.099,1.053,-1.206
3.830,0.180,-0.250,0.849,0.672,-1.069,-1.282
3.840,0.185,-0.247,0.847,0.458,-2.260,-1.573
3.840,0.188,-0.249,0.845,0.137,-2.931,-1.603
3.840,0.186,-0.256,0.852,0.198,-3.481,-1.695
3.850,0.192,-0.245,0.855,0.290,-4.168,-1.786
3.850,0.193,-0.252,0.845,0.244,-3.924,-1.924
3.850,0.186,-0.253,0.843,0.458,-3.511,-1.756
3.860,0.190,-0.248,0.851,0.504,-3.237,-1.740
3.860,0.197,-0.243,0.841,0.794,-2.855,-1.450
3.870,0.194,-0.251,0.843,0.824,-2.015,-1.511
3.870,0.196,-0.245,0.836,0.565,-1.145,-1.389
3.870,0.193,-0.245,0.832,0.305,-0.824,-1.542
3.880,0.186,-0.242,0.832,0.183,-0.519,-1.374
3.880,0.190,-0.247,0.840,0.031,-0.076,-1.420
3.890,0.186,-0.246,0.836,0.107,0.366,-1.313
3.890,0.183,-0.254,0.845,-0.305,0.641,-1.160
3.890,0.173,-0.253,0.842,-0.366,0.580,-1.008
3.900,0.171,-0.247,0.844,-0.443,-0.015,-0.687
3.900,0.170,-0.252,0.847,-0.397,-0.321,-0.397
3.910,0.188,-0.256,0.859,-0.427,0.153,-0.153
3.910,0.181,-0.254,0.853,-0.458,0.473,0.015
3.910,0.171,-0.253,0.853,-0.550,0.198,0.366
3.920,0.177,-0.248,0.847,-0.824,-0.198,0.504
3.920,0.175,-0.253,0.852,-1.069,-0.397,0.901
3.930,0.174,-0.254,0.858,-1.313,-0.382,1.160
3.930,0.183,-0.251,0.852,-1.557,0.229,1.221
3.930,0.185,-0.250,0.867,-1.389,0.870,1.649
3.940,0.186,-0.250,0.873,-1.466,1.527,2.000
3.940,0.200,-0.251,0.877,-1.160,2.519,2.046
3.950,0.192,-0.250,0.881,-0.824,3.344,2.092
3.950,0.196,-0.251,0.893,-0.412,4.015,2.153
3.950,0.203,-0.242,0.890,0.061,5.038,2.168
3.960,0.202,-0.241,0.885,0.611,6.214,2.183
3.960,0.201,-0.248,0.881,1.237,6.885,2.397
3.970,0.197,-0.247,0.868,1.756,6.992,2.412
3.970,0.177,-0.240,0.870,1.954,5.908,2.397
3.970,0.186,-0.245,0.861,1.924,5.115,2.580
3.980,0.189,-0.237,0.873,1.649,5.252,2.443
3.980,0.195,-0.232,0.856,1.481,4.550,2.443
3.980,0.182,-0.228,0.860,1.176,3.450,2.275
3.990,0.190,-0.233,0.858,0.962,2.427,2.107
3.990,0.202,-0.229,0.867,1.267,1.786,2.015
4.000,0.199,-0.235,0.866,1.221,1.664,1.496
4.000,0.199,-0.235,0.862,1.527,1.038,1.588
4.000,0.192,-0.235,0.869,1.832,-0.198,1.252
4.010,0.199,-0.234,0.872,2.031,-0.779,1.267
4.010,0.201,-0.234,0.875,2.412,-0.260,1.053
4.020,0.202,-0.232,0.879,2.809,-0.153,1.069
4.020,0.202,-0.231,0.861,3.038,-0.046,1.099
4.020,0.198,-0.231,0.850,2.977,0.458,1.176
4.030,0.195,-0.232,0.846,2.687,1.099,1.405
4.030,0.199,-0.236,0.846,2.672,1.695,1.344
4.030,0.199,-0.230,0.830,2.031,2.153,1.344
4.040,0.202,-0.232,0.836,1.511,2.733,1.282
4.040,0.205,-0.228,0.826,1.527,3.328,0.992
4.050,0.205,-0.228,0.824,1.084,3.542,0.718
4.050,0.205,-0.227,0.819,0.260,3.832,0.336
4.050,0.205,-0.233,0.830,-0.076,4.290,-0.015
