Time,acce_x,acce_y,acce_z,gyro_x,gyro_y, gyro_z
0.000,0.213,-0.232,0.865,-1.282,1.145,-0.687
0.000,0.218,-0.231,0.872,-1.344,1.069,-0.519
0.010,0.213,-0.233,0.872,-1.496,1.588,-0.519
0.010,0.208,-0.234,0.857,-1.237,1.664,-0.550
0.010,0.216,-0.230,0.874,-1.603,1.420,-0.290
0.020,0.214,-0.232,0.854,-1.725,1.359,-0.305
0.020,0.211,-0.232,0.860,-1.695,1.466,-0.290
0.020,0.215,-0.228,0.856,-1.878,1.374,-0.122
0.030,0.216,-0.228,0.867,-2.260,1.374,-0.092
0.030,0.210,-0.231,0.858,-2.260,1.466,-0.168
0.030,0.210,-0.227,0.865,-2.489,1.511,0.076
0.040,0.208,-0.229,0.867,-2.519,1.511,0.214
0.040,0.207,-0.235,0.869,-2.641,1.389,0.153
0.040,0.210,-0.226,0.867,-2.641,1.557,0.443
0.050,0.212,-0.229,0.872,-2.305,1.374,0.580
0.050,0.208,-0.227,0.883,-2.031,1.389,0.443
0.050,0.216,-0.229,0.877,-1.710,1.359,0.321
0.060,0.221,-0.223,0.881,-1.481,1.679,0.092
0.060,0.216,-0.227,0.878,-1.191,1.786,-0.137
0.070,0.212,-0.226,0.883,-0.748,1.450,-0.122
0.070,0.209,-0.231,0.874,-0.611,1.115,-0.107
0.070,0.213,-0.225,0.872,-0.656,0.473,-0.290
0.080,0.200,-0.228,0.863,-0.595,0.214,-0.198
0.080,0.208,-0.221,0.865,-0.794,-0.397,-0.122
0.090,0.200,-0.220,0.864,-0.885,-0.809,-0.122
0.090,0.207,-0.225,0.853,-0.977,-1.023,-0.015
0.090,0.215,-0.229,0.849,-1.145,-0.916,-0.031
0.100,0.217,-0.226,0.866,-1.313,-0.840,-0.153
0.100,0.221,-0.225,0.866,-1.405,-0.794,-0.183
0.110,0.225,-0.230,0.854,-1.511,-0.458,-0.366
0.110,0.216,-0.223,0.867,-1.420,-0.229,-0.260
0.120,0.216,-0.231,0.863,-1.542,-0.015,-0.382
0.120,0.217,-0.233,0.866,-1.481,-0.183,-0.427
0.120,0.218,-0.233,0.869,-1.420,0.260,-0.473
0.130,0.213,-0.239,0.874,-1.237,0.382,-0.382
0.130,0.219,-0.231,0.869,-0.916,0.382,-0.458
0.140,0.214,-0.227,0.860,-0.702,0.336,-0.458
0.140,0.211,-0.231,0.860,-0.947,0.443,-0.473
0.140,0.211,-0.228,0.862,-1.084,0.076,-0.427
0.150,0.212,-0.228,0.861,-0.992,0.244,-0.290
0.150,0.206,-0.234,0.854,-0.870,0.382,-0.366
0.160,0.200,-0.228,0.854,-0.779,0.427,-0.076
0.160,0.203,-0.232,0.856,-0.763,0.718,0.168
0.160,0.202,-0.231,0.858,-0.779,0.641,0.092
0.170,0.204,-0.229,0.860,-0.809,0.718,0.427
0.170,0.205,-0.228,0.868,-0.626,1.099,0.489
0.170,0.205,-0.226,0.856,-0.611,1.038,0.748
0.180,0.207,-0.231,0.852,-0.977,0.931,0.779
0.180,0.207,-0.229,0.849,-1.130,0.809,0.718
0.190,0.217,-0.222,0.842,-1.511,0.809,0.611
0.190,0.223,-0.224,0.855,-1.679,1.282,0.595
0.190,0.213,-0.223,0.853,-1.695,1.313,0.534
0.200,0.219,-0.227,0.858,-1.863,0.855,0.443
0.200,0.219,-0.228,0.854,-1.878,0.504,0.046
0.210,0.226,-0.232,0.858,-1.740,0.534,-0.137
0.210,0.219,-0.225,0.853,-1.573,0.779,-0.397
0.210,0.212,-0.224,0.859,-1.588,0.550,-0.351
0.220,0.204,-0.230,0.860,-1.252,0.397,-0.412
0.220,0.210,-0.224,0.855,-1.405,0.427,-0.336
0.230,0.204,-0.224,0.833,-1.573,0.443,-0.443
0.230,0.202,-0.225,0.843,-1.664,0.168,-0.214
0.230,0.208,-0.231,0.841,-1.878,0.229,-0.443
0.240,0.212,-0.222,0.843,-2.031,0.855,-0.595
0.240,0.201,-0.224,0.846,-2.244,0.733,-0.473
0.250,0.201,-0.231,0.845,-2.443,0.809,-0.275
0.250,0.200,-0.225,0.848,-2.534,0.763,-0.290
0.250,0.195,-0.236,0.853,-2.565,0.916,-0.031
0.260,0.193,-0.225,0.855,-2.794,1.160,0.153
0.260,0.195,-0.229,0.853,-3.023,1.023,0.244
0.270,0.192,-0.228,0.857,-3.435,0.824,0.305
0.270,0.191,-0.233,0.876,-3.237,0.748,0.672
0.270,0.198,-0.231,0.868,-2.977,1.069,0.779
0.280,0.202,-0.239,0.873,-2.962,0.809,0.962
0.280,0.195,-0.230,0.883,-2.534,0.611,1.115
0.290,0.193,-0.232,0.877,-2.061,0.611,1.160
0.290,0.198,-0.236,0.874,-1.542,0.733,1.237
0.290,0.195,-0.232,0.885,-1.191,0.718,1.466
0.300,0.202,-0.232,0.869,-0.916,0.702,1.527
0.300,0.205,-0.232,0.863,-0.901,0.443,1.679
0.300,0.208,-0.233,0.858,-0.947,0.046,1.664
0.310,0.211,-0.230,0.872,-0.947,0.015,1.588
0.310,0.210,-0.231,0.861,-1.160,0.214,1.435
0.320,0.217,-0.225,0.858,-1.130,0.458,1.450
0.320,0.216,-0.230,0.858,-0.962,0.550,1.359
0.320,0.220,-0.227,0.858,-1.221,0.382,1.405
0.330,0.225,-0.227,0.865,-1.481,0.809,1.130
0.330,0.227,-0.230,0.858,-1.328,0.916,1.069
0.340,0.228,-0.226,0.851,-1.405,1.084,1.115
0.340,0.216,-0.225,0.848,-1.725,0.977,0.840
0.340,0.214,-0.228,0.849,-1.969,0.779,0.794
0.350,0.219,-0.223,0.847,-2.198,0.840,0.611
0.350,0.216,-0.229,0.851,-2.504,0.641,0.672
0.360,0.214,-0.233,0.854,-2.794,0.229,0.611
0.360,0.211,-0.228,0.848,-2.947,-0.595,0.580
0.360,0.208,-0.229,0.851,-3.557,-1.389,0.550
0.370,0.201,-0.228,0.854,-4.107,-2.198,0.611
0.370,0.208,-0.227,0.851,-4.534,-2.870,0.504
0.380,0.215,-0.227,0.845,-4.870,-3.389,0.412
0.380,0.218,-0.223,0.857,-5.130,-3.588,0.260
0.380,0.212,-0.228,0.866,-4.885,-3.985,0.458
0.390,0.217,-0.231,0.863,-5.069,-3.847,0.351
0.390,0.213,-0.229,0.868,-4.641,-3.603,0.504
0.400,0.216,-0.227,0.871,-4.412,-3.450,0.397
0.400,0.219,-0.235,0.863,-4.336,-3.588,0.290
0.400,0.221,-0.228,0.882,-4.015,-3.191,0.519
0.410,0.218,-0.233,0.881,-3.679,-2.519,0.626
0.410,0.222,-0.239,0.885,-3.267,-2.168,0.779
0.420,0.217,-0.242,0.891,-2.595,-1.466,0.840
0.420,0.220,-0.235,0.888,-2.168,-1.069,0.718
0.420,0.225,-0.242,0.884,-1.817,-0.931,0.763
0.430,0.229,-0.235,0.896,-0.947,-0.626,0.534
0.430,0.234,-0.235,0.897,-0.504,-0.168,0.611
0.440,0.224,-0.242,0.894,0.198,0.198,0.565
0.440,0.226,-0.239,0.887,0.443,0.336,0.641
0.440,0.227,-0.235,0.880,0.397,0.931,0.672
0.450,0.229,-0.238,0.878,0.443,1.527,0.443
0.450,0.226,-0.235,0.879,0.611,1.359,0.519
0.450,0.228,-0.225,0.872,0.870,1.374,0.198
0.460,0.221,-0.228,0.866,0.519,1.542,0.275
0.460,0.223,-0.230,0.862,0.550,1.542,0.260
0.470,0.218,-0.227,0.872,0.473,1.420,0.321
0.470,0.213,-0.227,0.871,0.550,1.252,0.565
0.470,0.215,-0.237,0.861,0.473,1.145,0.565
0.480,0.217,-0.233,0.860,0.336,1.466,0.519
0.480,0.213,-0.236,0.858,0.275,1.374,0.611
0.490,0.220,-0.231,0.850,0.137,1.115,0.626
0.490,0.215,-0.229,0.853,0.122,1.115,0.718
0.490,0.202,-0.231,0.860,0.198,1.298,0.901
0.500,0.207,-0.229,0.855,0.000,1.420,1.115
0.500,0.210,-0.224,0.862,0.000,1.679,1.252
0.500,0.212,-0.237,0.858,0.183,2.092,1.237
0.510,0.212,-0.231,0.854,0.015,2.260,1.221
0.510,0.213,-0.233,0.855,-0.305,2.153,1.344
0.520,0.212,-0.235,0.859,-0.183,1.786,1.069
0.520,0.209,-0.234,0.854,-0.153,1.573,0.809
0.520,0.208,-0.229,0.853,-0.336,1.069,0.733
0.530,0.212,-0.231,0.860,-0.489,0.580,0.565
0.530,0.199,-0.231,0.847,-0.382,-0.015,0.580
0.540,0.197,-0.234,0.853,-0.534,-0.962,0.565
0.540,0.205,-0.231,0.865,-0.809,-1.145,0.611
0.540,0.210,-0.233,0.865,-0.885,-1.450,0.611
0.550,0.197,-0.225,0.856,-0.779,-1.771,0.962
0.550,0.198,-0.234,0.873,-0.779,-2.076,0.916
0.560,0.207,-0.226,0.860,-0.733,-1.924,1.038
0.560,0.218,-0.232,0.859,-0.901,-1.237,1.038
0.560,0.221,-0.230,0.861,-1.053,-0.458,1.221
0.570,0.215,-0.228,0.861,-1.115,-0.168,1.069
0.570,0.219,-0.233,0.861,-0.931,0.260,1.130
0.580,0.221,-0.231,0.867,-1.038,0.779,1.023
0.580,0.222,-0.229,0.869,-0.855,1.099,0.916
0.580,0.215,-0.232,0.863,-0.718,1.038,0.809
0.590,0.214,-0.229,0.859,-0.885,0.916,1.145
0.590,0.203,-0.228,0.871,-0.687,0.595,1.069
0.590,0.212,-0.235,0.871,-0.366,0.718,1.008
0.600,0.208,-0.224,0.868,-0.183,0.366,1.115
0.600,0.203,-0.232,0.864,0.214,0.061,1.267
0.610,0.197,-0.228,0.855,-0.183,-0.427,1.466
0.610,0.213,-0.232,0.867,-0.076,-0.198,1.420
0.610,0.216,-0.229,0.858,-0.046,-0.107,1.405
0.620,0.212,-0.236,0.860,0.015,-0.214,1.252
0.620,0.213,-0.229,0.864,-0.153,-0.351,1.359
0.630,0.217,-0.230,0.864,-0.443,-0.336,1.130
0.630,0.218,-0.232,0.852,-0.489,-0.061,0.977
0.630,0.216,-0.229,0.856,-0.718,0.305,1.099
0.640,0.218,-0.233,0.857,-1.053,0.137,1.115
0.640,0.216,-0.230,0.859,-0.947,0.061,1.053
0.650,0.216,-0.228,0.848,-1.221,0.244,1.038
0.650,0.218,-0.230,0.858,-1.267,0.198,1.267
0.650,0.219,-0.234,0.856,-1.405,0.076,0.855
0.660,0.220,-0.237,0.863,-1.069,-0.076,0.672
0.660,0.212,-0.229,0.854,-1.053,-0.137,0.824
0.670,0.212,-0.233,0.859,-1.237,0.000,0.824
0.670,0.210,-0.227,0.861,-1.130,0.122,1.053
0.670,0.206,-0.234,0.859,-1.099,0.198,0.992
0.680,0.204,-0.224,0.859,-0.718,0.626,1.038
0.680,0.200,-0.235,0.871,-0.733,0.916,1.359
0.690,0.207,-0.225,0.857,-0.901,0.794,1.344
0.690,0.200,-0.225,0.872,-0.763,0.656,1.420
0.690,0.209,-0.227,0.866,-0.687,0.794,1.481
0.700,0.219,-0.225,0.863,-0.672,1.023,1.237
0.700,0.209,-0.227,0.861,-0.656,0.779,1.267
0.700,0.218,-0.226,0.862,-0.870,0.473,1.099
0.710,0.213,-0.224,0.849,-0.977,0.229,1.328
0.710,0.214,-0.224,0.857,-1.145,0.046,1.191
0.720,0.215,-0.231,0.859,-1.359,-0.046,1.069
0.720,0.221,-0.219,0.853,-1.496,0.015,1.267
0.720,0.218,-0.223,0.860,-1.481,-0.305,1.221
0.730,0.220,-0.224,0.863,-1.420,-0.763,1.130
0.730,0.219,-0.229,0.862,-1.282,-0.504,1.038
0.740,0.230,-0.228,0.860,-1.344,-0.382,0.855
0.740,0.223,-0.224,0.868,-1.298,-0.519,0.534
0.740,0.228,-0.229,0.868,-1.053,-0.611,0.275
0.750,0.227,-0.230,0.863,-0.855,-0.305,0.031
0.750,0.219,-0.234,0.866,-0.916,-0.137,-0.061
0.760,0.211,-0.228,0.854,-0.824,-0.153,0.015
0.760,0.209,-0.232,0.865,-0.763,-0.336,0.122
0.760,0.204,-0.235,0.864,-0.748,-0.382,0.305
0.770,0.201,-0.233,0.861,-0.931,-0.733,0.504
0.770,0.206,-0.231,0.863,-0.840,-0.885,0.595
0.780,0.210,-0.236,0.867,-1.160,-0.763,0.687
0.780,0.206,-0.237,0.861,-1.145,-0.626,1.008
0.780,0.208,-0.227,0.856,-1.359,-0.733,1.252
0.790,0.216,-0.231,0.864,-1.344,-0.427,1.191
0.790,0.218,-0.227,0.865,-1.603,-0.153,1.069
0.800,0.222,-0.229,0.873,-1.466,0.366,1.069
0.800,0.221,-0.233,0.878,-1.496,0.962,0.687
0.800,0.226,-0.230,0.877,-1.084,0.931,0.550
0.810,0.233,-0.233,0.880,-0.840,1.496,0.397
0.810,0.227,-0.233,0.874,-0.702,1.786,0.275
0.820,0.220,-0.232,0.870,-0.336,1.695,0.366
0.820,0.208,-0.236,0.874,-0.275,1.206,0.489
0.820,0.210,-0.231,0.860,-0.107,0.550,0.718
0.830,0.205,-0.239,0.863,-0.076,0.397,0.565
0.830,0.206,-0.234,0.846,0.000,-0.168,0.611
0.840,0.199,-0.226,0.848,-0.305,-0.260,0.779
0.840,0.206,-0.232,0.856,-0.229,-0.718,0.641
0.840,0.217,-0.225,0.860,-0.336,-0.504,0.443
0.850,0.219,-0.225,0.861,-0.153,0.183,0.366
0.850,0.216,-0.226,0.861,-0.168,0.290,0.076
0.860,0.204,-0.222,0.850,-0.260,0.229,0.351
0.860,0.201,-0.225,0.853,-0.489,-0.366,0.427
0.860,0.210,-0.223,0.853,-0.855,-0.580,0.519
0.870,0.203,-0.224,0.851,-1.176,-0.565,0.840
0.870,0.207,-0.227,0.859,-1.542,-0.382,0.718
0.870,0.206,-0.231,0.851,-1.618,-0.702,1.069
0.880,0.204,-0.229,0.856,-1.786,-0.870,0.733
0.880,0.203,-0.233,0.870,-1.664,-0.763,0.809
0.890,0.206,-0.238,0.870,-1.557,-0.702,0.794
0.890,0.206,-0.243,0.876,-1.221,-1.130,0.824
0.890,0.199,-0.240,0.878,-0.977,-0.855,0.626
0.900,0.202,-0.240,0.882,-0.748,-0.305,0.962
0.900,0.195,-0.244,0.887,-0.565,-0.489,0.962
0.910,0.192,-0.243,0.889,-0.412,-0.550,1.145
0.910,0.194,-0.239,0.880,-0.427,-0.947,1.252
0.910,0.192,-0.246,0.885,-0.092,-0.687,1.374
0.920,0.181,-0.240,0.880,0.595,-0.656,1.679
0.920,0.167,-0.237,0.890,0.779,-0.794,1.985
0.930,0.162,-0.239,0.888,1.237,-1.359,2.351
0.930,0.165,-0.245,0.876,1.893,-1.252,3.038
0.930,0.174,-0.240,0.869,2.137,-1.389,3.695
0.940,0.165,-0.231,0.878,2.321,-1.588,4.412
0.940,0.163,-0.232,0.869,2.443,-1.344,4.809
0.950,0.166,-0.230,0.862,2.229,-1.374,5.160
0.950,0.180,-0.225,0.861,1.985,-1.664,5.313
0.950,0.183,-0.225,0.869,1.710,-1.710,5.420
0.960,0.190,-0.229,0.873,1.481,-1.969,5.160
0.960,0.182,-0.227,0.870,1.420,-2.214,5.298
0.970,0.190,-0.229,0.875,1.634,-2.672,5.267
0.970,0.184,-0.231,0.876,1.511,-3.115,5.374
0.970,0.188,-0.230,0.883,1.679,-3.603,5.527
0.980,0.191,-0.231,0.883,1.985,-3.939,5.374
0.980,0.189,-0.235,0.885,2.473,-4.092,5.756
0.990,0.188,-0.234,0.892,2.809,-4.290,5.908
0.990,0.195,-0.230,0.888,3.115,-4.397,5.832
0.990,0.195,-0.226,0.890,3.511,-4.229,5.939
1.000,0.192,-0.230,0.893,3.771,-4.168,5.756
1.000,0.204,-0.232,0.888,4.168,-4.595,5.695
1.000,0.198,-0.229,0.884,4.412,-4.412,5.817
1.010,0.196,-0.223,0.873,4.550,-4.290,5.817
1.010,0.194,-0.223,0.857,4.626,-3.924,6.031
1.020,0.191,-0.229,0.883,4.427,-4.107,6.275
1.020,0.182,-0.226,0.869,4.336,-4.122,6.260
1.020,0.188,-0.230,0.862,4.473,-4.000,6.580
1.030,0.182,-0.223,0.870,4.489,-3.710,7.160
1.030,0.174,-0.226,0.874,4.443,-3.954,7.389
1.040,0.179,-0.226,0.868,4.443,-3.939,7.557
1.040,0.188,-0.229,0.880,4.687,-3.618,7.588
1.040,0.189,-0.231,0.890,4.916,-3.496,7.878
1.050,0.187,-0.233,0.876,5.466,-3.634,7.863
1.050,0.172,-0.221,0.893,5.863,-3.954,8.031
1.060,0.175,-0.231,0.881,6.137,-4.198,8.168
1.060,0.186,-0.229,0.869,6.382,-4.626,8.397
1.060,0.183,-0.223,0.879,6.504,-4.916,8.611
1.070,0.179,-0.221,0.868,6.595,-5.786,8.687
1.070,0.177,-0.227,0.875,6.687,-5.954,8.885
1.080,0.178,-0.221,0.868,6.565,-6.611,9.206
1.080,0.181,-0.222,0.862,6.565,-6.794,9.344
1.080,0.185,-0.220,0.859,6.550,-7.160,9.756
1.090,0.184,-0.218,0.860,6.260,-7.023,9.893
1.090,0.186,-0.216,0.856,5.863,-6.916,10.107
1.090,0.189,-0.215,0.850,5.817,-7.023,10.183
1.100,0.192,-0.216,0.854,5.511,-7.313,10.672
1.100,0.191,-0.210,0.853,5.405,-6.824,10.733
1.110,0.195,-0.212,0.852,5.206,-6.626,11.038
1.110,0.200,-0.207,0.859,4.962,-6.504,11.328
1.110,0.200,-0.213,0.855,5.084,-6.198,11.328
1.120,0.208,-0.210,0.867,5.466,-6.214,11.420
1.120,0.212,-0.208,0.868,5.374,-6.427,11.527
1.130,0.214,-0.210,0.870,5.481,-6.763,11.359
1.130,0.221,-0.213,0.872,5.221,-6.718,11.130
1.130,0.230,-0.213,0.871,5.145,-6.336,10.885
1.140,0.223,-0.212,0.887,5.206,-6.443,10.779
1.140,0.221,-0.217,0.888,5.206,-6.534,10.489
1.150,0.218,-0.219,0.871,5.573,-6.870,10.595
1.150,0.212,-0.218,0.885,6.046,-6.977,10.641
1.150,0.204,-0.219,0.896,6.168,-7.099,10.824
1.160,0.212,-0.213,0.881,6.412,-6.947,11.206
1.160,0.211,-0.221,0.884,6.718,-6.397,11.344
1.170,0.218,-0.215,0.886,7.206,-5.634,11.634
1.170,0.212,-0.215,0.888,7.405,-5.359,11.802
1.170,0.212,-0.223,0.888,7.542,-5.313,11.817
1.180,0.211,-0.219,0.885,7.802,-5.084,12.107
1.180,0.205,-0.219,0.889,8.000,-4.763,12.031
1.190,0.201,-0.218,0.893,8.290,-4.489,12.534
1.190,0.193,-0.223,0.886,8.366,-4.397,13.130
1.190,0.177,-0.226,0.887,8.412,-4.595,13.511
1.200,0.167,-0.232,0.896,8.336,-5.115,14.168
1.200,0.161,-0.237,0.893,8.427,-5.954,14.611
1.210,0.145,-0.241,0.908,8.824,-7.023,15.344
1.210,0.130,-0.249,0.923,9.359,-7.924,15.924
1.210,0.103,-0.261,0.920,9.954,-8.809,16.916
1.220,0.093,-0.271,0.946,10.489,-9.282,17.847
1.220,0.077,-0.286,0.954,11.435,-10.229,18.794
1.230,0.056,-0.284,0.967,12.748,-11.695,20.031
1.230,0.032,-0.295,0.979,14.061,-12.702,21.786
1.240,0.015,-0.302,0.989,15.634,-13.740,23.573
1.240,0.005,-0.309,1.008,17.496,-14.901,25.695
1.240,-0.011,-0.310,1.009,19.481,-16.305,27.771
1.250,-0.014,-0.313,1.016,21.542,-17.649,29.924
1.250,-0.014,-0.314,1.008,23.206,-18.458,31.924
1.260,-0.018,-0.314,0.998,25.145,-19.160,34.107
1.260,-0.021,-0.303,0.996,26.427,-20.275,36.290
1.260,-0.018,-0.295,0.988,27.832,-21.115,38.229
1.270,-0.007,-0.294,0.975,28.855,-21.710,40.122
1.270,-0.005,-0.288,0.979,30.046,-22.321,41.847
1.280,-0.009,-0.284,0.964,31.023,-23.206,43.985
1.280,-0.003,-0.285,0.959,31.771,-23.802,45.954
1.290,0.009,-0.274,0.955,32.168,-24.427,47.588
1.290,0.024,-0.275,0.935,32.565,-24.611,49.130
1.290,0.040,-0.268,0.924,33.130,-24.076,50.519
1.300,0.041,-0.268,0.924,33.573,-23.237,52.000
1.300,0.046,-0.265,0.917,33.573,-22.382,53.374
1.310,0.058,-0.257,0.892,33.695,-21.405,54.779
1.310,0.061,-0.254,0.893,33.649,-20.214,56.168
1.320,0.069,-0.250,0.878,33.786,-18.992,57.863
1.320,0.064,-0.257,0.865,33.420,-18.336,59.328
1.320,0.066,-0.253,0.869,33.191,-18.198,60.809
1.330,0.066,-0.250,0.848,33.221,-17.985,62.168
1.330,0.064,-0.248,0.845,33.160,-17.878,63.450
1.340,0.067,-0.236,0.838,32.901,-18.168,64.763
1.340,0.070,-0.244,0.841,32.809,-18.275,66.427
1.340,0.064,-0.242,0.828,32.550,-18.916,67.924
1.350,0.075,-0.239,0.820,32.580,-19.756,69.206
1.350,0.071,-0.235,0.811,32.092,-21.099,70.611
1.360,0.064,-0.238,0.815,31.435,-22.870,72.137
1.360,0.057,-0.233,0.806,31.115,-23.802,74.305
1.370,0.055,-0.240,0.805,30.580,-24.779,76.550
1.370,0.054,-0.239,0.782,29.908,-25.344,79.176
1.370,0.042,-0.232,0.773,29.145,-25.573,82.321
1.380,0.043,-0.236,0.761,27.832,-26.000,85.618
1.380,0.027,-0.238,0.770,27.038,-27.008,89.176
1.390,0.010,-0.247,0.767,26.504,-28.321,93.420
1.390,0.003,-0.241,0.780,25.603,-28.672,98.443
1.390,-0.006,-0.255,0.775,25.023,-29.802,102.046
1.400,0.019,-0.258,0.774,24.397,-30.656,105.542
1.400,0.037,-0.263,0.778,23.664,-30.229,108.947
1.410,0.050,-0.270,0.792,23.130,-29.435,111.603
1.410,0.070,-0.272,0.801,22.977,-29.389,113.695
1.420,0.088,-0.269,0.806,23.008,-30.015,115.282
1.420,0.103,-0.275,0.821,23.038,-29.344,116.382
1.420,0.113,-0.272,0.813,23.130,-28.382,117.405
1.430,0.128,-0.272,0.803,22.885,-27.817,117.954
1.430,0.132,-0.272,0.804,22.473,-27.053,118.672
1.440,0.132,-0.280,0.804,21.573,-25.725,119.481
1.440,0.119,-0.280,0.802,20.824,-24.962,120.534
1.450,0.114,-0.275,0.804,20.168,-23.527,121.771
1.450,0.121,-0.283,0.820,18.931,-21.130,123.069
1.450,0.116,-0.278,0.823,18.122,-18.809,124.977
1.460,0.098,-0.291,0.818,17.389,-16.183,126.885
1.460,0.090,-0.293,0.833,16.458,-13.786,129.008
1.470,0.100,-0.297,0.835,15.679,-11.511,130.733
1.470,0.096,-0.301,0.847,15.328,-9.496,132.702
1.480,0.098,-0.304,0.851,14.916,-8.015,134.550
1.480,0.094,-0.313,0.857,14.473,-7.038,135.695
1.480,0.100,-0.312,0.874,14.000,-6.779,136.382
1.490,0.100,-0.322,0.884,14.580,-6.641,136.824
1.490,0.115,-0.332,0.905,15.115,-7.588,136.687
1.500,0.111,-0.341,0.923,16.443,-9.878,136.031
1.500,0.109,-0.346,0.930,18.290,-13.359,135.252
1.500,0.106,-0.353,0.938,20.397,-17.603,134.260
1.510,0.083,-0.353,0.928,22.290,-21.756,133.725
1.510,0.058,-0.356,0.925,24.366,-26.595,133.924
1.520,0.040,-0.353,0.926,26.168,-31.023,134.992
1.520,0.040,-0.354,0.911,28.153,-34.168,136.504
1.530,0.039,-0.351,0.890,28.656,-35.405,138.153
1.530,0.048,-0.357,0.876,28.626,-35.496,140.015
1.530,0.042,-0.369,0.876,28.534,-34.702,141.710
1.540,0.036,-0.366,0.873,28.824,-33.420,144.565
1.540,0.017,-0.376,0.892,29.099,-31.084,147.939
1.550,0.009,-0.385,0.894,29.954,-28.412,151.588
1.550,0.004,-0.386,0.882,30.702,-26.260,154.901
1.560,0.016,-0.388,0.877,30.962,-23.924,158.031
1.560,0.028,-0.391,0.861,30.977,-20.794,160.519
1.560,0.061,-0.403,0.870,31.618,-18.397,162.336
1.570,0.073,-0.398,0.859,31.740,-16.534,163.252
1.570,0.087,-0.395,0.843,32.092,-15.618,163.740
1.580,0.098,-0.392,0.844,32.840,-15.634,163.908
1.580,0.108,-0.394,0.837,33.053,-16.672,163.618
1.590,0.111,-0.390,0.823,33.313,-18.107,162.748
1.590,0.108,-0.384,0.800,33.115,-20.015,162.137
1.590,0.107,-0.387,0.788,32.336,-22.397,161.603
1.600,0.097,-0.385,0.777,31.282,-25.817,161.817
1.600,0.074,-0.384,0.778,30.672,-28.947,162.366
1.610,0.068,-0.389,0.773,30.122,-31.496,163.908
1.610,0.058,-0.391,0.766,29.496,-33.130,165.511
1.610,0.075,-0.385,0.751,28.305,-33.160,167.725
1.620,0.081,-0.382,0.741,27.313,-32.763,170.092
1.620,0.099,-0.395,0.749,26.397,-31.817,172.214
1.630,0.112,-0.394,0.741,25.649,-31.420,174.061
1.630,0.135,-0.392,0.738,24.489,-30.626,175.573
1.640,0.168,-0.396,0.734,23.160,-27.603,176.397
1.640,0.165,-0.407,0.732,22.031,-26.779,177.252
1.640,0.156,-0.414,0.750,21.450,-28.962,178.046
1.650,0.154,-0.421,0.755,21.115,-32.137,178.275
1.650,0.175,-0.432,0.764,21.084,-34.992,178.458
1.660,0.183,-0.437,0.764,21.084,-38.000,178.580
1.660,0.188,-0.432,0.774,21.740,-41.756,178.504
1.670,0.204,-0.444,0.781,22.534,-45.847,178.840
1.670,0.229,-0.446,0.778,23.725,-49.450,178.718
1.670,0.250,-0.446,0.791,25.511,-52.733,178.519
1.680,0.281,-0.444,0.775,26.809,-54.702,177.817
1.680,0.293,-0.447,0.764,27.542,-54.794,177.038
1.690,0.308,-0.446,0.761,28.321,-54.809,176.443
1.690,0.339,-0.448,0.753,28.855,-54.076,175.847
1.700,0.352,-0.445,0.741,29.160,-51.847,175.221
1.700,0.367,-0.439,0.733,28.672,-48.244,174.718
1.700,0.381,-0.435,0.703,27.466,-44.015,174.198
1.710,0.392,-0.435,0.693,26.366,-39.878,173.649
1.710,0.401,-0.435,0.681,24.656,-36.076,172.992
1.720,0.396,-0.431,0.681,23.527,-34.275,172.275
1.720,0.388,-0.433,0.684,21.802,-32.931,171.573
1.730,0.388,-0.435,0.675,19.924,-31.634,170.901
1.730,0.385,-0.433,0.677,18.076,-30.718,170.534
1.730,0.383,-0.435,0.673,16.534,-31.405,170.122
1.740,0.394,-0.437,0.682,14.748,-32.824,169.740
1.740,0.399,-0.438,0.686,13.252,-35.221,169.298
1.750,0.394,-0.442,0.696,12.198,-38.809,169.038
1.750,0.417,-0.448,0.717,12.107,-42.840,168.183
1.760,0.438,-0.445,0.725,12.534,-46.595,166.840
1.760,0.455,-0.452,0.724,12.855,-49.573,165.099
1.760,0.479,-0.455,0.733,13.328,-52.092,163.160
1.770,0.494,-0.462,0.757,14.229,-53.771,161.237
1.770,0.524,-0.464,0.740,14.931,-54.672,158.947
1.780,0.539,-0.460,0.738,15.374,-54.870,156.473
1.780,0.541,-0.458,0.733,15.847,-54.137,154.718
1.790,0.550,-0.449,0.730,16.336,-52.809,153.191
1.790,0.563,-0.455,0.718,16.794,-50.519,152.183
1.790,0.578,-0.449,0.708,16.885,-46.992,151.008
1.800,0.587,-0.450,0.691,16.061,-43.237,149.557
1.800,0.595,-0.456,0.688,14.504,-39.374,148.366
1.810,0.600,-0.460,0.697,13.374,-35.679,147.130
1.810,0.591,-0.469,0.723,12.702,-32.382,146.458
1.810,0.598,-0.467,0.738,12.198,-27.679,146.015
1.820,0.613,-0.458,0.740,11.893,-23.008,145.664
1.820,0.628,-0.468,0.752,12.092,-19.435,144.840
1.830,0.633,-0.465,0.757,12.076,-16.870,143.130
1.830,0.648,-0.457,0.762,12.336,-15.160,141.359
1.840,0.663,-0.457,0.770,12.763,-14.519,139.099
1.840,0.678,-0.453,0.771,13.145,-13.756,136.183
1.840,0.691,-0.446,0.786,13.481,-12.748,132.901
1.850,0.688,-0.444,0.779,14.168,-12.366,129.771
1.850,0.683,-0.430,0.780,14.412,-12.031,126.763
1.860,0.691,-0.427,0.778,14.855,-10.809,123.649
1.860,0.668,-0.434,0.792,15.618,-9.313,121.710
1.870,0.641,-0.432,0.805,17.603,-7.908,120.519
1.870,0.632,-0.430,0.816,19.618,-6.809,119.328
1.870,0.637,-0.436,0.809,21.420,-4.489,117.939
1.880,0.648,-0.427,0.789,22.672,-0.901,116.824
1.880,0.639,-0.421,0.762,23.115,2.336,114.931
1.890,0.640,-0.410,0.746,22.519,5.634,113.740
1.890,0.639,-0.407,0.737,21.771,7.817,112.015
1.890,0.631,-0.398,0.723,20.641,9.481,109.679
1.900,0.615,-0.405,0.717,18.931,9.542,107.191
1.900,0.604,-0.390,0.716,16.718,8.198,104.733
1.910,0.570,-0.394,0.729,15.496,4.595,102.611
1.910,0.547,-0.396,0.731,14.183,-1.038,100.855
1.920,0.564,-0.393,0.757,13.344,-6.809,98.794
1.920,0.604,-0.397,0.795,13.069,-9.084,95.847
1.920,0.625,-0.401,0.832,16.137,-13.176,90.901
1.930,0.623,-0.379,0.817,17.969,-19.679,85.954
1.930,0.630,-0.377,0.825,18.122,-26.122,81.206
1.940,0.617,-0.362,0.830,18.885,-29.786,77.038
1.940,0.619,-0.368,0.847,21.527,-31.817,73.328
1.940,0.598,-0.364,0.855,24.534,-36.885,71.115
1.950,0.536,-0.351,0.885,29.389,-46.901,70.824
1.950,0.560,-0.363,0.868,32.031,-52.427,69.038
1.960,0.640,-0.356,0.809,33.221,-47.282,65.557
1.960,0.657,-0.345,0.753,33.603,-42.947,62.580
1.960,0.646,-0.331,0.749,33.298,-45.298,57.969
1.970,0.671,-0.318,0.765,31.679,-47.099,56.336
1.970,0.699,-0.326,0.772,31.420,-45.649,53.527
1.980,0.715,-0.326,0.789,32.534,-45.802,49.267
1.980,0.714,-0.324,0.790,35.282,-48.519,44.763
1.990,0.713,-0.326,0.779,36.412,-51.389,39.786
1.990,0.720,-0.327,0.734,35.573,-50.916,34.412
1.990,0.731,-0.307,0.714,32.473,-46.366,30.824
2.000,0.735,-0.265,0.696,28.870,-40.244,28.076
2.000,0.650,-0.328,0.734,27.511,-48.427,16.473
2.010,0.575,-0.192,0.902,25.847,-58.015,27.832
2.010,0.651,-0.334,0.727,25.878,-44.672,24.687
2.010,0.634,-0.270,0.701,21.450,-29.420,25.160
2.020,0.605,-0.289,0.741,17.527,-26.168,25.557
2.020,0.647,-0.278,0.767,13.863,-16.870,25.374
2.030,0.664,-0.290,0.787,12.855,-5.527,24.885
2.030,0.646,-0.294,0.829,12.382,0.947,24.031
2.040,0.603,-0.295,0.859,12.412,0.656,23.008
2.040,0.603,-0.293,0.857,13.176,1.573,22.076
2.040,0.634,-0.287,0.847,13.893,4.580,20.580
2.050,0.640,-0.286,0.835,15.191,5.160,18.336
2.050,0.635,-0.280,0.827,15.710,4.947,15.908
2.060,0.633,-0.278,0.825,15.496,4.168,13.221
2.060,0.644,-0.267,0.816,15.481,4.809,10.443
2.060,0.642,-0.263,0.803,15.053,3.786,6.672
2.070,0.633,-0.260,0.802,14.153,2.290,2.809
2.070,0.585,-0.265,0.779,12.687,0.702,0.122
2.080,0.535,-0.259,0.778,11.053,-0.580,-1.542
2.080,0.498,-0.257,0.776,9.466,-1.084,-2.198
2.080,0.468,-0.250,0.778,7.969,-0.947,-2.443
2.090,0.452,-0.262,0.775,6.153,-0.794,-3.252
2.090,0.453,-0.252,0.781,3.863,0.916,-3.863
2.100,0.424,-0.248,0.780,1.634,3.313,-3.985
2.100,0.392,-0.241,0.771,-0.656,5.832,-4.122
2.100,0.380,-0.234,0.773,-2.870,7.771,-4.366
2.110,0.355,-0.230,0.767,-5.130,9.115,-4.443
2.110,0.334,-0.236,0.781,-6.992,10.916,-4.519
2.120,0.313,-0.239,0.786,-7.573,11.817,-4.382
2.120,0.286,-0.243,0.812,-7.435,12.229,-3.985
2.120,0.258,-0.244,0.823,-7.328,12.565,-3.038
2.130,0.237,-0.249,0.826,-7.084,12.336,-2.076
2.130,0.211,-0.250,0.825,-6.580,11.710,-0.962
2.140,0.198,-0.249,0.851,-5.481,11.099,0.214
2.140,0.196,-0.251,0.875,-4.092,10.321,1.603
2.140,0.185,-0.256,0.870,-2.489,9.466,2.672
2.150,0.180,-0.258,0.882,-0.656,9.420,3.710
2.150,0.182,-0.260,0.905,0.885,9.557,4.779
2.160,0.192,-0.258,0.907,2.519,9.817,5.756
2.160,0.202,-0.257,0.897,3.985,9.939,6.290
2.160,0.211,-0.256,0.902,4.962,10.061,6.718
2.170,0.212,-0.253,0.905,6.489,10.366,7.191
2.170,0.223,-0.246,0.904,7.511,9.298,7.130
2.170,0.232,-0.242,0.892,7.817,7.786,7.298
2.180,0.248,-0.237,0.893,8.305,7.282,6.977
2.180,0.254,-0.233,0.875,8.076,7.023,7.145
2.190,0.270,-0.233,0.854,6.962,7.282,7.634
2.190,0.179,-0.202,0.816,6.992,1.176,8.321
2.190,0.233,-0.206,0.798,3.466,2.061,10.198
2.200,0.273,-0.227,0.848,2.305,1.389,9.603
2.200,0.297,-0.213,0.842,3.466,0.519,8.947
2.210,0.285,-0.217,0.850,2.916,-1.847,8.748
2.210,0.305,-0.216,0.830,1.496,-2.168,8.656
2.210,0.334,-0.218,0.828,0.321,-0.397,8.336
2.220,0.333,-0.218,0.829,-0.183,0.305,7.939
2.220,0.326,-0.216,0.829,-0.885,-0.107,7.786
2.220,0.357,-0.209,0.824,-2.031,0.534,7.435
2.230,0.403,-0.214,0.821,-2.840,3.878,6.366
2.230,0.423,-0.213,0.801,-3.359,5.237,4.656
2.240,0.416,-0.216,0.789,-4.580,5.374,3.328
2.240,0.421,-0.211,0.779,-6.198,5.634,2.489
2.240,0.423,-0.218,0.777,-7.282,6.092,1.527
2.250,0.422,-0.219,0.772,-8.794,5.878,0.931
2.250,0.431,-0.232,0.773,-9.863,5.481,0.076
2.260,0.419,-0.227,0.783,-10.733,5.206,-0.626
2.260,0.417,-0.244,0.799,-11.084,4.672,-1.145
2.260,0.412,-0.255,0.828,-10.809,3.115,-1.634
2.270,0.419,-0.260,0.844,-9.908,2.443,-2.031
2.270,0.420,-0.266,0.849,-9.298,2.962,-2.153
2.280,0.419,-0.272,0.856,-8.611,2.870,-2.718
2.280,0.423,-0.273,0.841,-8.046,2.519,-3.374
2.280,0.438,-0.276,0.855,-7.374,2.183,-4.260
2.290,0.438,-0.272,0.864,-6.595,2.000,-4.992
2.290,0.445,-0.280,0.852,-6.107,1.573,-5.924
2.300,0.450,-0.275,0.847,-5.817,1.115,-6.794
2.300,0.455,-0.274,0.830,-6.061,0.214,-7.817
2.300,0.467,-0.275,0.823,-6.321,0.076,-8.947
2.310,0.469,-0.272,0.816,-6.809,-0.107,-10.168
2.310,0.476,-0.281,0.815,-7.389,0.031,-11.176
2.320,0.471,-0.279,0.815,-7.725,-1.282,-12.611
2.320,0.486,-0.273,0.805,-7.954,-2.076,-14.168
2.320,0.508,-0.279,0.803,-9.374,-1.435,-15.985
2.330,0.510,-0.270,0.798,-10.015,-2.702,-18.122
2.330,0.535,-0.277,0.792,-11.160,-2.641,-20.504
2.340,0.540,-0.277,0.803,-11.695,-3.145,-23.237
2.340,0.540,-0.283,0.802,-12.000,-2.931,-25.588
2.350,0.556,-0.287,0.802,-12.076,-2.412,-28.244
2.350,0.578,-0.282,0.802,-12.076,-0.870,-30.718
2.350,0.590,-0.286,0.801,-12.229,0.366,-33.634
2.360,0.595,-0.289,0.790,-12.489,1.863,-36.489
2.360,0.594,-0.291,0.794,-12.763,3.634,-38.992
2.370,0.601,-0.287,0.791,-13.893,4.519,-41.679
2.370,0.604,-0.287,0.778,-14.748,5.573,-44.458
2.380,0.603,-0.291,0.780,-15.038,6.214,-47.328
2.380,0.612,-0.294,0.778,-15.267,6.198,-50.366
2.380,0.623,-0.298,0.785,-15.725,6.458,-53.771
2.390,0.633,-0.298,0.774,-16.351,6.565,-57.053
2.390,0.642,-0.303,0.770,-17.527,6.443,-60.733
2.400,0.654,-0.312,0.762,-18.611,6.336,-64.458
2.400,0.657,-0.307,0.774,-19.206,5.649,-68.244
2.400,0.663,-0.313,0.774,-19.756,5.130,-72.519
2.410,0.674,-0.316,0.774,-20.733,5.282,-76.870
2.410,0.677,-0.322,0.760,-21.282,5.115,-81.466
2.420,0.668,-0.322,0.734,-22.565,4.153,-86.183
2.420,0.670,-0.319,0.728,-24.275,3.771,-90.473
2.430,0.668,-0.323,0.715,-26.244,3.252,-94.931
2.430,0.672,-0.327,0.704,-28.275,2.504,-99.374
2.430,0.664,-0.324,0.690,-31.282,1.267,-103.160
2.440,0.672,-0.334,0.678,-34.214,1.206,-107.756
2.440,0.668,-0.335,0.667,-36.855,2.153,-111.740
2.450,0.663,-0.340,0.673,-39.069,2.443,-115.023
2.450,0.652,-0.350,0.691,-39.939,1.771,-117.878
2.450,0.632,-0.356,0.708,-40.687,1.038,-119.893
2.460,0.615,-0.379,0.731,-41.359,0.015,-121.878
2.460,0.573,-0.376,0.746,-39.939,-2.489,-122.015
2.470,0.557,-0.394,0.776,-37.481,-5.267,-122.168
2.470,0.568,-0.395,0.778,-36.931,-3.740,-122.015
2.480,0.583,-0.400,0.754,-36.260,0.534,-122.000
2.480,0.571,-0.396,0.772,-35.298,2.977,-121.573
2.480,0.558,-0.393,0.782,-33.359,3.481,-120.763
2.490,0.562,-0.396,0.791,-31.847,4.351,-119.771
2.490,0.584,-0.381,0.775,-31.053,7.527,-119.588
2.500,0.615,-0.375,0.750,-30.992,11.634,-119.695
2.500,0.626,-0.378,0.734,-31.252,16.137,-120.153
2.510,0.643,-0.369,0.708,-31.405,20.412,-121.099
2.510,0.644,-0.367,0.715,-31.832,24.183,-122.595
2.510,0.659,-0.361,0.686,-33.008,27.878,-124.595
2.520,0.661,-0.352,0.666,-35.038,30.916,-126.824
2.520,0.667,-0.356,0.653,-36.718,31.847,-129.786
2.530,0.662,-0.362,0.671,-37.359,31.206,-133.053
2.530,0.658,-0.365,0.661,-38.550,30.763,-136.137
2.540,0.645,-0.360,0.638,-40.504,30.061,-139.145
2.540,0.638,-0.366,0.635,-42.595,29.344,-142.153
2.550,0.625,-0.368,0.629,-45.038,28.427,-144.870
2.550,0.621,-0.369,0.619,-47.313,27.756,-147.130
2.550,0.600,-0.374,0.619,-49.863,26.931,-149.466
2.560,0.588,-0.375,0.617,-51.939,26.992,-151.115
2.560,0.579,-0.384,0.636,-54.107,27.649,-152.580
2.570,0.575,-0.386,0.671,-55.863,29.099,-153.802
2.570,0.563,-0.403,0.683,-56.947,31.649,-154.366
2.580,0.524,-0.408,0.709,-57.115,34.458,-154.412
2.580,0.496,-0.419,0.743,-55.527,36.855,-153.557
2.580,0.472,-0.427,0.771,-52.809,39.160,-152.092
2.590,0.451,-0.432,0.783,-50.519,42.550,-150.122
2.590,0.427,-0.438,0.797,-47.817,46.015,-147.695
2.600,0.400,-0.437,0.797,-44.733,48.992,-144.885
2.600,0.390,-0.431,0.795,-41.985,51.618,-142.031
2.610,0.383,-0.424,0.787,-40.382,53.832,-139.053
2.610,0.385,-0.413,0.760,-39.450,55.802,-135.725
2.610,0.397,-0.403,0.735,-39.160,58.153,-133.389
2.620,0.418,-0.383,0.709,-40.031,61.267,-131.588
2.620,0.444,-0.380,0.692,-41.496,64.321,-131.160
2.630,0.462,-0.370,0.669,-43.939,67.359,-131.725
2.630,0.494,-0.359,0.652,-46.779,70.519,-133.374
2.640,0.515,-0.365,0.637,-50.794,76.061,-135.786
2.640,0.511,-0.363,0.646,-53.313,78.076,-137.756
2.650,0.492,-0.374,0.692,-53.405,75.344,-140.153
2.650,0.472,-0.378,0.718,-53.069,70.824,-142.794
2.650,0.479,-0.394,0.715,-53.237,69.466,-145.191
2.660,0.486,-0.394,0.708,-52.962,70.534,-147.511
2.660,0.469,-0.412,0.734,-51.634,69.832,-149.832
2.670,0.440,-0.433,0.783,-48.733,67.557,-151.206
2.670,0.403,-0.442,0.823,-45.145,64.382,-151.771
2.680,0.360,-0.452,0.836,-41.695,60.122,-151.878
2.680,0.343,-0.452,0.848,-38.153,56.672,-150.885
2.680,0.319,-0.446,0.845,-35.023,54.595,-149.359
2.690,0.318,-0.443,0.859,-31.786,54.748,-147.832
2.690,0.335,-0.449,0.860,-28.046,57.450,-146.580
2.700,0.349,-0.447,0.859,-24.443,62.718,-146.061
2.700,0.376,-0.435,0.861,-19.725,75.893,-146.534
2.710,0.359,-0.465,0.842,-16.305,78.305,-145.985
2.710,0.237,-0.442,0.801,-17.817,61.221,-145.389
2.710,0.256,-0.425,0.754,-18.183,54.962,-144.366
2.720,0.281,-0.425,0.736,-19.908,55.588,-143.893
2.720,0.292,-0.423,0.747,-21.221,55.924,-143.878
2.730,0.285,-0.429,0.746,-22.427,54.427,-143.725
2.730,0.273,-0.421,0.707,-25.145,52.947,-143.710
2.740,0.274,-0.420,0.683,-28.687,53.450,-143.954
2.740,0.274,-0.412,0.665,-33.313,53.649,-144.794
2.740,0.270,-0.413,0.676,-37.511,53.328,-145.939
2.750,0.264,-0.419,0.661,-41.863,53.542,-147.252
2.750,0.260,-0.419,0.652,-46.412,54.809,-148.351
2.760,0.263,-0.424,0.646,-51.695,56.641,-149.649
2.760,0.258,-0.427,0.653,-56.840,56.321,-151.008
2.770,0.256,-0.442,0.696,-59.939,55.176,-152.733
2.770,0.255,-0.449,0.723,-62.076,53.130,-154.794
2.780,0.256,-0.464,0.743,-63.115,51.130,-156.733
2.780,0.244,-0.480,0.755,-62.794,49.084,-158.748
2.780,0.244,-0.479,0.774,-61.588,46.931,-160.840
2.790,0.233,-0.499,0.790,-60.489,44.061,-162.870
2.790,0.211,-0.510,0.824,-58.916,40.519,-164.504
2.800,0.175,-0.518,0.843,-56.702,36.244,-165.511
2.800,0.146,-0.523,0.852,-54.336,31.710,-165.893
2.810,0.127,-0.521,0.870,-52.519,27.435,-165.405
2.810,0.107,-0.513,0.851,-51.237,24.382,-164.580
2.810,0.103,-0.512,0.851,-50.046,22.366,-163.298
2.820,0.105,-0.503,0.846,-49.893,22.290,-162.504
2.820,0.131,-0.500,0.833,-50.397,23.985,-161.664
2.830,0.163,-0.493,0.815,-51.038,28.031,-161.573
2.830,0.188,-0.489,0.803,-51.588,32.901,-161.863
2.840,0.199,-0.494,0.808,-51.954,36.504,-162.809
2.840,0.208,-0.503,0.793,-52.565,39.695,-164.092
2.840,0.201,-0.503,0.787,-53.786,43.969,-165.084
2.850,0.191,-0.515,0.767,-55.282,48.458,-165.725
2.850,0.181,-0.509,0.756,-56.183,51.389,-165.863
2.860,0.155,-0.520,0.754,-57.405,52.687,-165.893
2.860,0.135,-0.511,0.748,-59.008,53.115,-165.786
2.870,0.134,-0.518,0.750,-60.260,53.038,-165.542
2.870,0.166,-0.515,0.780,-59.954,57.603,-166.672
2.880,0.222,-0.547,0.794,-54.840,70.779,-167.832
2.880,0.137,-0.527,0.802,-57.038,61.969,-167.649
2.880,0.091,-0.523,0.785,-57.176,50.519,-168.672
2.890,0.137,-0.536,0.768,-55.725,45.634,-170.977
2.890,0.179,-0.529,0.795,-56.595,41.267,-173.252
2.900,0.173,-0.544,0.803,-56.137,37.542,-176.015
2.900,0.135,-0.550,0.812,-55.649,32.458,-177.817
2.910,0.089,-0.566,0.831,-54.672,26.977,-178.779
2.910,0.053,-0.566,0.840,-53.328,20.656,-179.023
2.910,0.003,-0.573,0.887,-51.237,13.267,-177.588
2.920,-0.035,-0.580,0.882,-47.450,6.534,-174.962
2.920,-0.083,-0.571,0.907,-43.359,4.122,-168.809
2.930,-0.093,-0.569,0.902,-41.069,6.504,-163.374
2.930,-0.128,-0.571,0.903,-39.282,5.542,-156.198
2.940,-0.151,-0.558,0.902,-38.107,4.977,-148.412
2.940,-0.144,-0.552,0.890,-36.229,10.122,-140.046
2.940,-0.135,-0.545,0.897,-34.733,17.802,-131.374
2.950,-0.138,-0.530,0.890,-33.450,25.634,-121.664
2.950,-0.123,-0.520,0.899,-32.000,33.924,-113.053
2.960,-0.115,-0.524,0.893,-29.756,43.145,-104.748
2.960,-0.097,-0.517,0.895,-27.710,50.412,-97.954
2.970,-0.087,-0.505,0.889,-26.015,55.237,-92.473
2.970,-0.081,-0.495,0.871,-24.702,58.168,-87.985
2.980,-0.068,-0.493,0.865,-23.466,60.122,-84.855
2.980,-0.065,-0.476,0.847,-22.947,59.420,-82.901
2.980,-0.060,-0.474,0.844,-22.702,55.298,-81.420
2.990,-0.059,-0.476,0.848,-22.351,49.710,-81.069
2.990,-0.071,-0.465,0.862,-21.924,44.092,-80.550
3.000,-0.081,-0.464,0.861,-21.298,37.588,-79.481
3.000,-0.102,-0.457,0.857,-21.099,31.191,-77.802
3.010,-0.132,-0.454,0.876,-20.885,25.084,-75.023
3.010,-0.133,-0.449,0.876,-19.878,21.313,-71.053
3.010,-0.146,-0.436,0.897,-18.550,20.092,-66.076
3.020,-0.143,-0.429,0.912,-17.328,20.992,-60.336
3.020,-0.134,-0.418,0.924,-16.137,24.336,-54.397
3.030,-0.097,-0.407,0.904,-15.389,29.954,-48.794
3.030,-0.085,-0.402,0.911,-14.107,37.008,-43.176
3.040,-0.059,-0.400,0.914,-13.008,44.489,-38.305
3.040,-0.044,-0.384,0.904,-11.328,52.046,-33.771
3.040,-0.025,-0.370,0.882,-10.275,58.504,-30.168
3.050,-0.006,-0.365,0.866,-10.366,61.878,-27.618
3.050,0.016,-0.360,0.867,-10.198,62.519,-26.321
3.060,0.030,-0.358,0.877,-9.344,62.198,-25.542
3.060,0.024,-0.354,0.876,-8.107,60.611,-25.328
3.070,0.017,-0.358,0.859,-7.939,57.099,-25.206
3.070,0.012,-0.348,0.841,-7.603,51.603,-25.557
3.070,0.030,-0.342,0.833,-7.359,44.534,-26.565
3.080,0.036,-0.334,0.833,-7.664,36.153,-28.198
3.080,0.049,-0.333,0.822,-8.031,26.626,-30.366
3.090,0.049,-0.327,0.831,-8.031,17.237,-32.229
3.090,0.055,-0.326,0.835,-8.015,9.679,-33.298
3.100,0.051,-0.319,0.842,-7.481,3.939,-33.542
3.100,0.042,-0.315,0.849,-6.992,-0.275,-33.298
3.100,0.057,-0.320,0.844,-6.947,-3.023,-32.809
3.110,0.068,-0.318,0.856,-6.748,-4.885,-31.771
3.110,0.082,-0.312,0.859,-6.458,-3.527,-30.718
3.120,0.090,-0.319,0.865,-6.122,-1.084,-29.359
3.120,0.083,-0.316,0.866,-5.939,1.893,-27.542
3.120,0.083,-0.318,0.867,-5.908,5.466,-25.496
3.130,0.086,-0.320,0.885,-5.786,9.023,-23.084
3.130,0.088,-0.326,0.882,-5.557,12.473,-20.855
3.140,0.096,-0.319,0.885,-5.374,16.687,-18.458
3.140,0.097,-0.320,0.885,-5.344,20.534,-16.244
3.140,0.111,-0.323,0.890,-4.885,23.695,-14.458
3.150,0.115,-0.325,0.889,-4.656,26.519,-12.885
3.150,0.123,-0.327,0.889,-4.366,28.718,-11.939
3.160,0.126,-0.322,0.892,-4.000,30.565,-11.069
3.160,0.122,-0.324,0.888,-3.588,31.328,-10.550
3.170,0.118,-0.321,0.896,-3.038,31.191,-10.153
3.170,0.113,-0.324,0.891,-2.198,30.534,-10.000
3.170,0.104,-0.324,0.890,-1.527,29.496,-10.046
3.180,0.100,-0.319,0.893,-0.962,26.427,-10.427
3.180,0.099,-0.326,0.909,-0.427,23.481,-10.885
3.190,0.107,-0.320,0.907,0.519,21.252,-11.221
3.190,0.087,-0.326,0.910,1.420,19.649,-11.115
3.190,0.082,-0.321,0.904,2.687,17.679,-11.115
3.200,0.065,-0.316,0.899,3.847,15.008,-10.702
3.200,0.072,-0.320,0.885,4.687,12.687,-10.290
3.210,0.077,-0.306,0.882,4.702,10.794,-9.679
3.210,0.082,-0.304,0.878,4.779,9.420,-9.084
3.210,0.089,-0.305,0.884,4.870,9.481,-8.046
3.220,0.095,-0.298,0.869,5.115,10.244,-7.328
3.220,0.095,-0.294,0.869,5.069,10.977,-6.443
3.230,0.100,-0.291,0.860,4.885,11.679,-5.634
3.230,0.106,-0.288,0.863,4.641,11.817,-5.099
3.230,0.119,-0.283,0.846,3.908,11.832,-4.626
3.240,0.126,-0.278,0.853,3.206,11.511,-4.443
3.240,0.128,-0.278,0.848,2.809,11.481,-4.504
3.250,0.121,-0.272,0.836,2.260,10.321,-4.412
3.250,0.116,-0.269,0.846,1.847,9.420,-4.244
3.250,0.117,-0.271,0.834,1.664,8.382,-4.336
3.260,0.116,-0.265,0.832,1.267,6.916,-4.061
3.260,0.117,-0.266,0.826,1.038,4.977,-3.832
3.270,0.109,-0.269,0.821,0.198,2.107,-3.634
3.270,0.105,-0.268,0.824,-0.290,-0.656,-3.267
3.270,0.103,-0.266,0.825,-0.718,-3.466,-2.748
3.280,0.100,-0.269,0.837,-1.695,-5.969,-2.000
3.280,0.104,-0.273,0.831,-2.397,-7.786,-1.389
3.290,0.109,-0.271,0.827,-3.511,-9.481,-0.443
3.290,0.121,-0.273,0.843,-4.336,-9.847,0.290
3.290,0.135,-0.278,0.841,-4.779,-9.924,0.947
3.300,0.153,-0.279,0.860,-5.389,-9.679,1.573
3.300,0.164,-0.280,0.868,-5.511,-8.824,1.496
3.310,0.184,-0.287,0.877,-5.573,-7.160,1.389
3.310,0.182,-0.281,0.887,-5.466,-5.588,1.344
3.310,0.176,-0.287,0.886,-4.992,-3.908,1.588
3.320,0.177,-0.288,0.906,-4.427,-2.794,1.740
3.320,0.176,-0.285,0.891,-3.985,-1.924,1.710
3.330,0.178,-0.289,0.899,-3.176,-2.153,1.511
3.330,0.185,-0.284,0.906,-2.992,-3.130,1.450
3.330,0.183,-0.281,0.913,-1.740,-3.802,1.282
3.340,0.189,-0.294,0.918,-0.702,-4.244,1.328
3.340,0.193,-0.289,0.923,0.153,-4.382,1.115
3.350,0.197,-0.285,0.924,1.069,-4.305,0.931
3.350,0.204,-0.284,0.914,2.092,-4.031,0.733
3.350,0.207,-0.283,0.912,2.504,-3.328,0.794
3.360,0.211,-0.288,0.898,3.084,-3.053,0.489
3.360,0.200,-0.280,0.896,3.542,-2.626,0.595
3.370,0.203,-0.286,0.890,3.542,-1.832,0.550
3.370,0.213,-0.276,0.890,3.466,-0.779,0.611
3.370,0.212,-0.271,0.882,3.695,0.855,0.840
3.380,0.202,-0.277,0.876,4.015,2.031,1.023
3.380,0.202,-0.275,0.866,3.679,3.191,1.115
3.390,0.201,-0.271,0.878,3.405,3.740,1.145
3.390,0.208,-0.272,0.872,3.435,3.893,0.992
3.390,0.200,-0.269,0.875,3.634,3.557,0.931
3.400,0.197,-0.274,0.876,3.389,2.962,0.733
3.400,0.200,-0.271,0.868,3.298,2.290,0.885
3.400,0.193,-0.268,0.863,3.176,1.420,0.626
3.410,0.188,-0.276,0.857,3.450,0.214,0.672
3.410,0.188,-0.273,0.859,3.221,-1.115,0.809
3.420,0.198,-0.283,0.851,2.962,-2.489,0.702
3.420,0.196,-0.273,0.848,2.962,-3.053,0.504
3.420,0.189,-0.274,0.846,2.824,-3.618,0.473
3.430,0.192,-0.273,0.834,2.534,-3.786,0.443
3.430,0.207,-0.275,0.846,2.214,-4.321,0.092
3.440,0.207,-0.269,0.858,2.779,-4.229,-0.336
3.440,0.208,-0.273,0.857,3.084,-4.656,-0.779
3.440,0.205,-0.275,0.855,3.115,-4.595,-0.992
3.450,0.205,-0.271,0.859,3.298,-4.031,-1.038
3.450,0.205,-0.279,0.864,3.817,-3.511,-1.008
3.460,0.202,-0.280,0.867,4.015,-3.130,-1.038
3.460,0.192,-0.273,0.853,4.260,-3.206,-0.748
3.460,0.191,-0.271,0.848,4.382,-3.389,-0.351
3.470,0.188,-0.270,0.835,4.489,-3.618,-0.122
3.470,0.187,-0.263,0.819,4.031,-3.954,-0.244
3.480,0.192,-0.266,0.828,3.176,-4.412,-0.076
3.480,0.201,-0.265,0.825,3.008,-4.046,-0.046
3.480,0.204,-0.264,0.828,2.870,-3.481,0.061
3.490,0.200,-0.259,0.823,2.137,-2.809,0.061
3.490,0.200,-0.270,0.816,1.802,-2.366,0.168
3.490,0.201,-0.265,0.810,1.053,-1.954,0.198
3.500,0.200,-0.266,0.818,0.550,-1.771,-0.061
3.500,0.199,-0.266,0.823,0.214,-1.435,0.168
3.510,0.192,-0.269,0.839,0.122,-1.008,0.412
3.510,0.188,-0.267,0.837,0.260,-0.565,0.565
3.510,0.187,-0.268,0.840,0.504,-0.336,0.992
3.520,0.181,-0.272,0.839,0.229,0.000,1.374
3.520,0.180,-0.270,0.846,0.504,0.366,1.786
3.530,0.169,-0.266,0.845,0.748,0.519,2.382
3.530,0.171,-0.271,0.829,0.641,0.397,2.733
3.530,0.178,-0.269,0.839,0.412,0.260,3.115
3.540,0.187,-0.264,0.849,0.427,0.137,3.237
3.540,0.201,-0.272,0.852,0.382,0.198,2.947
3.550,0.208,-0.273,0.852,0.519,0.427,2.672
3.550,0.212,-0.271,0.857,0.809,0.443,2.092
3.550,0.213,-0.267,0.854,0.901,0.229,1.954
3.560,0.209,-0.269,0.854,0.916,0.092,1.664
3.560,0.216,-0.270,0.861,1.344,-0.137,1.206
3.560,0.211,-0.263,0.866,1.740,-0.733,1.160
3.570,0.204,-0.268,0.855,2.031,-1.328,0.794
3.570,0.206,-0.262,0.851,2.015,-2.153,0.443
3.580,0.213,-0.261,0.846,2.229,-2.931,0.061
3.580,0.206,-0.266,0.856,2.305,-3.802,-0.198
3.580,0.205,-0.253,0.845,2.092,-4.061,-0.321
3.590,0.199,-0.257,0.842,2.046,-4.260,-0.336
3.590,0.204,-0.256,0.845,1.863,-4.748,-0.214
3.600,0.204,-0.254,0.836,1.679,-4.733,-0.290
3.600,0.213,-0.246,0.837,1.282,-4.473,-0.290
3.600,0.210,-0.243,0.832,0.901,-3.817,-0.382
3.610,0.216,-0.250,0.831,0.015,-2.763,-0.305
3.610,0.217,-0.243,0.839,-0.992,-1.924,0.107
3.620,0.214,-0.251,0.838,-2.107,-0.962,0.336
3.620,0.222,-0.242,0.833,-3.130,0.260,0.275
3.620,0.224,-0.252,0.823,-2.595,1.374,-0.641
3.630,0.212,-0.254,0.841,-1.939,0.244,-0.702
3.630,0.199,-0.243,0.845,-1.985,-0.534,-0.794
3.640,0.206,-0.248,0.830,-2.244,-0.061,-0.626
3.640,0.203,-0.250,0.838,-2.412,-0.092,-0.794
3.640,0.202,-0.248,0.835,-2.672,-0.595,-0.626
3.650,0.197,-0.246,0.839,-2.824,-1.542,-0.733
3.650,0.193,-0.252,0.838,-2.885,-1.817,-0.611
3.660,0.194,-0.257,0.839,-2.855,-2.122,-0.397
3.660,0.199,-0.249,0.847,-2.947,-2.534,-0.351
3.660,0.199,-0.258,0.840,-2.901,-2.702,-0.366
3.670,0.196,-0.260,0.845,-3.084,-3.191,-0.351
3.670,0.201,-0.256,0.851,-2.947,-2.885,-0.550
3.680,0.209,-0.257,0.857,-2.809,-2.550,-0.412
3.680,0.215,-0.265,0.865,-2.458,-1.634,-0.626
3.680,0.209,-0.264,0.869,-2.214,-0.962,-0.672
3.690,0.199,-0.267,0.872,-1.695,0.244,-0.534
3.690,0.208,-0.267,0.862,-1.756,0.687,-0.244
3.700,0.197,-0.273,0.873,-1.618,1.267,-0.092
3.700,0.207,-0.266,0.849,-1.695,1.115,0.351
3.700,0.206,-0.264,0.860,-1.740,1.527,0.305
3.710,0.204,-0.265,0.851,-2.015,1.969,0.489
3.710,0.197,-0.257,0.858,-2.275,1.679,0.626
3.720,0.196,-0.264,0.861,-2.504,1.511,0.595
3.720,0.205,-0.266,0.857,-2.580,1.298,0.611
3.720,0.214,-0.265,0.849,-2.183,1.069,0.214
3.730,0.214,-0.253,0.854,-2.397,1.084,-0.366
3.730,0.213,-0.263,0.854,-2.397,0.718,-0.992
3.740,0.220,-0.265,0.860,-2.718,0.031,-1.725
3.740,0.209,-0.260,0.855,-2.534,-0.031,-1.908
3.740,0.211,-0.269,0.862,-2.473,0.595,-2.321
3.750,0.195,-0.270,0.852,-2.153,0.992,-2.137
3.750,0.178,-0.273,0.848,-2.397,1.206,-1.664
3.760,0.173,-0.271,0.842,-2.031,0.397,-1.252
3.760,0.183,-0.271,0.861,-1.954,0.336,-1.145
3.760,0.182,-0.271,0.854,-1.969,0.198,-0.840
3.770,0.185,-0.269,0.840,-1.237,0.504,-0.870
3.770,0.178,-0.266,0.850,-1.252,-0.107,-0.809
3.780,0.183,-0.270,0.837,-0.977,-0.748,-0.733
3.780,0.195,-0.270,0.861,0.015,-0.672,-1.008
3.780,0.184,-0.264,0.843,0.611,-1.542,-1.053
3.790,0.175,-0.262,0.828,-0.260,-1.069,-0.305
3.790,0.181,-0.261,0.815,-0.611,-0.046,0.229
3.800,0.169,-0.261,0.825,-0.748,-1.130,0.672
3.800,0.171,-0.256,0.831,-1.008,-2.321,1.160
3.800,0.176,-0.255,0.833,-1.405,-2.931,1.527
3.810,0.183,-0.260,0.847,-1.481,-2.275,1.908
3.810,0.192,-0.257,0.847,-1.771,-1.725,2.260
3.820,0.190,-0.252,0.849,-1.802,-1.511,2.687
3.820,0.186,-0.252,0.844,-2.015,-1.099,3.328
3.820,0.203,-0.256,0.857,-2.244,-1.053,3.435
3.830,0.195,-0.262,0.864,-2.076,-1.038,3.542
3.830,0.208,-0.260,0.876,-1.634,0.702,3.511
3.840,0.206,-0.266,0.881,-0.198,2.366,3.282
3.840,0.217,-0.266,0.908,1.252,4.137,3.466
3.840,0.222,-0.272,0.898,1.374,5.221,3.466
3.850,0.223,-0.267,0.882,1.771,6.061,3.191
3.850,0.223,-0.271,0.873,2.504,5.817,2.748
3.860,0.218,-0.270,0.869,2.061,5.267,2.397
3.860,0.222,-0.269,0.873,2.137,3.679,1.802
3.860,0.211,-0.266,0.883,2.550,1.634,1.588
3.870,0.220,-0.271,0.886,2.443,0.718,1.160
3.870,0.213,-0.272,0.871,2.489,1.786,0.748
3.870,0.215,-0.263,0.872,2.489,2.992,0.550
3.880,0.208,-0.264,0.864,2.656,3.511,0.489
3.880,0.200,-0.265,0.864,3.099,3.206,0.275
3.890,0.199,-0.272,0.856,3.359,3.084,0.061
3.890,0.197,-0.266,0.853,3.099,2.626,-0.214
3.890,0.197,-0.267,0.845,2.870,2.382,-0.336
3.900,0.200,-0.264,0.856,2.305,2.351,-0.397
3.900,0.198,-0.262,0.848,2.198,2.305,-0.580
3.910,0.187,-0.260,0.844,1.740,2.061,-0.580
3.910,0.180,-0.264,0.839,1.252,1.344,-0.015
3.910,0.183,-0.262,0.837,0.885,1.191,0.275
3.920,0.182,-0.267,0.845,0.519,1.176,0.321
3.920,0.191,-0.265,0.848,0.565,1.176,0.412
3.920,0.185,-0.268,0.852,0.458,0.855,0.244
3.930,0.189,-0.261,0.846,0.473,0.901,0.458
3.930,0.187,-0.263,0.842,0.015,0.489,0.305
3.940,0.194,-0.260,0.838,-0.550,0.000,0.473
3.940,0.199,-0.260,0.852,-0.977,-0.275,0.565
3.940,0.201,-0.258,0.862,-1.344,-0.107,0.443
3.950,0.201,-0.261,0.847,-1.756,0.000,0.443
3.950,0.196,-0.254,0.863,-1.527,-0.244,0.443
3.960,0.204,-0.262,0.861,-1.664,-0.565,0.305
3.960,0.202,-0.259,0.865,-1.969,-0.763,0.366
3.960,0.207,-0.256,0.862,-1.496,0.275,0.305
3.970,0.209,-0.255,0.860,-1.267,0.336,0.473
3.970,0.216,-0.264,0.859,-0.718,0.366,0.244
3.980,0.212,-0.253,0.865,-0.794,0.076,0.290
3.980,0.212,-0.256,0.865,-0.519,0.397,-0.137
3.980,0.213,-0.257,0.862,-0.351,0.962,-0.122
3.990,0.208,-0.265,0.858,-0.458,0.977,-0.336
3.990,0.207,-0.257,0.852,-0.779,0.550,-0.412
4.000,0.205,-0.257,0.861,-1.267,0.733,-0.244
4.000,0.207,-0.257,0.862,-1.221,0.885,-0.382
4.000,0.207,-0.263,0.865,-1.511,1.145,-0.260
4.010,0.208,-0.263,0.865,-1.603,1.786,-0.092
4.010,0.203,-0.259,0.867,-1.511,2.473,-0.031
4.020,0.205,-0.260,0.870,-1.511,3.084,0.046
4.020,0.199,-0.267,0.860,-0.840,3.237,0.046
4.020,0.198,-0.260,0.861,-0.565,2.840,0.000
4.030,0.197,-0.259,0.862,-0.687,2.153,0.000
4.030,0.207,-0.258,0.861,-0.458,2.473,-0.244
4.040,0.198,-0.260,0.852,-0.702,1.954,-0.305
4.040,0.192,-0.258,0.863,-0.626,1.313,-0.290
4.040,0.190,-0.261,0.858,-0.855,0.443,0.031
4.050,0.183,-0.258,0.855,-0.916,-0.290,-0.153
4.050,0.187,-0.256,0.855,-0.809,-0.855,0.321
4.060,0.191,-0.255,0.857,-1.008,-1.527,0.092
