Time,acce_x,acce_y,acce_z,gyro_x,gyro_y,gyro_z
0.000010,0.40,0.14,0.95,-33.69,5.36,4.40
0.000020,0.39,0.15,0.94,-25.68,-6.44,6.76
0.000030,0.39,0.15,0.93,-18.27,-10.24,10.52
0.000050,0.37,0.13,0.92,-11.80,-11.30,12.70
0.000060,0.37,0.12,0.94,-6.70,-12.69,13.83
0.000070,0.37,0.11,0.95,-1.31,-10.87,16.75
0.000090,0.36,0.11,0.96,2.96,-8.38,18.53
0.000100,0.35,0.11,0.97,4.32,-10.82,18.12
0.000110,0.36,0.13,0.97,5.16,-9.97,22.44
0.000130,0.33,0.16,0.94,7.62,-11.47,23.94
0.000140,0.32,0.16,0.92,8.27,-7.48,23.60
0.000150,0.30,0.16,0.90,8.50,-2.06,20.34
0.000170,0.28,0.17,0.90,7.65,-3.36,16.02
0.000180,0.28,0.17,0.91,6.50,-3.39,11.42
0.000190,0.31,0.18,0.91,4.06,-6.08,6.32
0.000200,0.36,0.18,0.91,3.54,-9.05,5.22
0.000220,0.38,0.21,0.93,5.97,-16.31,7.79
0.000230,0.40,0.21,0.93,7.68,-25.95,12.87
0.000240,0.39,0.21,0.94,12.21,-32.12,18.31
0.000260,0.37,0.21,0.95,13.28,-34.38,19.37
0.000270,0.34,0.22,0.94,12.47,-38.72,18.09
0.000280,0.34,0.23,0.93,9.19,-38.70,15.05
0.000300,0.33,0.25,0.90,3.31,-40.40,9.91
0.000310,0.36,0.26,0.88,-2.50,-37.98,3.50
0.000320,0.43,0.25,0.82,-8.23,-32.11,-6.21
0.000340,0.55,0.23,0.83,-11.04,-18.08,-9.65
0.000350,0.61,0.24,0.84,-9.74,-4.32,-8.61
0.000360,0.64,0.24,0.91,-6.23,3.15,-4.66
0.000380,0.61,0.25,0.99,-2.69,6.79,-0.85
0.000390,0.60,0.26,1.07,-1.39,5.73,2.09
0.000400,0.57,0.26,1.12,-1.37,2.58,3.68
0.000420,0.56,0.23,1.14,-2.14,0.81,2.08
0.000430,0.55,0.22,1.14,-2.93,-1.63,0.06
0.000440,0.54,0.20,1.10,-2.21,-3.31,-2.50
0.000460,0.55,0.19,1.08,-1.07,-3.76,-2.72
0.000470,0.55,0.19,1.08,0.47,1.79,-1.66
0.000480,0.53,0.20,1.05,1.39,3.05,-1.19
0.000500,0.51,0.21,1.05,0.12,4.99,-2.20
0.000510,0.50,0.20,1.05,-1.18,4.15,-2.47
0.000520,0.49,0.20,1.04,-1.92,2.35,-1.62
0.000540,0.49,0.19,1.03,-3.57,1.11,-1.77
0.000550,0.50,0.19,1.03,-6.27,1.04,-2.87
0.000560,0.52,0.19,1.03,-8.17,3.04,-0.84
0.000580,0.52,0.19,1.03,-9.36,2.79,1.76
0.000590,0.48,0.18,1.02,-10.75,1.59,2.92
0.000600,0.47,0.17,1.00,-12.79,-2.21,1.60
0.000610,0.46,0.16,0.96,-13.82,-3.94,0.61
0.000630,0.45,0.16,0.95,-13.15,-5.98,-0.72
0.000640,0.45,0.15,0.92,-11.91,-4.46,-2.58
0.000650,0.46,0.15,0.92,-9.18,-1.68,-2.43
0.000670,0.44,0.15,0.94,-6.87,2.17,-0.85
0.000680,0.42,0.15,0.97,-5.07,3.79,-0.21
0.000690,0.42,0.14,0.98,-5.48,5.04,-0.99
0.000710,0.42,0.13,0.96,-4.43,5.95,-1.65
0.000720,0.41,0.13,0.94,-3.05,4.53,-2.93
0.000730,0.42,0.14,0.93,0.18,3.04,-3.10
0.000750,0.42,0.14,0.94,2.63,1.77,-3.63
0.000760,0.43,0.15,0.96,4.11,0.46,-4.12
0.000770,0.42,0.16,0.97,4.14,-1.08,-5.57
0.000790,0.45,0.16,0.97,3.34,0.09,-6.26
0.000800,0.45,0.16,0.97,4.05,-0.08,-5.95
0.000810,0.45,0.17,0.97,4.96,1.21,-5.94
0.000830,0.47,0.18,0.98,4.92,1.53,-5.10
0.000840,0.47,0.17,0.98,4.90,0.78,-2.47
0.000850,0.47,0.18,0.98,4.09,-0.15,-0.67
0.000870,0.46,0.19,0.97,3.28,-2.31,0.84
0.000880,0.45,0.19,0.95,3.01,-1.86,1.85
0.000890,0.44,0.17,0.94,3.30,-1.82,1.19
0.000910,0.45,0.17,0.96,4.08,-0.95,2.12
0.000920,0.44,0.18,0.96,4.89,-1.68,3.44
0.000930,0.42,0.17,0.97,3.85,-2.66,1.85
0.000950,0.42,0.18,0.96,2.31,-1.31,-0.72
0.000960,0.44,0.18,0.96,2.38,-0.18,-1.36
0.000970,0.45,0.17,0.94,3.89,-0.20,-0.90
0.000990,0.47,0.18,0.97,3.89,0.38,-0.17
0.001000,0.47,0.19,0.97,3.56,-0.37,0.56
0.001010,0.47,0.19,0.97,2.89,0.21,0.27
0.001030,0.47,0.19,0.98,2.75,0.27,0.69
0.001040,0.48,0.19,0.98,2.92,0.11,1.40
0.001050,0.48,0.19,0.97,2.55,0.03,1.92
0.001060,0.50,0.19,0.96,1.34,1.69,2.37
0.001080,0.51,0.20,0.96,-0.11,3.95,2.89
0.001090,0.53,0.21,0.96,0.55,7.50,4.05
0.001100,0.56,0.21,0.97,0.41,9.42,7.24
0.001120,0.56,0.20,0.98,1.08,9.86,11.94
0.001130,0.54,0.20,0.98,0.69,8.50,16.35
0.001140,0.51,0.20,0.97,-1.02,8.46,17.66
0.001160,0.50,0.19,0.96,-2.15,9.34,17.24
0.001170,0.52,0.18,0.95,-1.86,13.19,16.93
0.001180,0.53,0.18,0.95,0.15,14.69,17.69
0.001200,0.53,0.19,0.95,1.85,13.97,20.56
0.001210,0.52,0.19,0.95,2.05,11.31,24.24
0.001220,0.48,0.19,0.97,3.76,4.27,27.73
0.001240,0.46,0.18,0.95,4.85,0.24,27.65
0.001250,0.44,0.16,0.97,7.19,0.11,26.23
0.001260,0.45,0.16,0.98,7.71,4.56,21.50
0.001280,0.46,0.16,0.98,6.87,9.36,16.78
0.001290,0.49,0.18,0.98,5.69,12.99,14.63
0.001300,0.51,0.18,0.97,4.89,13.37,15.48
0.001320,0.52,0.18,0.97,5.31,8.67,18.14
0.001330,0.53,0.19,0.95,5.33,5.69,20.46
0.001340,0.51,0.20,0.95,6.44,2.08,22.18
0.001360,0.53,0.20,0.94,6.70,2.44,23.79
0.001370,0.53,0.20,0.94,6.50,4.64,25.10
0.001380,0.54,0.20,0.93,6.06,6.99,26.76
0.001390,0.57,0.21,0.91,5.85,12.21,29.16
0.001410,0.56,0.21,0.93,6.55,18.06,32.66
0.001420,0.55,0.20,0.95,7.44,20.26,36.96
0.001430,0.52,0.20,0.97,8.63,15.74,39.28
0.001450,0.51,0.20,0.97,8.78,10.32,41.10
0.001460,0.51,0.20,0.94,7.89,6.43,42.52
0.001470,0.51,0.19,0.92,10.32,6.47,44.43
0.001490,0.49,0.19,0.94,13.34,6.55,46.31
0.001500,0.46,0.20,0.98,14.79,8.41,46.89
0.001510,0.45,0.21,1.02,14.35,9.98,46.52
0.001530,0.42,0.19,1.02,13.33,9.45,45.18
0.001540,0.41,0.18,1.02,11.33,6.06,42.05
0.001550,0.42,0.19,0.99,9.07,0.87,40.47
0.001570,0.44,0.18,0.96,8.81,-4.21,41.22
0.001580,0.45,0.20,0.93,9.16,-4.32,43.31
0.001590,0.45,0.21,0.94,10.73,-3.88,43.88
0.001610,0.44,0.20,0.96,10.60,-0.26,43.25
0.001620,0.44,0.19,0.96,9.69,2.09,42.08
0.001630,0.45,0.18,0.96,9.57,-0.67,42.70
0.001650,0.47,0.18,0.92,7.68,-3.85,44.76
0.001660,0.45,0.18,0.90,7.45,-7.24,47.19
0.001670,0.44,0.18,0.89,8.76,-8.00,47.10
0.001690,0.43,0.19,0.92,10.98,-3.42,45.88
0.001700,0.44,0.18,0.94,14.92,0.72,45.82
0.001710,0.45,0.18,0.95,15.94,0.44,47.21
0.001730,0.44,0.18,0.94,12.46,-1.28,50.26
0.001740,0.42,0.17,0.92,9.88,-4.23,50.24
0.001750,0.40,0.18,0.93,11.56,-4.67,51.79
0.001770,0.39,0.17,0.94,15.47,-3.31,50.60
0.001780,0.37,0.16,0.98,17.92,-2.52,50.46
0.001790,0.36,0.16,1.00,16.12,-4.09,50.08
0.001810,0.35,0.16,1.00,10.76,-7.56,48.11
0.001820,0.32,0.15,0.98,5.73,-11.04,44.92
0.001830,0.33,0.15,0.96,7.07,-13.18,42.37
0.001850,0.35,0.15,0.97,10.87,-10.18,39.82
0.001860,0.36,0.16,1.01,13.04,-5.10,39.31
0.001870,0.37,0.16,1.05,11.71,-0.69,37.66
0.001890,0.36,0.14,1.07,9.53,0.27,37.97
0.001900,0.34,0.15,1.07,6.18,-2.66,36.02
0.001910,0.36,0.15,1.00,3.71,-3.08,34.03
0.001930,0.39,0.15,0.97,4.98,2.09,33.51
0.001940,0.41,0.15,0.97,6.89,6.49,33.68
0.001950,0.42,0.15,1.00,9.51,10.49,35.85
0.001970,0.41,0.15,1.01,10.03,12.29,37.40
0.001980,0.40,0.14,1.02,9.73,13.97,35.74
0.001990,0.43,0.16,1.00,8.41,16.52,35.39
0.002010,0.45,0.18,1.00,8.05,20.56,36.85
0.002020,0.47,0.18,0.96,9.15,25.66,38.50
0.002030,0.48,0.20,0.95,9.16,30.27,42.34
0.002050,0.48,0.20,0.94,11.63,33.59,48.12
0.002060,0.43,0.19,0.94,13.95,32.60,52.61
0.002070,0.38,0.17,0.94,16.44,30.82,52.89
0.002090,0.35,0.15,0.95,17.22,29.05,48.14
0.002100,0.37,0.14,0.99,19.10,27.48,47.36
0.002110,0.37,0.14,1.02,21.34,24.82,46.12
0.002130,0.38,0.14,1.04,21.85,21.69,47.10
0.002140,0.36,0.13,1.06,21.07,18.64,47.45
0.002150,0.35,0.14,1.05,20.85,14.81,48.29
0.002170,0.35,0.14,1.03,22.43,13.76,48.43
0.002180,0.32,0.13,1.01,25.97,9.16,48.43
0.002190,0.30,0.13,1.00,26.69,8.46,45.95
0.002210,0.30,0.13,0.96,27.08,7.85,42.41
0.002220,0.31,0.14,0.95,29.79,7.92,40.03
0.002230,0.33,0.14,0.94,31.77,8.21,39.25
0.002250,0.34,0.15,0.95,33.33,8.78,37.25
0.002260,0.35,0.16,0.98,33.33,13.15,34.99
0.002270,0.38,0.18,0.97,32.69,16.79,34.00
0.002290,0.42,0.19,0.97,32.60,21.60,34.75
0.002300,0.42,0.20,0.97,33.19,23.62,36.35
0.002310,0.43,0.21,0.98,33.65,23.88,38.27
0.002330,0.42,0.22,0.97,32.20,20.73,38.75
0.002340,0.43,0.21,0.96,31.56,17.51,41.86
0.002350,0.43,0.20,0.93,31.22,14.46,44.37
0.002370,0.42,0.18,0.91,32.24,15.51,45.65
0.002380,0.43,0.20,0.94,34.49,23.07,45.82
0.002390,0.45,0.21,0.99,34.05,31.82,46.56
0.002410,0.45,0.22,1.03,30.61,39.24,47.92
0.002420,0.43,0.21,1.05,27.97,40.73,50.14
0.002430,0.38,0.20,1.01,25.76,35.33,52.17
0.002450,0.39,0.19,0.99,25.44,33.11,49.25
0.002460,0.42,0.20,0.98,28.46,38.61,45.95
0.002470,0.46,0.25,1.06,29.15,48.55,46.67
0.002490,0.48,0.26,1.15,23.60,54.99,52.44
0.002500,0.45,0.29,1.21,19.91,54.76,58.14
0.002510,0.35,0.32,1.24,17.51,38.90,57.10
0.002530,0.35,0.33,1.22,11.11,24.96,60.35
0.002540,0.31,0.31,1.11,10.26,6.58,61.36
0.002550,0.34,0.33,1.04,11.86,-5.88,61.65
0.002570,0.35,0.34,1.01,14.69,-7.65,65.02
0.002580,0.35,0.35,0.99,11.65,-5.34,67.48
0.002590,0.36,0.35,0.97,11.31,8.76,71.07
0.002610,0.33,0.34,0.98,11.92,20.03,77.21
0.002620,0.27,0.32,0.98,11.19,27.11,80.81
0.002630,0.21,0.29,0.99,12.98,26.85,81.15
0.002650,0.16,0.29,1.01,14.64,23.92,78.27
0.002660,0.13,0.28,1.03,13.31,15.71,73.51
0.002670,0.12,0.27,1.02,12.23,9.88,69.22
0.002690,0.12,0.26,0.98,13.54,10.15,63.28
0.002700,0.14,0.27,0.95,13.60,18.75,57.68
0.002710,0.21,0.27,0.92,10.60,49.80,53.82
0.002730,0.26,0.28,0.91,3.30,94.85,54.81
0.002740,0.19,0.25,0.91,2.21,122.37,57.92
0.002750,0.11,0.21,0.93,6.12,115.05,57.13
0.002770,-0.02,0.19,1.02,13.21,77.07,48.05
0.002780,0.01,0.20,1.07,18.92,33.54,33.44
0.002790,0.14,0.23,1.15,18.47,29.21,27.86
0.002810,0.14,0.25,1.15,15.04,31.53,22.40
0.002820,0.22,0.29,1.16,8.49,40.09,22.87
0.002830,0.18,0.30,1.10,7.53,32.09,25.98
0.002850,0.20,0.34,1.09,9.86,27.92,33.80
0.002860,0.17,0.36,1.06,7.50,20.44,43.19
0.002870,0.14,0.36,1.02,7.45,16.49,50.81
0.002890,0.10,0.34,1.00,9.44,15.94,57.66
0.002900,0.03,0.31,0.99,11.56,16.34,62.93
0.002910,-0.02,0.23,0.96,17.97,15.51,67.80
0.002930,-0.12,0.18,0.96,25.01,8.37,67.27
0.002940,-0.23,0.20,1.04,28.46,-7.37,58.82
0.002950,-0.25,0.21,1.15,26.12,-18.46,45.01
0.002970,-0.22,0.25,1.19,18.55,-14.35,37.94
0.002980,-0.17,0.28,1.22,15.18,-6.06,30.56
0.002990,-0.12,0.24,1.16,10.92,-1.77,28.38
0.003010,-0.12,0.21,1.09,14.40,-0.82,34.47
0.003020,-0.21,0.18,1.10,25.10,-10.66,36.75
0.003040,-0.27,0.16,1.19,28.96,-25.53,33.82
0.003050,-0.36,0.17,1.23,24.53,-35.56,21.48
0.003060,-0.30,0.15,1.20,20.20,-35.76,9.28
0.003080,-0.27,0.16,1.13,14.99,-36.75,-2.53
0.003090,-0.20,0.19,1.08,16.81,-34.49,-12.06
0.003100,-0.12,0.19,1.05,16.35,-32.06,-18.72
0.003120,-0.05,0.24,1.05,13.88,-25.02,-17.76
0.003130,-0.01,0.29,1.08,12.43,-14.26,-18.47
0.003140,0.01,0.32,1.10,10.20,-9.91,-17.97
0.003160,0.03,0.32,1.10,5.31,-8.84,-19.18
0.003170,0.02,0.32,1.10,0.20,-12.14,-21.11
0.003180,0.03,0.30,1.08,-4.20,-17.89,-24.24
0.003200,0.04,0.30,1.06,-7.59,-22.06,-27.92
0.003210,0.07,0.33,1.06,-11.76,-23.50,-29.80
0.003220,0.09,0.32,1.07,-15.47,-20.40,-31.83
0.003240,0.12,0.32,1.06,-20.61,-16.08,-32.78
0.003250,0.14,0.33,1.05,-24.70,-14.64,-33.60
0.003270,0.15,0.30,1.03,-26.18,-15.25,-32.29
0.003280,0.13,0.30,1.02,-28.23,-20.63,-32.40
0.003290,0.11,0.30,0.99,-29.62,-25.60,-35.01
0.003310,0.12,0.31,0.99,-29.82,-25.15,-38.85
0.003320,0.15,0.33,0.99,-31.33,-18.73,-41.04
0.003330,0.18,0.31,1.03,-32.93,-9.88,-42.63
0.003350,0.18,0.29,1.05,-35.27,-2.61,-43.47
0.003360,0.18,0.25,1.04,-34.64,0.15,-42.14
0.003370,0.13,0.23,1.05,-30.17,-1.91,-43.48
0.003390,0.10,0.24,1.09,-27.30,-10.82,-48.78
0.003400,0.10,0.27,1.14,-26.55,-19.48,-54.96
0.003420,0.17,0.29,1.15,-29.25,-23.37,-56.79
0.003430,0.23,0.27,1.10,-28.27,-20.15,-53.04
0.003440,0.20,0.25,1.08,-24.66,-18.38,-47.73
0.003460,0.15,0.26,1.08,-22.02,-20.47,-47.01
0.003470,0.13,0.26,1.09,-22.90,-21.92,-49.45
0.003480,0.11,0.26,1.09,-22.73,-24.24,-51.01
0.003500,0.11,0.25,1.10,-23.36,-28.08,-53.34
0.003510,0.11,0.26,1.09,-24.15,-31.98,-55.36
0.003520,0.13,0.26,1.09,-26.67,-33.31,-57.98
0.003540,0.15,0.26,1.07,-29.08,-32.55,-58.61
0.003550,0.16,0.26,1.06,-29.74,-31.59,-57.15
0.003570,0.14,0.26,1.05,-28.95,-33.16,-57.18
0.003580,0.13,0.25,1.05,-28.53,-35.42,-59.22
0.003590,0.13,0.24,1.05,-28.98,-36.23,-62.32
0.003610,0.16,0.24,1.06,-30.44,-34.85,-65.01
0.003620,0.16,0.24,1.06,-31.63,-33.25,-66.73
0.003630,0.17,0.23,1.03,-30.64,-32.44,-67.48
0.003650,0.19,0.23,1.03,-30.00,-30.20,-69.80
0.003660,0.19,0.24,1.01,-32.23,-29.83,-73.65
0.003670,0.23,0.24,0.98,-31.45,-29.89,-75.94
0.003690,0.27,0.25,0.97,-31.59,-30.02,-75.24
0.003700,0.30,0.25,0.98,-32.35,-29.88,-72.09
0.003710,0.29,0.26,0.98,-34.21,-27.21,-68.89
0.003730,0.28,0.25,0.96,-35.37,-24.26,-69.47
0.003740,0.28,0.24,0.94,-37.53,-22.87,-74.21
0.003760,0.33,0.24,0.93,-38.66,-19.28,-76.43
0.003770,0.37,0.24,0.93,-43.27,-16.75,-78.27
0.003780,0.43,0.25,0.96,-44.82,-13.95,-75.69
0.003800,0.44,0.23,0.92,-44.37,-13.13,-68.08
0.003810,0.39,0.20,0.90,-41.16,-16.81,-62.87
0.003820,0.35,0.19,0.88,-38.26,-21.65,-63.22
0.003840,0.35,0.18,0.87,-37.54,-21.07,-67.79
0.003850,0.39,0.20,0.90,-39.71,-16.61,-71.01
0.003860,0.44,0.21,0.93,-40.08,-11.07,-65.77
0.003880,0.45,0.20,0.96,-35.44,-8.15,-59.37
0.003890,0.43,0.18,0.93,-29.42,-7.97,-52.96
0.003910,0.38,0.17,0.97,-22.53,-5.76,-48.67
0.003920,0.35,0.16,1.02,-19.94,-6.52,-48.11
0.003930,0.33,0.16,1.06,-19.47,-4.03,-50.35
0.003950,0.34,0.16,1.08,-18.67,-1.83,-51.53
0.003960,0.35,0.16,1.06,-16.70,-2.11,-51.08
0.003970,0.37,0.17,1.04,-14.31,-2.17,-48.27
0.003990,0.36,0.16,1.02,-10.18,-5.69,-46.08
0.004000,0.34,0.16,1.05,-8.35,-10.90,-46.89
0.004010,0.36,0.16,1.06,-6.35,-12.79,-46.23
0.004030,0.35,0.16,1.05,-5.53,-14.14,-44.49
0.004040,0.35,0.17,1.02,-3.42,-13.16,-42.24
0.004050,0.36,0.16,1.01,0.06,-11.42,-38.79
0.004070,0.33,0.14,1.03,2.15,-15.04,-37.62
0.004080,0.30,0.15,1.05,5.34,-18.55,-37.89
0.004090,0.30,0.15,1.07,5.50,-18.85,-40.20
0.004110,0.32,0.18,1.07,3.36,-15.92,-43.22
0.004120,0.37,0.18,1.03,4.47,-14.46,-39.94
0.004140,0.37,0.17,1.00,8.23,-16.89,-34.27
0.004150,0.34,0.16,0.97,13.59,-20.49,-28.73
0.004160,0.30,0.16,0.98,13.98,-23.21,-29.36
0.004180,0.29,0.16,0.97,14.49,-22.40,-31.33
0.004190,0.29,0.19,1.00,13.21,-18.63,-34.73
0.004200,0.31,0.20,0.98,9.86,-12.87,-36.38
0.004220,0.36,0.22,0.96,8.00,-9.82,-35.95
0.004230,0.38,0.22,0.96,7.15,-11.19,-33.76
0.004240,0.37,0.23,0.99,4.78,-13.10,-30.93
0.004260,0.34,0.22,1.00,0.52,-14.52,-30.75
0.004270,0.33,0.22,1.01,-5.19,-16.95,-32.70
0.004280,0.33,0.21,1.00,-9.47,-16.32,-33.80
0.004300,0.34,0.22,1.01,-13.34,-16.46,-33.68
0.004310,0.33,0.21,1.00,-15.07,-17.59,-33.45
0.004320,0.34,0.20,1.01,-16.67,-15.92,-34.24
0.004340,0.33,0.20,1.02,-18.67,-16.38,-36.14
0.004350,0.33,0.20,1.03,-21.08,-15.66,-36.93
0.004370,0.34,0.20,1.04,-24.17,-19.13,-37.19
0.004380,0.33,0.20,1.03,-26.69,-23.62,-37.91
0.004390,0.34,0.20,1.00,-27.79,-25.50,-37.83
0.004410,0.34,0.20,1.00,-29.85,-24.46,-37.24
0.004420,0.33,0.20,0.99,-31.21,-21.21,-36.08
0.004430,0.31,0.18,0.99,-30.03,-20.14,-35.83
0.004450,0.29,0.18,1.03,-28.64,-22.14,-37.02
0.004460,0.30,0.17,1.05,-29.65,-28.52,-36.69
0.004470,0.28,0.17,1.04,-32.29,-32.17,-36.81
0.004490,0.27,0.15,1.01,-35.02,-32.95,-37.51
0.004500,0.23,0.17,0.97,-37.53,-33.07,-42.46
0.004520,0.28,0.16,0.95,-36.89,-25.98,-43.37
0.004530,0.30,0.16,0.95,-36.31,-24.49,-42.89
0.004540,0.31,0.17,0.95,-34.55,-25.79,-41.13
0.004560,0.32,0.18,0.93,-33.73,-26.15,-37.94
0.004570,0.31,0.17,0.92,-33.68,-23.83,-36.08
0.004580,0.33,0.16,0.92,-33.13,-21.31,-35.69
0.004600,0.36,0.15,0.95,-30.82,-14.92,-33.83
0.004610,0.35,0.15,0.99,-30.67,-15.02,-35.69
0.004620,0.34,0.15,1.03,-31.16,-16.98,-43.50
0.004640,0.38,0.16,1.03,-32.84,-16.20,-47.48
0.004650,0.42,0.16,1.02,-35.25,-12.52,-48.55
0.004670,0.43,0.17,1.01,-34.50,-9.10,-48.02
0.004680,0.44,0.16,1.02,-32.08,-6.40,-47.19
0.004690,0.44,0.17,1.02,-31.40,-5.92,-47.21
0.004710,0.43,0.17,1.00,-30.29,-6.29,-49.62
0.004720,0.44,0.16,0.98,-30.18,-3.85,-52.02
0.004730,0.45,0.17,0.96,-29.69,-1.01,-53.86
0.004750,0.46,0.17,0.95,-26.70,0.61,-54.73
0.004760,0.47,0.17,0.99,-22.76,-2.34,-53.73
0.004770,0.46,0.17,1.02,-21.97,-7.76,-53.76
0.004790,0.45,0.16,1.02,-24.21,-10.34,-53.69
0.004800,0.44,0.17,1.00,-25.68,-7.77,-54.09
0.004810,0.45,0.17,0.98,-24.87,-0.81,-54.00
0.004830,0.44,0.16,0.98,-23.37,-0.09,-53.47
0.004840,0.42,0.16,0.98,-21.57,-6.78,-52.81
0.004850,0.37,0.17,0.97,-20.52,-15.74,-53.83
0.004870,0.36,0.17,0.93,-20.05,-16.79,-54.63
0.004880,0.35,0.18,0.90,-19.07,-7.51,-55.74
0.004900,0.36,0.18,0.88,-16.15,1.76,-59.42
0.004910,0.35,0.16,0.90,-13.36,4.38,-62.85
0.004920,0.37,0.16,0.97,-10.95,-5.37,-68.38
0.004940,0.42,0.16,0.99,-9.77,-14.32,-70.46
0.004950,0.48,0.19,0.98,-11.94,-10.43,-69.11
0.004960,0.50,0.19,0.97,-12.69,-2.53,-65.25
0.004980,0.52,0.19,0.98,-11.50,3.28,-59.39
0.004990,0.49,0.19,1.01,-8.87,0.32,-54.53
0.005000,0.45,0.19,1.04,-9.39,-7.45,-53.66
0.005020,0.46,0.19,1.01,-12.05,-7.08,-52.58
0.005030,0.48,0.19,0.99,-13.62,3.18,-48.61
0.005040,0.48,0.19,0.99,-13.59,10.34,-45.15
0.005060,0.47,0.19,1.00,-11.80,11.98,-41.42
0.005070,0.43,0.18,1.03,-11.01,0.37,-41.74
0.005080,0.43,0.18,1.03,-12.58,-9.51,-42.47
0.005100,0.45,0.19,1.01,-14.98,-4.92,-42.32
0.005110,0.46,0.19,0.99,-15.97,0.56,-41.19
0.005120,0.45,0.20,0.97,-15.51,2.87,-39.88
0.005140,0.43,0.20,0.98,-14.49,-0.06,-40.02
0.005150,0.45,0.20,1.01,-14.99,-2.31,-38.95
0.005170,0.44,0.19,1.01,-17.80,-1.69,-38.49
0.005180,0.46,0.21,0.97,-18.84,-0.43,-37.24
0.005190,0.46,0.20,0.97,-16.32,6.70,-36.41
0.005210,0.47,0.19,0.97,-17.18,10.05,-36.72
0.005220,0.48,0.19,0.96,-16.56,5.24,-33.82
0.005230,0.46,0.19,0.95,-15.47,-4.20,-31.47
0.005250,0.44,0.18,0.95,-14.26,-5.53,-32.00
0.005260,0.44,0.18,0.94,-12.44,-3.68,-32.75
0.005270,0.44,0.18,0.95,-10.11,-1.36,-31.62
0.005290,0.44,0.17,0.98,-7.40,-3.28,-29.68
0.005300,0.43,0.17,1.00,-4.70,-8.58,-29.10
0.005310,0.43,0.16,1.01,-2.41,-9.05,-27.77
0.005330,0.42,0.17,1.01,0.99,-9.77,-26.78
0.005340,0.43,0.17,1.00,2.75,-2.61,-26.17
0.005350,0.42,0.17,0.99,3.98,2.44,-26.82
0.005370,0.43,0.17,0.96,5.31,2.89,-25.83
0.005380,0.42,0.18,0.97,6.49,1.51,-24.49
0.005390,0.41,0.18,1.00,6.93,-1.39,-25.42
0.005410,0.43,0.20,0.99,5.31,0.89,-28.23
0.005420,0.46,0.21,0.99,2.78,8.78,-29.31
0.005430,0.50,0.22,0.99,2.93,8.70,-25.54
0.005450,0.49,0.22,1.00,2.75,4.96,-22.56
0.005460,0.49,0.22,1.01,2.06,-1.04,-20.52
0.005470,0.50,0.22,0.99,1.79,-4.02,-18.55
0.005490,0.48,0.21,0.98,1.22,-1.63,-16.21
0.005500,0.47,0.23,0.96,1.02,3.74,-13.94
0.005510,0.44,0.23,0.96,0.21,5.86,-15.24
0.005530,0.46,0.23,0.96,0.56,3.79,-14.92
0.005540,0.46,0.23,0.98,1.36,-1.57,-13.08
0.005550,0.46,0.22,1.00,1.69,-3.86,-11.02
0.005570,0.46,0.23,1.00,0.23,1.65,-9.11
0.005580,0.43,0.23,0.98,-1.33,5.62,-7.44
0.005590,0.42,0.24,0.97,-2.89,8.95,-5.16
0.005610,0.40,0.23,0.94,-4.02,5.05,-4.79
0.005620,0.40,0.22,0.93,-3.86,0.61,-4.40
0.005630,0.40,0.21,0.93,-3.60,-1.53,-4.67
0.005650,0.39,0.22,0.95,-3.44,-0.02,-4.43
0.005660,0.39,0.22,0.96,-2.75,1.53,-4.35
0.005670,0.38,0.21,0.98,-1.66,1.97,-4.46
0.005690,0.40,0.21,1.02,-1.76,0.60,-4.32
0.005700,0.41,0.22,1.04,-0.43,0.00,-3.30
0.005710,0.42,0.22,1.05,1.10,-0.03,-1.25
0.005730,0.40,0.22,1.04,2.41,-2.32,-0.50
0.005740,0.39,0.22,1.01,2.73,-3.97,-0.98
0.005750,0.41,0.22,1.00,2.63,-0.20,-0.08
0.005770,0.42,0.22,1.02,2.49,2.55,1.42
0.005780,0.41,0.22,1.04,3.21,3.80,3.08
0.005790,0.40,0.21,1.05,4.24,1.22,4.26
0.005810,0.40,0.21,1.05,4.52,-2.46,5.50
0.005820,0.39,0.21,1.03,4.00,-1.04,7.18
0.005830,0.37,0.21,1.03,3.27,1.85,8.43
0.005850,0.34,0.20,1.03,2.67,1.18,7.92
0.005860,0.32,0.20,1.06,2.14,-1.37,6.14
0.005870,0.34,0.19,1.06,1.37,-1.15,4.43
0.005880,0.36,0.20,1.05,0.24,1.60,3.86
0.005900,0.35,0.21,1.06,-0.89,2.73,4.73
0.005910,0.36,0.21,1.06,-0.75,1.59,5.79
0.005920,0.35,0.21,1.04,-0.29,1.02,7.01
0.005940,0.35,0.21,1.03,-0.66,3.62,8.12
0.005950,0.32,0.21,1.02,-1.92,3.68,8.09
0.005960,0.32,0.21,1.00,-1.27,1.74,7.30
0.005980,0.34,0.21,1.01,-1.66,1.86,6.14
0.005990,0.38,0.20,1.02,-2.38,2.96,7.18
0.006000,0.37,0.21,1.03,-1.94,3.48,9.05
0.006020,0.36,0.20,1.05,-1.39,5.83,10.93
0.006030,0.36,0.20,1.04,-2.24,6.55,11.60
0.006040,0.36,0.20,1.00,-1.98,7.94,13.89
0.006060,0.34,0.20,0.98,-2.23,7.50,11.79
0.006070,0.31,0.21,0.97,-1.57,5.25,12.40
0.006080,0.31,0.20,1.01,-2.11,2.15,9.21
0.006100,0.34,0.20,0.99,-1.42,-0.89,8.70
0.006110,0.35,0.20,0.98,-0.92,-2.85,8.20
0.006120,0.35,0.19,0.96,-0.84,-3.91,9.31
0.006140,0.34,0.20,0.96,-0.27,-1.86,9.91
0.006150,0.33,0.20,0.98,-1.60,2.61,11.02
0.006160,0.30,0.19,0.99,-2.63,3.37,10.72
0.006180,0.28,0.20,0.99,-3.07,1.76,8.11
0.006190,0.28,0.20,0.97,-4.55,-0.29,5.25
0.006200,0.28,0.20,0.95,-5.74,-2.47,1.50
0.006220,0.32,0.21,0.92,-7.11,-1.77,-2.89
0.006230,0.38,0.21,0.90,-7.59,-0.24,-3.40
0.006240,0.44,0.20,0.91,-5.97,0.31,-0.24
0.006260,0.46,0.21,0.93,-2.31,-3.19,4.32
0.006270,0.45,0.21,0.96,2.14,-5.27,9.40
0.006280,0.41,0.20,0.98,5.33,-8.34,12.93
0.006300,0.40,0.20,1.02,7.28,-6.40,15.36
0.006310,0.36,0.19,1.03,8.17,-2.56,17.24
0.006320,0.31,0.17,1.03,9.54,-1.04,17.97
0.006340,0.27,0.17,1.06,9.37,-0.31,16.37
0.006350,0.25,0.17,1.08,9.19,-2.72,14.84
0.006360,0.24,0.17,1.08,8.75,-4.89,12.03
0.006380,0.25,0.17,1.07,7.80,-3.54,10.49
0.006390,0.27,0.18,1.07,6.82,-2.17,10.69
0.006400,0.27,0.17,1.07,5.85,-1.44,10.64
0.006410,0.25,0.18,1.07,5.18,-3.27,10.08
0.006430,0.24,0.17,1.08,3.63,-5.28,8.76
0.006440,0.22,0.17,1.08,1.97,-6.50,6.78
0.006450,0.22,0.18,1.06,0.00,-7.11,3.11
0.006470,0.24,0.18,1.03,-2.70,-6.96,-0.38
0.006480,0.28,0.19,1.00,-4.27,-6.03,-3.59
0.006490,0.31,0.19,0.99,-4.27,-5.34,-3.44
0.006510,0.33,0.20,1.00,-4.06,-3.40,-3.44
0.006520,0.36,0.21,1.01,-4.99,-2.38,-2.84
0.006530,0.38,0.21,1.03,-4.93,-1.57,-1.34
0.006550,0.37,0.21,1.01,-4.21,-2.63,-0.43
0.006560,0.36,0.21,1.00,-2.55,-4.46,-0.38
0.006570,0.35,0.21,0.98,-2.26,-5.56,-2.09
0.006590,0.36,0.21,0.98,-1.79,-3.66,-2.82
0.006600,0.40,0.21,0.97,-1.42,0.11,-2.03
0.006610,0.40,0.21,0.98,-0.47,1.98,-0.44
0.006630,0.41,0.22,1.00,0.15,3.76,1.07
0.006640,0.40,0.22,1.00,0.29,4.40,2.18
0.006650,0.40,0.22,1.00,-0.11,4.02,3.47
0.006670,0.41,0.23,0.97,-0.93,3.48,5.10
0.006680,0.42,0.23,0.94,-1.01,3.63,7.01
