acce_x,acce_y,acce_z,gyro_x,gyro_y,gyro_z
0.07,-0.43,0.81,2.55,-5.91,1.19
0.08,-0.42,0.81,3.25,-3.53,1.13
0.08,-0.42,0.83,1.69,-3.66,1.79
0.09,-0.43,0.82,2.69,-2.52,1.62
0.09,-0.41,0.8,2.56,0.72,-1.65
0.09,-0.4,0.8,1.51,-0.5,-1.07
0.08,-0.4,0.78,0.41,-1.97,-0.6
0.08,-0.4,0.77,-0.47,-1.56,-0.24
0.09,-0.41,0.79,-5.05,-1.15,0.7
0.09,-0.42,0.79,-5.05,0.03,-0.2
0.1,-0.42,0.79,-4.95,1.71,-0.76
0.09,-0.43,0.8,-4.78,3.21,-1.45
0.07,-0.42,0.78,-0.31,3.57,-1.39
0.08,-0.42,0.79,0.21,5.05,-0.81
0.08,-0.41,0.8,-0.95,6.18,-0.79
0.09,-0.42,0.79,-0.4,8.81,-0.95
0.03,-0.48,0.73,1.21,7.02,-2.37
0.06,-0.42,0.82,-0.37,5.98,-0.95
0.06,-0.42,0.81,-1.18,5.68,-1.66
0.07,-0.42,0.83,-1.07,6.27,-0.9
0.04,-0.4,0.81,-4.66,5.1,1.95
0.06,-0.41,0.81,-6.09,1.94,0.76
0.05,-0.43,0.83,-6.37,-1.4,-0.38
0.04,-0.43,0.83,-5.21,-3.76,-1.66
0.06,-0.42,0.82,-3.57,5.36,-0.95
0.05,-0.42,0.79,-3.79,6.21,-0.05
0.04,-0.43,0.8,-3.59,5.16,0.87
0.03,-0.42,0.82,-3.59,0.35,2.2
0.08,-0.43,0.8,-1.77,-9.18,-0.09
0.07,-0.42,0.8,-2.08,-7.19,-0.66
0.08,-0.43,0.82,-2.37,-6.6,-1.22
0.07,-0.43,0.8,-1.98,-5.36,-1.88
0.07,-0.42,0.81,-3.74,-1.13,-1.28
0.06,-0.42,0.81,-3.5,-1.73,-1.07
0.08,-0.43,0.83,-3.59,-0.02,-0.55
0.07,-0.44,0.83,-3.24,1.54,-0.32
0.05,-0.42,0.81,0.27,-3.73,0.66
0.05,-0.42,0.8,-0.35,-5.18,0.11
0.06,-0.42,0.8,-1.25,-4.93,-0.63
0.06,-0.42,0.8,-1.4,-5.28,-0.27
0.11,-0.42,0.8,-1.11,0.63,0.64
0.09,-0.42,0.79,-1.51,0.98,-0.72
0.07,-0.43,0.79,-0.96,-0.24,-1.05
0.08,-0.42,0.8,-1.48,-0.53,-0.79
0.09,-0.41,0.83,-1.02,-7.07,-0.06
0.1,-0.42,0.81,-1.56,-3.92,-1.07
0.09,-0.42,0.83,-2.29,-2.79,-0.58
0.08,-0.43,0.83,-2.32,-3.71,-0.05
0.06,-0.44,0.8,-0.03,-11.39,-4.85
0.09,-0.41,0.88,-0.05,-13.65,-2.26
0.08,-0.44,0.82,1.18,-13.19,-3.68
0.09,-0.42,0.82,0.29,-11.54,-3.01
0.09,-0.43,0.82,-0.18,2.24,1.02
0.1,-0.43,0.82,0.7,4.0,0.81
0.09,-0.43,0.81,1.47,3.73,1.05
0.08,-0.43,0.82,1.21,1.53,1.4
0.09,-0.41,0.8,2.05,-3.92,0.23
0.09,-0.42,0.81,2.14,-3.54,0.53
0.1,-0.42,0.81,1.54,-2.35,0.08
0.11,-0.41,0.81,0.21,-0.24,-0.63
0.09,-0.41,0.81,-0.27,-0.87,-1.28
0.1,-0.41,0.81,-0.17,-0.49,-1.71
0.1,-0.42,0.81,0.08,0.79,-2.06
0.1,-0.43,0.81,0.6,1.97,-2.27
0.08,-0.41,0.8,-2.11,1.1,-0.99
0.08,-0.41,0.8,-1.91,0.2,-0.47
0.08,-0.42,0.81,-1.07,0.38,-0.32
0.09,-0.43,0.82,0.49,0.38,0.29
0.08,-0.44,0.82,14.85,-5.24,3.74
0.29,-0.41,0.75,6.4,28.96,-4.11
0.04,-0.44,0.79,13.88,-2.11,-2.14
0.13,-0.4,0.84,8.64,9.76,-3.73
0.09,-0.41,0.83,7.18,5.91,-7.1
0.09,-0.4,0.81,6.89,7.88,-6.37
0.07,-0.39,0.81,6.76,7.5,-4.53
0.07,-0.4,0.81,6.81,6.73,-3.69
0.07,-0.39,0.81,0.06,5.22,1.45
0.08,-0.38,0.82,-0.38,4.98,1.57
0.09,-0.39,0.81,-1.3,5.02,1.19
0.08,-0.39,0.83,-2.56,4.87,0.41
0.08,-0.4,0.84,0.05,-0.31,0.47
0.1,-0.39,0.85,0.53,-0.76,0.37
0.09,-0.4,0.84,1.5,-0.95,-0.23
0.09,-0.4,0.83,1.85,-0.84,-0.73
0.07,-0.39,0.83,2.98,0.55,-1.18
0.07,-0.39,0.82,2.98,0.09,-0.55
0.08,-0.38,0.81,2.92,0.63,-0.44
0.07,-0.38,0.82,2.15,-0.46,-0.11
0.08,-0.38,0.82,-0.67,0.75,1.73
0.09,-0.38,0.82,-0.67,2.84,1.4
0.09,-0.38,0.82,-0.84,2.69,1.48
0.08,-0.38,0.82,-0.43,2.2,1.19
0.08,-0.39,0.83,-2.63,-1.76,-1.27
0.08,-0.39,0.83,-1.91,0.14,-0.55
0.08,-0.39,0.83,-1.51,0.56,0.29
0.09,-0.38,0.83,-0.96,1.16,0.5
0.06,-0.39,0.82,-1.37,-3.04,-0.6
0.05,-0.38,0.81,-1.4,-4.2,0.08
0.06,-0.39,0.82,-1.57,-4.12,0.08
0.07,-0.39,0.83,-1.97,-4.73,1.21
0.11,-0.39,0.85,0.47,0.66,-0.15
0.11,-0.39,0.85,1.15,0.49,-0.64
0.1,-0.39,0.84,1.16,-0.37,-0.93
0.1,-0.38,0.82,1.1,-1.76,-1.83
0.09,-0.38,0.81,-1.91,0.46,-1.79
0.07,-0.37,0.81,-2.64,-0.89,-1.07
0.07,-0.38,0.82,-3.47,-1.86,-0.15
0.07,-0.38,0.82,-3.82,-1.97,0.49
0.07,-0.39,0.84,-2.75,-2.67,-1.15
0.08,-0.39,0.85,-1.76,-2.26,-0.63
0.07,-0.39,0.84,-0.93,-2.84,-0.37
0.09,-0.39,0.84,-1.24,-3.36,-0.35
0.08,-0.38,0.84,-0.18,0.56,-0.99
0.08,-0.38,0.82,-0.26,0.5,-0.95
0.08,-0.37,0.82,-0.32,0.43,-0.37
0.07,-0.38,0.82,-0.44,-0.98,0.0
0.09,-0.39,0.83,0.67,-5.34,-0.47
0.08,-0.38,0.82,1.05,-4.47,-0.2
0.1,-0.39,0.82,1.1,-3.42,-0.23
0.09,-0.38,0.81,0.43,-1.48,-0.58
0.09,-0.38,0.83,-1.8,-2.6,-2.4
0.08,-0.37,0.82,-1.34,-2.67,-2.11
0.08,-0.38,0.82,-2.6,-4.49,-1.39
0.1,-0.36,0.84,-2.08,-4.03,-1.69
0.1,-0.39,0.84,-0.53,2.12,-0.95
0.09,-0.39,0.83,0.87,2.23,-0.61
0.09,-0.39,0.83,1.16,2.6,-0.63
0.09,-0.38,0.82,0.69,3.08,-1.08
0.09,-0.38,0.82,0.02,-0.17,1.16
0.09,-0.38,0.82,-0.26,-0.27,0.95
0.09,-0.37,0.83,-0.27,-0.37,0.95
0.09,-0.37,0.83,-0.14,-0.61,1.3
0.11,-0.39,0.82,0.14,-2.12,0.9
0.09,-0.38,0.82,0.08,-3.5,0.79
0.1,-0.38,0.81,-0.15,-3.91,0.61
0.1,-0.37,0.81,-0.66,-3.62,-0.02
0.1,-0.39,0.84,-2.21,3.24,1.24
0.1,-0.38,0.83,-1.69,3.31,1.02
0.09,-0.38,0.83,-1.02,1.37,0.79
0.1,-0.38,0.82,-0.89,0.53,-0.05
0.1,-0.38,0.85,-0.79,-1.34,-0.47
0.1,-0.39,0.83,-0.55,-0.17,0.15
0.1,-0.38,0.84,-0.7,1.36,0.38
0.1,-0.38,0.83,-0.11,2.15,0.4
0.08,-0.38,0.83,0.21,-3.01,0.44
0.09,-0.38,0.83,-0.02,-3.95,0.7
0.1,-0.38,0.83,-0.52,-4.14,0.49
0.1,-0.38,0.82,-0.61,-3.01,0.43
0.1,-0.38,0.82,-1.95,2.47,0.41
0.09,-0.38,0.84,-1.91,-0.24,0.98
0.1,-0.39,0.83,-2.12,-0.58,0.09
0.1,-0.37,0.83,-2.67,-0.37,-0.63
0.09,-0.37,0.84,-0.14,0.85,0.29
0.09,-0.37,0.83,-0.49,1.13,0.96
0.09,-0.38,0.82,-0.12,1.45,1.05
0.09,-0.38,0.82,-0.09,1.18,1.28
0.1,-0.38,0.83,-2.44,-0.9,-0.26
0.1,-0.38,0.84,-1.92,0.31,-0.37
0.11,-0.38,0.84,-1.86,2.7,-0.84
0.11,-0.38,0.83,-1.3,3.3,-0.52
0.09,-0.37,0.82,-2.12,-1.18,-1.74
0.09,-0.37,0.82,-2.35,-0.96,-1.59
0.08,-0.37,0.83,-2.37,-1.34,-1.16
0.08,-0.37,0.82,-2.21,-1.65,-0.56
0.1,-0.38,0.83,-0.18,-0.34,0.5
0.1,-0.38,0.84,-0.34,-0.38,0.75
0.1,-0.38,0.83,-0.61,0.55,-0.69
0.08,-0.37,0.84,-1.07,0.75,-0.99
0.09,-0.37,0.84,-3.36,-0.43,0.41
0.08,-0.38,0.85,-2.79,0.06,0.35
0.07,-0.38,0.85,-2.46,0.05,0.64
0.09,-0.37,0.85,-1.88,0.76,0.41
0.04,-0.37,0.86,0.93,-1.88,3.45
0.04,-0.38,0.85,1.51,-2.5,4.92
0.05,-0.38,0.85,1.97,-1.16,6.06
0.04,-0.38,0.86,2.53,-1.07,7.71
-0.03,-0.39,0.87,5.74,10.98,16.76
-0.05,-0.38,0.87,5.05,10.35,20.37
-0.05,-0.38,0.87,5.13,9.74,23.8
-0.06,-0.36,0.88,4.6,11.82,26.66
-0.17,-0.4,0.95,5.44,4.49,47.53
-0.17,-0.4,0.98,7.5,-1.65,48.31
-0.16,-0.4,1.01,9.48,-9.1,47.79
-0.15,-0.4,1.01,12.21,-16.38,47.24
-0.12,-0.37,0.96,26.93,-10.49,47.01
-0.14,-0.36,0.95,27.95,-7.08,49.24
-0.17,-0.36,0.93,28.58,-7.86,52.12
-0.17,-0.35,0.93,27.62,-6.81,54.85
-0.2,-0.33,0.86,25.39,-26.38,69.69
-0.2,-0.33,0.87,24.46,-31.1,72.32
-0.17,-0.32,0.85,23.21,-32.98,75.11
-0.16,-0.34,0.87,22.53,-34.9,76.6
-0.1,-0.32,0.87,24.18,-28.63,77.04
-0.11,-0.31,0.86,23.98,-25.16,78.26
-0.13,-0.31,0.86,23.54,-22.99,80.12
-0.14,-0.31,0.84,22.58,-21.04,82.37
-0.23,-0.33,0.82,16.53,-36.17,97.65
-0.22,-0.34,0.82,15.24,-38.55,103.15
-0.2,-0.35,0.83,14.52,-40.98,107.57
-0.17,-0.37,0.85,14.84,-43.37,111.76
-0.09,-0.4,0.84,23.68,-52.41,101.85
-0.09,-0.39,0.82,23.57,-52.6,102.44
-0.07,-0.4,0.75,23.82,-53.42,103.79
-0.08,-0.38,0.85,24.12,-51.11,109.34
-0.06,-0.4,0.81,27.5,-35.91,120.26
-0.09,-0.4,0.79,27.05,-37.54,120.56
-0.09,-0.42,0.78,27.5,-41.44,121.02
-0.08,-0.42,0.77,26.93,-42.81,122.55
0.03,-0.44,0.75,32.73,-55.62,135.8
0.05,-0.44,0.76,32.79,-54.31,135.08
0.06,-0.43,0.75,32.87,-53.39,134.6
0.07,-0.43,0.74,32.14,-52.0,134.84
0.11,-0.45,0.77,31.63,-39.37,140.93
0.12,-0.44,0.74,30.96,-37.8,141.48
0.12,-0.43,0.72,30.26,-35.66,142.73
0.12,-0.43,0.73,29.79,-34.99,144.56
0.15,-0.46,0.72,31.16,-40.12,145.24
0.16,-0.45,0.71,29.6,-42.67,143.83
0.17,-0.44,0.69,27.39,-44.58,141.86
0.17,-0.44,0.68,24.17,-45.16,140.32
0.14,-0.47,0.78,14.21,-45.16,146.84
0.16,-0.47,0.79,14.99,-47.65,147.11
0.2,-0.49,0.81,16.67,-49.37,146.55
0.24,-0.49,0.83,18.78,-50.12,144.82
0.35,-0.43,0.78,24.32,-30.72,143.13
0.36,-0.43,0.79,22.64,-29.19,142.85
0.39,-0.43,0.81,21.22,-30.02,140.38
0.42,-0.44,0.81,20.84,-31.8,137.13
0.46,-0.38,0.77,21.36,-31.15,121.51
0.47,-0.38,0.78,19.01,-24.38,119.85
0.46,-0.38,0.8,16.69,-19.77,117.89
0.47,-0.38,0.8,16.0,-17.36,115.71
0.47,-0.36,0.81,20.12,-26.99,96.05
0.45,-0.35,0.8,19.34,-27.71,92.64
0.45,-0.33,0.8,16.53,-27.53,91.56
0.46,-0.32,0.79,14.24,-25.91,91.39
0.55,-0.34,0.82,10.9,-21.48,74.82
0.56,-0.34,0.82,11.89,-16.87,69.85
0.55,-0.33,0.83,13.73,-13.97,66.02
0.55,-0.3,0.81,14.69,-9.33,62.9
0.58,-0.26,0.79,2.0,-18.32,43.16
0.61,-0.27,0.81,1.4,-18.67,39.94
0.64,-0.27,0.82,1.65,-16.26,36.17
0.67,-0.28,0.81,2.24,-11.48,31.22
0.63,-0.29,0.79,5.37,7.13,5.94
0.63,-0.28,0.78,4.78,6.35,2.55
0.64,-0.27,0.77,3.85,3.88,-1.8
0.65,-0.28,0.76,2.32,0.99,-6.34
0.74,-0.25,0.69,-3.79,-0.17,-26.11
0.77,-0.25,0.67,-6.99,0.55,-31.05
0.8,-0.25,0.66,-11.62,1.57,-37.22
0.81,-0.27,0.65,-17.27,2.11,-44.85
0.72,-0.41,0.78,-30.99,19.27,-86.31
0.68,-0.42,0.8,-30.78,26.53,-91.73
0.63,-0.43,0.8,-30.49,32.17,-96.5
0.57,-0.44,0.82,-30.6,35.82,-101.33
0.39,-0.45,0.81,-28.66,21.51,-111.95
0.41,-0.45,0.78,-28.02,18.32,-113.04
0.44,-0.45,0.77,-27.37,16.81,-115.45
0.46,-0.44,0.76,-27.18,17.1,-119.59
0.42,-0.47,0.7,-33.18,37.13,-144.61
0.38,-0.47,0.71,-36.34,38.81,-147.6
0.35,-0.48,0.73,-38.5,39.22,-149.31
0.31,-0.49,0.74,-39.68,38.64,-149.48
0.28,-0.49,0.78,-30.03,48.72,-138.15
0.29,-0.49,0.77,-29.6,52.9,-138.32
0.29,-0.49,0.76,-30.5,56.79,-139.77
0.29,-0.49,0.76,-31.77,59.01,-141.8
0.24,-0.49,0.79,-34.9,50.96,-152.53
0.23,-0.49,0.8,-35.05,46.73,-154.73
0.21,-0.5,0.8,-35.71,42.23,-156.73
0.19,-0.5,0.79,-36.47,38.85,-157.07
0.16,-0.52,0.86,-35.85,54.82,-145.85
0.18,-0.53,0.84,-33.07,58.26,-147.08
0.19,-0.52,0.81,-29.63,57.85,-150.93
0.19,-0.51,0.79,-28.03,54.6,-155.89
0.09,-0.47,0.69,-43.68,28.79,-169.1
0.09,-0.47,0.71,-48.05,29.77,-167.01
0.07,-0.49,0.72,-50.4,33.25,-164.15
0.05,-0.5,0.74,-51.62,36.9,-160.6
0.05,-0.51,0.77,-39.76,43.27,-148.73
0.05,-0.49,0.75,-39.42,38.43,-148.96
0.06,-0.48,0.74,-41.74,34.38,-148.61
0.07,-0.48,0.75,-44.23,30.89,-148.89
0.02,-0.52,0.8,-46.24,54.95,-147.05
-0.02,-0.51,0.8,-44.99,58.41,-146.08
-0.06,-0.49,0.8,-44.84,58.37,-144.02
-0.09,-0.48,0.8,-45.05,56.09,-140.84
-0.1,-0.51,0.9,-38.49,58.18,-126.75
-0.14,-0.52,0.9,-33.22,59.83,-125.28
-0.18,-0.53,0.89,-27.47,56.92,-123.57
-0.22,-0.5,0.87,-23.51,50.61,-120.95
-0.18,-0.38,0.83,-24.73,18.78,-87.88
-0.13,-0.39,0.84,-26.37,23.57,-82.85
-0.11,-0.38,0.87,-27.95,30.23,-79.21
-0.09,-0.4,0.88,-27.68,36.96,-77.34
-0.15,-0.43,0.9,-5.6,15.42,-75.85
-0.15,-0.4,0.87,-4.14,9.45,-73.07
-0.15,-0.38,0.85,-4.37,6.56,-68.66
-0.16,-0.35,0.84,-5.82,6.98,-62.6
-0.1,-0.34,0.86,-15.22,25.51,-36.44
-0.1,-0.35,0.88,-14.29,25.98,-33.68
-0.1,-0.36,0.91,-12.21,22.41,-31.3
-0.11,-0.37,0.92,-8.89,18.08,-29.21
-0.02,-0.35,0.88,5.39,-1.42,-23.33
-0.0,-0.35,0.88,6.78,-1.79,-22.64
0.02,-0.34,0.85,7.83,-1.76,-22.32
0.03,-0.33,0.82,6.82,-0.53,-22.5
0.02,-0.3,0.86,-8.79,5.82,-16.73
0.01,-0.31,0.86,-9.05,7.57,-14.72
0.02,-0.31,0.87,-8.81,9.08,-12.21
0.02,-0.31,0.89,-8.4,10.89,-10.66
0.06,-0.34,0.94,3.42,5.19,-7.59
0.09,-0.35,0.91,5.3,3.56,-9.3
0.08,-0.33,0.88,6.49,3.02,-11.24
0.05,-0.31,0.87,6.87,2.44,-11.85
0.07,-0.3,0.87,-5.45,9.51,1.28
0.09,-0.32,0.91,-4.93,11.22,2.14
0.09,-0.34,0.92,-2.66,12.56,2.2
0.09,-0.34,0.92,0.18,12.32,1.86
0.08,-0.32,0.88,4.24,-3.16,-0.89
0.09,-0.31,0.88,4.37,-3.39,-0.15
0.11,-0.31,0.87,4.72,-2.73,0.87
0.11,-0.31,0.86,3.85,0.11,1.69
0.11,-0.33,0.86,4.67,1.74,0.18
0.1,-0.33,0.86,5.39,-2.06,-0.72
0.1,-0.32,0.84,5.86,-5.39,-1.4
0.1,-0.32,0.83,5.66,-7.39,-0.78
0.16,-0.31,0.84,-2.29,5.76,6.26
0.16,-0.31,0.84,-1.89,8.31,6.24
0.17,-0.32,0.85,-0.96,10.12,5.63
0.18,-0.33,0.86,0.9,9.31,3.89
0.13,-0.31,0.83,1.53,-7.22,-0.63
0.15,-0.31,0.83,0.92,-6.03,0.29
0.16,-0.31,0.82,0.69,-3.25,0.78
0.16,-0.3,0.82,0.08,-1.25,1.1
0.15,-0.31,0.83,-3.71,-1.31,0.72
0.16,-0.32,0.83,-3.01,-2.2,0.27
0.16,-0.32,0.82,-2.92,-2.47,-0.84
0.16,-0.32,0.83,-2.92,-3.02,-1.1
0.15,-0.3,0.81,-5.36,2.06,0.0
0.15,-0.31,0.82,-6.0,3.22,0.47
0.16,-0.31,0.84,-6.9,4.73,0.4
0.17,-0.32,0.85,-6.26,4.79,-0.02
0.16,-0.32,0.85,-3.44,0.17,-3.82
0.15,-0.32,0.84,-4.66,-0.49,-5.39
0.13,-0.32,0.85,-5.48,-1.13,-6.09
0.12,-0.32,0.85,-5.88,-1.97,-5.59
0.09,-0.33,0.87,-2.81,-1.3,-0.14
0.09,-0.33,0.86,-2.43,-2.0,0.55
0.09,-0.34,0.87,-1.98,-2.37,1.1
0.09,-0.33,0.87,-1.53,-3.88,1.48
0.13,-0.32,0.85,-1.02,-3.77,2.43
0.13,-0.32,0.86,-0.95,-3.63,2.6
0.14,-0.32,0.86,-0.37,-2.38,2.79
0.14,-0.32,0.86,0.02,-0.41,3.16
0.13,-0.32,0.85,0.92,0.75,4.38
0.14,-0.31,0.85,0.9,-0.26,4.49
0.16,-0.32,0.84,0.24,-0.64,3.07
0.17,-0.31,0.84,-0.14,1.1,2.35
0.16,-0.3,0.83,-1.08,8.08,1.08
0.17,-0.31,0.83,-2.0,8.7,0.23
0.16,-0.32,0.83,-3.11,9.24,-0.73
0.15,-0.33,0.84,-2.67,6.78,-0.98
0.14,-0.32,0.86,-2.79,5.16,0.05
0.14,-0.32,0.85,-3.69,8.18,-0.73
0.14,-0.32,0.86,-3.5,6.29,-0.29
0.14,-0.32,0.86,-3.74,5.71,-0.61
0.11,-0.33,0.86,-1.56,-1.48,-2.92
0.11,-0.33,0.85,-1.57,-1.53,-2.58
0.11,-0.33,0.86,-1.5,-1.73,-1.88
0.11,-0.33,0.86,-0.92,-2.81,-1.88
0.13,-0.32,0.85,0.69,-1.47,2.4
0.13,-0.33,0.85,0.66,-2.21,2.64
0.15,-0.33,0.85,1.15,-1.34,1.97
0.14,-0.32,0.86,1.71,-1.98,2.15
0.14,-0.31,0.84,0.55,-0.29,0.21
0.14,-0.32,0.84,-0.05,-1.4,-1.07
0.15,-0.31,0.82,-1.25,0.38,-2.06
0.12,-0.31,0.83,-1.34,-0.92,-1.77
0.1,-0.32,0.83,-0.12,-2.11,1.21
0.1,-0.32,0.83,-0.11,-3.01,2.47
0.1,-0.32,0.83,-0.58,-1.05,2.34
0.11,-0.32,0.83,0.21,-2.9,4.02
0.14,-0.31,0.86,-2.08,-3.92,2.32
0.15,-0.32,0.85,-1.25,-3.16,1.82
0.15,-0.31,0.85,-1.33,-2.15,0.92
0.15,-0.31,0.85,-0.43,-1.86,0.38
0.14,-0.31,0.84,-1.53,2.58,0.49
0.13,-0.31,0.84,-1.88,1.82,0.29
0.13,-0.3,0.83,-2.18,1.92,0.41
0.13,-0.3,0.83,-3.33,1.34,0.26
0.14,-0.32,0.86,-3.79,-1.44,0.46
0.15,-0.32,0.85,-3.89,-1.18,-1.08
0.14,-0.32,0.85,-3.28,-2.41,-2.03
0.14,-0.32,0.84,-3.27,-3.73,-2.05
0.16,-0.31,0.83,-4.75,1.97,-1.11
0.14,-0.32,0.83,-4.76,2.08,-1.45
0.15,-0.32,0.86,-4.76,2.58,-1.37
0.15,-0.32,0.85,-4.76,4.4,-2.84
0.13,-0.32,0.86,-0.89,5.71,-1.79
0.12,-0.32,0.86,-0.43,5.73,-1.44
0.11,-0.32,0.85,-0.23,4.14,-0.81
0.12,-0.31,0.85,-0.89,3.69,-0.78
0.12,-0.33,0.85,-2.29,-2.76,2.12
0.13,-0.33,0.86,-1.79,-4.24,2.81
0.14,-0.32,0.86,-1.53,-3.57,2.46
0.14,-0.32,0.86,-1.85,-1.31,1.74
0.14,-0.32,0.84,-0.6,-1.39,0.53
0.14,-0.32,0.84,-1.19,-1.59,0.89
0.14,-0.32,0.84,-1.73,-1.22,1.25
0.14,-0.32,0.84,-1.37,-1.08,1.31
0.15,-0.32,0.84,1.3,0.66,1.65
0.14,-0.31,0.88,0.53,-2.84,3.21
0.15,-0.31,0.85,-0.08,-1.48,1.31
0.15,-0.32,0.84,-0.15,-1.16,0.32
0.14,-0.32,0.84,-3.27,-0.38,-1.76
0.12,-0.32,0.85,-3.33,-1.51,-1.44
0.13,-0.32,0.84,-3.21,-1.59,-1.08
0.12,-0.32,0.85,-2.7,-1.77,-0.52
0.14,-0.32,0.86,1.3,-1.42,2.38
0.15,-0.31,0.84,0.64,0.69,0.95
0.14,-0.32,0.85,0.95,-0.06,0.84
0.15,-0.32,0.85,0.81,-0.38,0.35
0.12,-0.31,0.82,-3.71,-0.53,0.96
0.13,-0.31,0.84,-3.92,-1.59,1.28
0.13,-0.32,0.84,-3.4,-1.86,2.02
0.14,-0.32,0.86,-2.35,-2.26,2.38
0.15,-0.31,0.83,-2.18,-1.3,-1.97
0.15,-0.31,0.83,-2.92,0.14,-2.95
0.13,-0.3,0.83,-3.47,-0.76,-1.69
0.14,-0.32,0.84,-4.29,0.21,-2.05
0.12,-0.32,0.86,-2.78,-2.0,-0.5
0.13,-0.32,0.85,-1.97,-2.78,-0.46
0.13,-0.32,0.85,-1.88,-2.11,-0.52
0.13,-0.32,0.84,-1.62,-1.56,-0.53
0.13,-0.31,0.85,-1.79,2.66,1.1
0.12,-0.31,0.85,-1.82,2.34,1.19
0.12,-0.31,0.84,-2.09,1.45,1.53
0.15,-0.32,0.85,-1.37,1.56,0.6
0.12,-0.31,0.83,-1.62,-1.62,-0.18
0.14,-0.31,0.83,-2.85,-2.21,-0.29
0.14,-0.31,0.84,-3.68,-0.67,-1.01
0.13,-0.32,0.84,-3.74,-0.46,-0.47
0.14,-0.32,0.87,-1.44,2.75,-0.23
0.14,-0.32,0.86,-0.6,1.83,0.29
0.13,-0.33,0.85,-0.32,1.47,0.11
0.12,-0.32,0.84,0.18,-0.46,0.5
0.13,-0.32,0.85,-1.53,-1.66,2.64
0.13,-0.32,0.86,-1.37,-0.64,2.6
0.14,-0.32,0.84,-0.99,-0.56,2.6
0.16,-0.32,0.86,-1.04,0.47,1.95
0.15,-0.32,0.86,-2.08,0.7,-0.99
0.14,-0.32,0.85,-2.34,0.46,-1.4
0.14,-0.32,0.85,-2.69,0.11,-1.56
0.13,-0.32,0.84,-2.34,-0.27,-1.27
0.15,-0.32,0.84,-0.64,-3.21,0.72
0.16,-0.31,0.83,-1.94,-1.83,0.34
0.16,-0.32,0.84,-2.73,-1.27,0.05
0.15,-0.33,0.85,-3.45,-0.15,-0.35
0.13,-0.33,0.86,-2.18,2.23,-2.61
0.13,-0.33,0.85,-1.69,1.74,-2.18
0.12,-0.33,0.84,-0.67,0.78,-1.63
0.12,-0.32,0.84,0.0,-0.47,-0.63
0.14,-0.32,0.84,-1.97,-0.61,1.28
0.15,-0.32,0.85,-1.62,0.63,1.36
0.15,-0.32,0.85,-1.71,1.45,1.48
0.15,-0.32,0.85,-1.62,1.74,1.34
0.12,-0.32,0.85,-2.23,-0.72,-1.44
0.13,-0.33,0.85,-1.63,-0.31,-0.93
0.13,-0.33,0.85,-1.44,-0.46,-1.1
0.13,-0.32,0.85,-1.85,-1.1,-1.25
0.14,-0.31,0.84,-0.38,-0.27,0.29
0.15,-0.32,0.84,-0.78,0.78,0.34
0.15,-0.32,0.84,-1.37,2.4,0.12
0.14,-0.33,0.85,-1.18,3.13,0.34
0.11,-0.31,0.83,-1.36,-3.5,0.58
0.1,-0.32,0.85,-1.16,-4.2,1.66
0.11,-0.32,0.85,-1.05,-4.08,2.55
0.14,-0.32,0.84,-0.96,-2.93,3.42
0.16,-0.33,0.85,-0.76,-0.23,1.11
0.15,-0.32,0.85,-0.29,0.63,0.7
0.14,-0.32,0.85,-0.44,0.44,0.43
0.14,-0.32,0.85,0.21,0.89,0.61
0.12,-0.33,0.84,-1.62,-4.29,1.15
0.13,-0.33,0.85,-0.7,-4.41,1.79
0.13,-0.32,0.85,-0.43,-3.65,1.95
0.13,-0.32,0.84,-0.14,-2.56,1.88
0.15,-0.34,0.85,0.73,4.35,2.24
0.13,-0.33,0.85,1.69,3.91,1.94
0.11,-0.33,0.85,2.32,2.89,2.32
0.1,-0.32,0.83,2.12,1.4,2.44
0.1,-0.31,0.83,1.21,-2.92,5.54
0.12,-0.31,0.84,0.92,-3.56,5.73
0.14,-0.31,0.84,0.47,-4.05,5.89
0.16,-0.3,0.84,0.47,-3.01,5.76
0.18,-0.29,0.81,-2.76,-4.87,4.12
0.19,-0.29,0.81,-3.76,-2.7,3.34
0.21,-0.3,0.81,-4.34,0.03,1.63
0.21,-0.29,0.82,-4.69,2.64,0.31
