acce_x,acce_y,acce_z,gyro_x,gyro_y,gyro_z
0.02,-0.32,0.84,-1.31,0.95,0.31
0.02,-0.32,0.84,-1.79,0.96,0.06
0.02,-0.33,0.86,-1.66,0.24,-0.06
0.03,-0.32,0.85,-1.16,-0.24,-0.34
0.03,-0.32,0.84,-0.5,0.7,-1.13
0.03,-0.32,0.84,-0.72,1.18,-1.3
0.02,-0.32,0.85,-0.92,1.34,-1.47
0.02,-0.32,0.84,-0.85,1.36,-1.56
0.03,-0.32,0.85,-1.24,0.2,-1.51
0.02,-0.32,0.85,-1.36,0.15,-1.62
0.02,-0.33,0.85,-1.48,0.55,-1.45
0.02,-0.32,0.85,-1.13,0.63,-1.18
0.01,-0.32,0.85,0.24,0.58,-1.05
0.02,-0.32,0.84,0.03,0.32,-0.84
0.02,-0.32,0.84,-0.24,0.0,-1.01
0.02,-0.32,0.83,-1.1,-0.11,-1.01
0.01,-0.32,0.85,-1.62,-0.49,-1.79
0.01,-0.32,0.85,-1.18,-0.87,-2.03
0.01,-0.32,0.83,-1.24,-1.1,-1.92
0.01,-0.32,0.84,-0.81,-1.3,-1.91
0.01,-0.31,0.85,-2.24,0.41,-0.61
0.01,-0.32,0.85,-1.94,0.7,-0.38
0.01,-0.32,0.86,-1.39,0.79,-0.27
0.0,-0.32,0.86,-0.93,0.32,-0.18
0.01,-0.31,0.84,-0.53,-0.5,-0.53
0.0,-0.31,0.84,-0.96,-0.72,-0.47
0.0,-0.32,0.84,-1.22,-0.66,-0.43
0.01,-0.31,0.85,-1.37,-0.9,-0.17
0.02,-0.32,0.86,-0.17,-0.08,0.81
0.01,-0.32,0.86,0.32,-0.49,0.61
0.02,-0.31,0.85,0.37,-0.64,0.61
0.02,-0.32,0.85,-0.05,-0.87,0.84
0.02,-0.32,0.84,-0.29,1.34,0.72
0.03,-0.32,0.83,0.0,1.51,0.56
0.02,-0.31,0.84,0.0,1.44,0.61
0.01,-0.32,0.83,-0.03,1.8,0.7
0.02,-0.32,0.84,-2.52,-1.05,-0.26
0.03,-0.31,0.85,-2.34,-0.92,-0.5
0.02,-0.31,0.85,-1.77,-0.76,-0.23
0.03,-0.31,0.84,-1.51,-0.63,0.05
0.02,-0.31,0.83,-1.79,0.29,-0.89
0.02,-0.31,0.83,-1.76,-0.08,-0.84
0.02,-0.31,0.84,-1.83,-0.73,-0.99
0.02,-0.31,0.85,-1.79,-0.72,-1.19
0.02,-0.32,0.85,-1.89,-1.25,-0.81
0.01,-0.32,0.86,-1.25,-1.01,-0.6
0.02,-0.32,0.87,-0.73,-0.76,-0.47
0.01,-0.32,0.86,-0.43,-0.4,-0.53
0.01,-0.31,0.84,-2.9,0.02,0.15
0.02,-0.32,0.84,-2.82,-0.06,0.23
0.02,-0.32,0.86,-2.46,-0.24,0.38
0.02,-0.31,0.86,-1.8,-0.46,0.52
0.03,-0.31,0.84,-0.58,0.6,-0.49
0.02,-0.31,0.83,-1.04,0.78,-0.56
0.02,-0.31,0.83,-1.79,0.72,-0.49
0.01,-0.3,0.83,-2.21,0.03,-0.78
0.02,-0.32,0.85,-2.75,-0.21,-0.17
0.02,-0.32,0.86,-2.34,-0.08,-0.17
0.01,-0.33,0.85,-1.69,0.05,-0.11
0.01,-0.32,0.86,-1.59,-0.38,0.11
0.01,-0.32,0.87,-0.64,-0.55,0.49
0.02,-0.32,0.86,-0.12,-0.06,0.72
0.03,-0.32,0.85,0.67,0.41,0.41
0.02,-0.32,0.86,0.76,0.78,0.4
0.02,-0.31,0.83,-1.21,0.34,0.64
0.02,-0.31,0.83,-1.45,0.05,0.76
0.02,-0.31,0.84,-2.14,-0.35,0.87
0.01,-0.31,0.84,-2.79,-1.05,0.6
0.03,-0.32,0.87,-1.05,-0.69,0.58
0.02,-0.32,0.86,-0.53,-0.69,0.43
0.02,-0.31,0.85,-0.66,-0.26,0.52
0.02,-0.32,0.85,-0.92,0.03,0.96
0.02,-0.31,0.84,-1.53,-1.27,0.78
0.02,-0.32,0.84,-2.08,-1.51,0.76
0.03,-0.32,0.85,-2.34,-1.47,0.76
0.03,-0.32,0.85,-2.14,-1.24,0.43
0.02,-0.31,0.85,-1.83,-1.89,0.6
0.03,-0.32,0.84,-2.6,-1.6,0.66
0.03,-0.31,0.86,-2.89,-1.53,0.41
0.04,-0.32,0.86,-2.43,-0.6,0.21
0.02,-0.32,0.85,0.11,-0.05,0.15
0.02,-0.32,0.85,0.26,0.21,0.31
0.02,-0.32,0.84,0.5,0.63,0.18
0.03,-0.31,0.84,0.23,0.84,0.4
0.02,-0.31,0.86,-1.74,-1.62,0.38
0.03,-0.31,0.86,-1.4,-1.3,0.41
0.03,-0.32,0.85,-1.33,-1.02,0.14
0.03,-0.31,0.85,-1.18,-0.82,0.09
0.02,-0.31,0.85,-0.12,-0.89,-0.12
0.02,-0.32,0.85,-0.31,-0.29,0.02
0.03,-0.31,0.85,-0.31,0.18,-0.08
0.03,-0.31,0.84,-0.63,0.64,-0.14
0.03,-0.31,0.84,-2.87,-0.99,-0.49
0.03,-0.32,0.84,-2.96,-1.27,-0.37
0.02,-0.31,0.85,-2.27,-1.25,-0.29
0.03,-0.32,0.86,-1.63,-1.25,-0.29
0.03,-0.31,0.84,-1.02,0.49,-0.64
0.02,-0.31,0.84,-1.31,-0.18,-0.63
0.02,-0.31,0.85,-1.47,-0.7,-0.29
0.03,-0.32,0.85,-1.5,-0.64,-0.18
0.02,-0.31,0.83,-1.89,1.3,-0.21
0.01,-0.3,0.81,-2.66,0.82,-0.08
0.02,-0.31,0.83,-3.36,-0.09,0.12
0.02,-0.31,0.82,-4.11,-0.82,0.27
0.03,-0.32,0.86,-1.42,0.14,-0.55
0.03,-0.32,0.85,-1.21,0.5,-0.58
0.03,-0.31,0.84,-1.24,0.98,-0.58
0.03,-0.31,0.84,-2.14,0.87,-0.4
0.03,-0.32,0.86,-2.47,0.78,-0.64
0.03,-0.31,0.86,-2.41,1.04,-0.64
0.03,-0.31,0.85,-2.21,1.25,-0.95
0.02,-0.31,0.85,-2.4,1.02,-0.9
0.02,-0.32,0.85,-3.16,-1.53,-0.58
0.02,-0.31,0.85,-3.36,-1.44,-0.56
0.02,-0.32,0.85,-3.31,-1.16,-0.58
0.02,-0.32,0.86,-3.16,-1.05,-0.37
0.03,-0.32,0.86,-1.5,-0.72,0.14
0.03,-0.32,0.86,-1.1,-0.09,0.17
0.03,-0.32,0.84,-1.33,-0.24,0.15
0.03,-0.32,0.86,-1.5,-0.17,-0.05
0.03,-0.31,0.85,-1.31,0.09,-0.35
0.02,-0.32,0.85,-1.69,0.08,-0.27
0.02,-0.32,0.85,-2.06,-0.18,-0.24
0.02,-0.32,0.85,-2.11,-0.61,-0.34
0.03,-0.32,0.85,-0.55,0.15,0.02
0.04,-0.32,0.85,-0.05,0.66,0.11
0.03,-0.32,0.84,-0.05,0.93,0.06
0.03,-0.31,0.84,-0.05,1.1,-0.06
0.03,-0.32,0.84,-2.43,0.27,0.38
0.02,-0.32,0.84,-2.47,-0.02,0.21
0.02,-0.32,0.84,-2.26,-0.41,0.11
0.02,-0.32,0.85,-1.91,-0.81,0.12
0.03,-0.31,0.84,-1.24,-1.82,0.02
0.03,-0.32,0.84,-1.07,-1.39,0.08
0.03,-0.32,0.84,-1.5,-1.47,-0.05
0.03,-0.32,0.86,-1.74,-0.76,0.03
0.02,-0.31,0.83,-0.7,0.78,0.21
0.02,-0.31,0.82,-1.42,0.26,-0.02
0.03,-0.31,0.83,-2.11,-0.11,0.23
0.03,-0.32,0.84,-2.64,-0.41,0.15
0.03,-0.32,0.86,-0.95,-0.72,0.61
0.04,-0.31,0.85,-0.15,-0.7,0.75
0.04,-0.31,0.84,-0.4,-0.38,0.12
0.04,-0.31,0.84,-1.1,-0.61,-0.27
0.03,-0.32,0.85,-2.85,-1.08,-0.52
0.03,-0.32,0.85,-1.94,-0.69,-0.37
0.03,-0.33,0.85,-1.07,-0.08,0.0
0.02,-0.32,0.84,-1.02,0.14,0.02
0.01,-0.31,0.82,-4.75,-3.28,0.56
0.02,-0.32,0.83,-5.01,-3.85,1.16
0.03,-0.32,0.84,-4.99,-2.7,1.34
0.04,-0.32,0.86,-4.58,-1.51,0.92
0.03,-0.32,0.85,-2.69,-0.56,-0.26
0.02,-0.32,0.84,-2.69,-1.02,0.02
0.02,-0.32,0.85,-2.37,-0.89,0.55
0.02,-0.33,0.85,-2.27,0.24,0.99
0.03,-0.32,0.85,-3.08,0.4,0.58
0.03,-0.32,0.85,-3.11,-0.9,0.12
0.03,-0.32,0.84,-3.1,-1.1,0.05
0.02,-0.33,0.84,-3.31,-1.74,0.12
0.03,-0.33,0.86,-2.63,1.63,0.11
0.03,-0.33,0.87,-2.11,1.3,0.2
0.03,-0.33,0.85,-1.6,1.4,0.26
0.02,-0.33,0.85,-1.54,0.56,0.31
0.03,-0.33,0.85,-1.71,0.87,0.82
0.03,-0.33,0.87,-1.34,0.67,0.9
0.03,-0.32,0.86,-0.7,0.35,0.92
0.04,-0.32,0.86,-0.87,-0.11,0.53
0.03,-0.33,0.85,-1.48,-0.11,1.05
0.03,-0.33,0.86,-1.1,0.96,1.21
0.04,-0.33,0.86,-0.15,1.6,0.96
0.04,-0.33,0.86,0.31,1.63,0.72
0.03,-0.32,0.83,-0.85,0.47,0.0
0.03,-0.32,0.83,-1.34,1.22,0.11
0.03,-0.32,0.83,-1.5,1.53,0.46
0.03,-0.32,0.83,-1.68,2.64,0.61
0.02,-0.32,0.83,-2.67,-0.79,-0.26
0.03,-0.32,0.84,-3.1,-1.44,-0.09
0.04,-0.33,0.85,-2.95,-0.56,-0.37
0.03,-0.33,0.86,-2.08,0.46,-0.37
0.02,-0.32,0.84,-1.65,2.27,-0.63
0.02,-0.32,0.83,-2.31,1.6,-0.56
0.01,-0.32,0.84,-3.19,0.31,-0.2
0.02,-0.32,0.86,-3.68,-0.53,0.06
0.05,-0.34,0.93,1.57,1.18,-1.68
0.05,-0.34,0.94,2.95,1.02,-2.52
0.05,-0.35,0.95,4.95,-0.7,-4.02
0.04,-0.34,0.95,6.95,-2.78,-4.7
0.06,-0.33,0.97,10.67,2.82,-1.1
0.06,-0.33,1.0,10.7,5.11,-1.48
0.07,-0.34,1.03,11.08,6.72,-2.52
0.09,-0.35,1.06,13.1,6.6,-5.04
0.03,-0.35,1.07,39.4,7.11,-14.17
-0.06,-0.31,1.02,38.41,6.37,-12.61
-0.01,-0.37,1.09,41.97,9.5,-6.93
-0.03,-0.34,1.05,41.02,14.21,-3.79
-0.03,-0.37,1.17,56.02,11.97,4.08
-0.03,-0.37,1.18,62.99,10.34,4.02
-0.05,-0.36,1.21,68.82,6.85,5.25
-0.01,-0.34,1.21,74.67,8.55,5.53
0.03,-0.28,1.2,100.4,16.63,7.62
0.02,-0.27,1.18,102.4,21.36,8.76
0.02,-0.25,1.16,104.23,25.15,9.34
0.01,-0.22,1.13,104.35,29.45,9.94
-0.04,-0.15,1.14,107.3,17.42,15.69
-0.02,-0.14,1.13,110.49,14.76,15.6
-0.02,-0.14,1.13,114.87,12.37,14.26
-0.01,-0.13,1.12,117.22,9.54,13.63
-0.03,-0.06,1.03,123.88,23.08,17.01
-0.05,-0.04,1.0,125.4,23.79,16.4
-0.07,-0.02,0.95,126.35,25.54,16.03
-0.09,0.01,0.89,125.07,26.61,15.88
-0.09,0.12,0.81,105.98,-3.51,22.35
-0.07,0.13,0.81,103.37,-9.83,21.56
-0.05,0.14,0.83,102.18,-13.88,19.6
-0.04,0.16,0.82,101.74,-16.26,17.69
-0.02,0.26,0.77,94.53,-17.27,8.08
-0.03,0.26,0.79,91.89,-15.6,6.82
-0.05,0.26,0.8,91.19,-13.42,8.06
-0.06,0.26,0.81,91.34,-10.49,9.47
-0.02,0.28,0.8,87.92,0.49,14.47
-0.02,0.26,0.81,90.87,-0.96,13.25
-0.03,0.29,0.8,93.31,-3.68,12.98
-0.04,0.3,0.78,96.0,-6.63,12.34
-0.08,0.36,0.64,95.27,-19.39,14.24
-0.07,0.36,0.64,95.16,-21.56,15.89
-0.05,0.37,0.65,93.68,-22.2,17.08
-0.04,0.39,0.65,95.5,-24.5,17.63
0.01,0.46,0.57,93.86,-35.8,11.83
0.06,0.43,0.6,95.56,-28.63,14.76
0.04,0.45,0.57,91.97,-26.18,14.61
0.05,0.46,0.58,90.76,-21.54,14.75
0.05,0.53,0.52,85.11,-5.65,14.98
0.05,0.53,0.53,83.51,-5.04,14.53
0.11,0.54,0.55,81.79,-1.76,12.92
0.19,0.54,0.6,81.94,6.5,10.73
0.09,0.58,0.58,92.55,55.5,4.53
0.05,0.62,0.55,93.45,47.51,4.02
0.01,0.6,0.53,93.36,32.95,3.68
-0.02,0.61,0.52,95.82,19.07,4.12
-0.08,0.71,0.3,91.85,-58.12,11.44
-0.06,0.7,0.3,89.08,-67.68,13.53
-0.03,0.7,0.29,86.72,-72.53,14.82
0.01,0.72,0.26,84.08,-68.79,15.59
0.04,0.73,0.22,63.89,4.35,15.97
0.07,0.73,0.23,60.14,7.92,14.93
0.05,0.76,0.22,56.32,1.98,13.82
0.03,0.75,0.23,53.16,-0.12,12.9
0.01,0.76,0.23,61.77,-34.26,22.75
0.02,0.77,0.23,61.27,-31.51,25.15
0.05,0.77,0.22,60.49,-26.14,25.44
0.06,0.79,0.2,59.34,-19.59,25.53
0.11,0.83,0.16,57.79,-12.55,23.18
0.11,0.84,0.15,57.18,-16.17,22.2
0.1,0.85,0.13,56.23,-21.02,21.8
0.11,0.86,0.1,53.89,-26.53,22.11
0.2,0.84,0.21,33.21,-32.56,15.48
0.23,0.84,0.23,35.39,-24.32,15.02
0.25,0.83,0.28,39.02,-13.76,13.48
0.24,0.82,0.29,43.6,-4.27,12.11
0.1,0.82,0.23,70.02,-9.3,12.56
0.09,0.82,0.2,71.08,-18.17,13.08
0.08,0.84,0.15,72.85,-26.75,15.77
0.1,0.85,0.15,72.58,-28.7,18.85
0.11,0.88,0.04,81.28,-12.46,34.35
0.14,0.88,0.04,84.41,-11.05,38.09
0.19,0.89,0.01,84.35,-11.24,39.22
0.21,0.9,-0.03,83.27,-14.89,36.53
0.34,0.95,-0.14,73.94,-33.66,24.61
0.36,0.96,-0.18,64.43,-25.8,22.73
0.35,0.95,-0.19,54.32,-15.89,20.0
0.33,0.94,-0.19,48.89,-7.79,18.03
0.2,0.86,-0.11,38.46,8.52,6.99
0.17,0.87,-0.1,40.56,2.5,8.44
0.16,0.85,-0.07,47.11,-3.33,11.5
0.18,0.86,-0.07,52.02,-7.27,13.27
0.25,0.92,-0.18,41.95,-7.59,21.69
0.26,0.93,-0.21,35.69,-6.02,22.27
0.31,0.94,-0.2,30.35,-6.23,22.43
0.35,0.94,-0.19,24.98,-5.51,17.8
0.38,0.9,-0.13,35.77,1.04,3.11
0.37,0.89,-0.11,39.88,4.73,2.43
0.36,0.92,-0.12,40.69,6.93,1.45
0.35,0.92,-0.15,40.99,9.54,-0.23
0.23,0.95,-0.33,19.62,9.69,8.03
0.21,0.94,-0.33,17.74,3.45,9.56
0.23,0.93,-0.31,16.61,-0.85,11.59
0.24,0.93,-0.31,15.6,-6.69,12.61
0.43,0.92,-0.24,7.94,4.93,-3.19
0.41,0.92,-0.24,7.91,7.91,-4.93
0.4,0.93,-0.23,7.69,10.26,-6.67
0.38,0.93,-0.24,6.78,11.54,-8.85
0.24,0.94,-0.26,1.85,6.79,-5.73
0.23,0.93,-0.25,0.92,3.36,-4.85
0.22,0.93,-0.25,-0.11,0.44,-3.15
0.23,0.92,-0.23,-0.34,-3.63,-1.86
0.31,0.93,-0.25,7.88,4.43,1.66
0.32,0.94,-0.28,6.31,8.58,1.5
0.33,0.95,-0.3,3.76,11.48,0.63
0.33,0.95,-0.32,0.56,12.38,-0.99
0.27,0.91,-0.28,-3.04,10.66,-4.47
0.26,0.92,-0.31,-3.85,10.61,-3.92
0.25,0.93,-0.32,-5.24,10.75,-3.83
0.25,0.93,-0.33,-7.11,10.81,-3.71
0.25,0.92,-0.31,-26.89,22.12,-8.99
0.24,0.93,-0.33,-30.14,21.76,-8.78
0.23,0.93,-0.32,-34.18,19.34,-8.31
0.22,0.92,-0.32,-37.3,15.63,-8.2
0.26,0.89,-0.28,-42.73,11.82,-10.03
0.25,0.89,-0.29,-42.89,15.73,-8.98
0.24,0.9,-0.3,-44.35,18.93,-7.42
0.22,0.89,-0.31,-46.43,20.75,-6.0
0.3,0.89,-0.3,-55.57,10.85,-6.63
0.3,0.89,-0.33,-57.15,10.21,-10.05
0.3,0.89,-0.33,-61.34,11.08,-13.74
0.28,0.89,-0.34,-67.37,12.09,-14.67
0.33,0.83,-0.18,-79.74,8.18,-23.95
0.32,0.83,-0.2,-78.7,9.22,-26.96
0.31,0.83,-0.21,-81.18,14.5,-30.92
0.25,0.81,-0.21,-80.87,18.92,-32.58
0.05,0.85,-0.23,-121.34,24.96,-24.34
0.11,0.81,-0.14,-125.71,-1.39,-22.18
0.26,0.81,-0.09,-129.74,-5.02,-23.1
0.36,0.79,-0.01,-131.48,-2.17,-27.01
0.25,0.72,0.02,-105.28,47.54,-43.45
0.23,0.71,0.02,-109.45,50.9,-44.69
0.21,0.72,0.02,-113.68,51.6,-45.13
0.2,0.72,0.02,-119.89,49.73,-46.24
0.07,0.66,0.08,-141.65,28.46,-57.79
0.03,0.65,0.1,-137.92,27.86,-56.78
-0.03,0.64,0.1,-132.63,26.05,-53.83
-0.06,0.66,0.11,-127.5,19.5,-46.17
0.16,0.6,0.28,-145.95,-0.63,-26.92
0.19,0.56,0.32,-146.43,-0.49,-30.73
0.19,0.57,0.3,-149.57,1.08,-35.27
0.17,0.49,0.38,-147.34,-1.8,-42.52
-0.02,0.47,0.41,-151.51,26.44,-41.4
0.0,0.46,0.46,-154.23,29.1,-36.72
0.03,0.45,0.49,-158.15,29.3,-35.83
0.04,0.43,0.51,-160.72,27.31,-37.37
-0.1,0.31,0.57,-162.09,29.68,-56.24
-0.12,0.31,0.57,-162.72,27.73,-55.19
-0.13,0.29,0.62,-162.43,21.62,-52.24
-0.13,0.26,0.68,-160.24,12.24,-47.68
-0.1,0.15,0.8,-151.66,-0.98,-42.53
-0.11,0.14,0.81,-151.62,0.89,-40.79
-0.12,0.12,0.83,-149.94,1.77,-38.56
-0.14,0.11,0.84,-149.6,1.88,-36.58
-0.11,0.01,1.0,-146.85,-6.09,-27.51
-0.1,-0.0,1.04,-142.95,-5.33,-24.56
-0.1,-0.01,1.06,-137.62,-1.48,-21.76
-0.09,-0.02,1.04,-133.45,3.8,-21.18
-0.11,-0.07,1.03,-122.43,0.27,-21.57
-0.1,-0.1,1.02,-120.34,-4.93,-23.19
-0.11,-0.12,1.03,-117.98,-8.47,-24.92
-0.12,-0.13,1.02,-116.14,-12.21,-25.51
-0.08,-0.15,1.01,-108.56,-30.21,-7.37
0.0,-0.18,1.04,-102.99,-29.51,-8.03
0.05,-0.18,1.07,-101.45,-27.11,-9.1
0.08,-0.19,1.08,-99.86,-23.8,-11.79
-0.1,-0.25,0.95,-91.4,-21.08,-17.04
-0.13,-0.26,0.95,-92.14,-23.83,-12.31
-0.11,-0.26,0.96,-94.32,-24.87,-6.76
-0.07,-0.28,1.0,-95.4,-26.56,-1.94
0.02,-0.33,1.04,-82.76,-19.18,-10.66
-0.05,-0.33,1.01,-79.3,-21.56,-10.76
-0.08,-0.32,0.98,-78.23,-20.92,-6.64
-0.05,-0.32,0.98,-78.52,-19.19,-1.02
0.12,-0.35,1.04,-80.46,20.96,-3.21
0.08,-0.36,1.05,-78.05,26.18,-5.82
0.03,-0.38,1.04,-74.81,25.31,-7.25
-0.02,-0.39,1.05,-70.75,19.91,-7.54
0.1,-0.4,1.12,-54.47,-10.58,-6.29
0.08,-0.4,1.12,-52.09,-7.3,-8.29
0.06,-0.41,1.13,-48.52,-2.92,-8.69
0.04,-0.42,1.12,-44.58,1.59,-7.92
0.02,-0.41,1.06,-35.47,2.24,-2.32
0.02,-0.41,1.06,-34.73,0.82,-2.29
0.02,-0.42,1.08,-31.8,-2.76,-1.95
0.02,-0.43,1.1,-28.08,-5.44,-3.07
0.04,-0.42,1.07,-13.34,5.18,-2.34
0.03,-0.41,1.05,-12.21,9.62,-2.29
0.02,-0.4,1.05,-10.76,13.88,-2.44
0.01,-0.4,1.02,-10.66,15.48,-1.74
-0.02,-0.4,0.95,-6.52,-3.27,1.11
-0.01,-0.39,0.93,-6.46,-4.24,1.45
0.01,-0.39,0.93,-6.96,-3.22,2.03
0.01,-0.4,0.95,-4.49,-3.48,2.32
0.0,-0.39,0.88,8.79,-13.54,0.41
0.01,-0.39,0.87,10.24,-14.38,-0.27
0.01,-0.4,0.85,10.08,-13.27,-0.75
0.01,-0.39,0.85,9.83,-9.86,-0.58
-0.05,-0.38,0.78,-3.98,6.61,1.83
-0.05,-0.39,0.8,-4.64,5.74,2.37
-0.05,-0.39,0.81,-4.76,4.72,2.99
-0.03,-0.4,0.84,-3.89,2.82,3.57
0.0,-0.41,0.87,7.42,5.39,0.06
-0.01,-0.41,0.87,8.69,4.99,-0.21
-0.01,-0.41,0.87,9.34,4.81,-0.26
-0.02,-0.4,0.86,9.07,5.56,0.08
-0.03,-0.4,0.88,7.18,3.88,4.6
-0.02,-0.41,0.89,8.75,3.56,6.49
-0.01,-0.4,0.9,10.47,4.31,6.93
0.0,-0.4,0.9,12.11,5.07,7.79
0.01,-0.36,0.84,11.1,-3.25,7.36
0.01,-0.36,0.83,9.86,-4.06,7.48
0.01,-0.34,0.82,8.73,-5.13,7.39
0.01,-0.34,0.82,7.24,-5.21,7.3
0.03,-0.33,0.83,7.07,-8.18,4.66
0.04,-0.33,0.83,7.3,-8.81,3.94
0.03,-0.33,0.82,7.44,-8.73,3.44
0.02,-0.33,0.83,8.24,-9.28,3.04
0.02,-0.31,0.8,2.9,-5.42,2.34
0.02,-0.32,0.78,1.42,-3.77,1.94
0.02,-0.33,0.79,0.26,-2.31,1.34
0.02,-0.33,0.79,-1.18,-0.66,0.76
-0.04,-0.35,0.81,-4.47,2.95,1.07
-0.03,-0.34,0.8,-4.32,3.37,1.63
-0.02,-0.34,0.8,-4.99,3.85,1.82
-0.01,-0.34,0.81,-5.42,4.75,1.82
-0.03,-0.34,0.83,-3.39,2.11,-1.65
-0.01,-0.34,0.82,-3.98,2.99,-1.25
-0.02,-0.35,0.84,-4.99,4.24,-1.07
-0.03,-0.35,0.84,-5.88,4.35,-0.98
-0.04,-0.37,0.86,-1.53,-2.0,1.59
-0.03,-0.36,0.86,-0.78,-3.28,1.68
-0.02,-0.36,0.85,-1.21,-3.37,2.09
-0.01,-0.36,0.85,-2.15,-2.47,2.17
0.02,-0.36,0.87,-2.52,6.49,2.99
0.03,-0.37,0.88,-1.89,7.27,2.06
0.02,-0.36,0.87,-1.5,8.15,1.1
0.02,-0.37,0.87,-0.96,8.63,0.12
-0.02,-0.36,0.86,1.82,-1.59,1.44
-0.03,-0.36,0.85,2.7,-2.24,2.0
-0.01,-0.36,0.86,3.47,-1.24,2.6
-0.01,-0.36,0.86,4.27,-0.06,2.55
-0.01,-0.34,0.82,2.76,-0.34,0.93
-0.01,-0.35,0.81,1.74,0.5,0.98
-0.01,-0.35,0.81,0.98,1.57,1.73
-0.01,-0.36,0.82,0.92,2.5,2.26
0.02,-0.35,0.85,3.68,4.44,1.53
0.02,-0.35,0.84,4.12,4.35,0.66
-0.01,-0.35,0.83,4.29,3.57,-0.09
-0.02,-0.35,0.82,4.37,2.12,0.03
-0.01,-0.34,0.83,4.89,-1.3,2.99
-0.0,-0.33,0.83,4.64,-0.21,2.9
0.0,-0.34,0.82,4.03,0.99,2.61
-0.0,-0.33,0.82,3.51,1.6,2.11
0.01,-0.32,0.83,1.11,-1.73,3.1
0.02,-0.32,0.84,0.46,0.63,1.98
0.02,-0.32,0.84,0.7,2.96,0.82
0.01,-0.32,0.84,0.63,4.75,0.14
-0.06,-0.32,0.82,-0.08,0.56,-0.09
-0.05,-0.32,0.82,-1.04,-1.66,0.24
-0.05,-0.32,0.83,-1.95,-4.06,0.27
-0.05,-0.32,0.85,-2.26,-4.41,0.98
-0.07,-0.32,0.82,-0.6,0.37,2.5
-0.06,-0.32,0.83,-0.56,-0.03,3.5
-0.06,-0.32,0.83,-1.3,0.23,3.89
-0.05,-0.32,0.83,-1.79,0.11,4.53
-0.04,-0.32,0.84,-0.41,-2.02,4.26
-0.02,-0.32,0.84,-1.08,-0.93,4.17
-0.03,-0.32,0.84,-1.5,0.08,4.0
-0.04,-0.32,0.83,-1.95,1.07,3.71
-0.06,-0.33,0.84,-1.4,-2.35,5.31
-0.05,-0.33,0.84,-0.95,-2.44,5.68
-0.04,-0.33,0.84,-0.87,-1.85,5.94
-0.04,-0.32,0.83,-1.25,-1.25,6.53
-0.01,-0.31,0.84,-3.37,-3.22,7.31
-0.01,-0.32,0.84,-3.16,-3.89,7.07
0.0,-0.32,0.86,-3.04,-3.59,6.87
-0.0,-0.32,0.85,-2.82,-2.76,6.38
-0.01,-0.32,0.85,-0.64,-5.79,4.87
-0.03,-0.32,0.85,0.56,-6.09,5.05
-0.02,-0.32,0.83,1.27,-6.21,5.82
-0.02,-0.3,0.83,1.08,-6.38,6.26
-0.01,-0.28,0.82,1.45,-2.0,6.58
-0.01,-0.27,0.81,1.3,-3.01,6.5
-0.03,-0.27,0.79,0.08,-3.54,6.6
-0.03,-0.27,0.79,-0.76,-4.56,6.85
-0.01,-0.28,0.83,-3.85,-2.29,4.66
-0.01,-0.29,0.84,-3.3,-1.86,4.93
-0.03,-0.29,0.85,-2.09,-1.73,5.16
-0.03,-0.29,0.84,-0.61,-1.8,5.66
-0.03,-0.32,0.84,1.19,-9.18,4.08
-0.02,-0.33,0.84,0.23,-7.51,5.19
-0.02,-0.34,0.86,-0.38,-6.02,5.89
-0.01,-0.35,0.86,-0.66,-2.4,6.09
-0.02,-0.35,0.88,0.6,-0.76,8.37
-0.01,-0.35,0.89,1.02,-1.74,9.1
0.0,-0.36,0.9,1.48,-3.39,9.51
0.02,-0.35,0.92,1.59,-4.46,9.39
0.0,-0.32,0.9,5.15,-5.62,3.53
0.0,-0.31,0.91,5.71,-3.68,3.36
-0.01,-0.32,0.89,6.47,-3.3,3.27
-0.03,-0.31,0.88,6.99,-3.63,3.02
-0.03,-0.3,0.87,9.53,-9.01,5.66
-0.03,-0.29,0.86,10.17,-8.84,5.57
-0.02,-0.29,0.88,10.98,-8.89,5.83
-0.02,-0.29,0.87,12.05,-9.21,5.85
