Time,acce_x,acce_y,acce_z,gyro_x,gyro_y,gyro_z
0.000010,0.07,0.13,1.08,-1.47,-1.44,-1.47
0.000020,0.08,0.14,1.08,-1.64,-1.93,-1.47
0.000030,0.10,0.13,1.07,-1.40,-3.35,-1.15
0.000050,0.09,0.15,1.08,-2.58,-2.47,-0.24
0.000060,0.08,0.14,1.10,-4.31,-2.70,-0.08
0.000070,0.09,0.14,1.08,-4.63,-0.47,-0.37
0.000090,0.07,0.13,1.07,-4.05,-1.82,-1.32
0.000100,0.08,0.13,1.06,-2.96,-2.24,-1.16
0.000110,0.10,0.14,1.04,-2.47,-0.82,-1.25
0.000130,0.08,0.14,1.05,-2.15,1.08,-0.70
0.000140,0.06,0.14,1.06,-2.53,-0.45,-1.18
0.000150,0.06,0.14,1.07,-2.86,-0.32,-1.42
0.000170,0.07,0.14,1.06,-2.90,-2.50,-1.90
0.000180,0.09,0.13,1.04,-2.23,-2.78,-1.59
0.000190,0.09,0.14,1.05,-2.15,0.01,-1.18
0.000210,0.09,0.13,1.04,-1.20,1.31,-1.08
0.000220,0.07,0.14,1.06,-0.50,0.76,-0.60
0.000230,0.07,0.13,1.05,0.08,-1.57,-1.42
0.000240,0.08,0.13,1.04,0.84,-3.73,-1.87
0.000260,0.08,0.13,1.05,0.50,-6.07,-2.23
0.000270,0.09,0.14,1.05,-0.34,-7.82,-2.00
0.000280,0.10,0.15,1.05,-1.02,-5.03,-1.75
0.000300,0.11,0.14,1.05,-1.12,-0.37,-1.16
0.000310,0.09,0.14,1.03,-0.35,0.29,-0.95
0.000320,0.08,0.13,1.06,0.05,-2.54,-1.11
0.000340,0.08,0.14,1.07,0.85,-2.89,-1.99
0.000350,0.09,0.14,1.09,1.21,-2.85,-2.89
0.000360,0.12,0.16,1.09,0.18,-3.34,-2.20
0.000380,0.15,0.16,1.09,-1.47,1.13,-0.39
0.000390,0.15,0.16,1.09,-3.37,1.83,1.52
0.000400,0.13,0.13,1.08,-2.07,3.98,2.99
0.000420,0.11,0.12,1.07,-1.74,1.47,2.82
0.000430,0.10,0.12,1.06,-0.37,-1.23,2.27
0.000440,0.12,0.12,1.07,0.21,-3.08,1.20
0.000460,0.17,0.14,1.06,-0.10,-0.05,2.37
0.000470,0.19,0.14,1.07,-1.52,4.60,4.84
0.000480,0.17,0.14,1.08,-2.46,7.67,7.22
0.000500,0.15,0.13,1.08,-2.79,5.82,7.95
0.000510,0.13,0.12,1.08,-2.37,1.64,8.44
0.000520,0.12,0.12,1.06,-0.97,-0.81,7.55
0.000530,0.15,0.13,1.05,0.41,-1.82,7.53
0.000550,0.17,0.14,1.04,0.16,-0.09,9.02
0.000560,0.19,0.14,1.07,-0.30,0.95,10.86
0.000570,0.19,0.14,1.08,-0.35,2.96,12.91
0.000590,0.17,0.15,1.08,-1.19,1.28,14.98
0.000600,0.17,0.14,1.07,-1.29,3.47,16.43
0.000610,0.17,0.14,1.05,-0.87,3.23,17.63
0.000630,0.17,0.15,1.05,0.11,4.96,19.08
0.000640,0.17,0.14,1.05,0.07,2.86,20.32
0.000650,0.16,0.14,1.05,0.98,3.57,21.31
0.000670,0.16,0.15,1.06,0.59,1.57,22.05
0.000680,0.15,0.15,1.07,0.41,-0.92,22.96
0.000690,0.18,0.16,1.06,0.17,-1.84,24.05
0.000710,0.19,0.17,1.05,-0.63,-3.57,25.71
0.000720,0.20,0.17,1.04,-0.65,-0.85,27.74
0.000730,0.20,0.18,1.04,-0.19,4.81,30.18
0.000750,0.19,0.16,1.03,-0.04,7.24,31.86
0.000760,0.18,0.17,1.02,0.66,5.69,33.31
0.000770,0.17,0.17,1.05,0.99,6.20,34.11
0.000790,0.18,0.18,1.06,0.11,6.66,35.27
0.000800,0.18,0.18,1.07,-0.63,11.15,37.52
0.000810,0.17,0.17,1.06,-1.76,8.27,38.67
0.000830,0.16,0.17,1.07,-1.27,8.99,40.34
0.000840,0.16,0.16,1.09,-1.82,6.73,41.52
0.000850,0.14,0.17,1.09,-2.51,5.72,42.13
0.000870,0.14,0.17,1.07,-2.22,6.33,42.69
0.000880,0.12,0.16,1.05,-1.19,5.15,42.88
0.000890,0.12,0.16,1.05,-0.31,2.28,43.27
0.000900,0.14,0.17,1.07,-0.46,-1.69,44.03
0.000920,0.16,0.17,1.07,-0.27,0.05,46.05
0.000930,0.17,0.16,1.07,-0.26,1.30,47.92
0.000940,0.16,0.17,1.06,0.64,5.85,49.23
0.000960,0.15,0.17,1.06,1.21,3.95,49.70
0.000970,0.17,0.17,1.07,2.24,4.21,50.28
0.000980,0.16,0.20,1.09,2.24,4.11,51.56
0.001000,0.16,0.21,1.09,0.69,3.44,51.88
0.001010,0.19,0.21,1.09,-1.95,6.08,53.80
0.001020,0.18,0.21,1.08,-3.61,9.24,55.87
0.001040,0.18,0.20,1.07,-3.64,12.53,58.50
0.001050,0.14,0.21,1.07,-3.54,13.26,59.92
0.001060,0.12,0.21,1.05,-3.49,12.52,60.68
0.001080,0.09,0.21,1.04,-2.95,10.73,61.11
0.001090,0.07,0.20,1.04,-2.84,7.66,61.08
0.001100,0.08,0.21,1.03,-1.60,5.84,61.39
0.001120,0.08,0.20,1.03,0.28,4.74,61.56
0.001130,0.09,0.21,1.03,1.89,4.95,62.37
0.001140,0.12,0.22,1.03,3.53,4.98,63.95
0.001160,0.11,0.24,1.04,1.93,5.89,64.44
0.001170,0.10,0.24,1.07,-2.25,6.75,65.66
0.001180,0.11,0.21,1.06,-3.41,9.11,65.53
0.001200,0.09,0.19,1.02,-2.54,9.59,65.92
0.001210,0.10,0.18,1.02,-1.46,11.60,65.24
0.001220,0.10,0.18,1.02,-0.50,15.52,65.46
0.001240,0.09,0.18,1.03,-1.39,16.30,66.91
0.001250,0.07,0.18,1.06,-1.16,20.74,67.81
0.001260,0.05,0.19,1.08,-2.20,15.47,67.57
0.001280,0.04,0.20,1.08,-1.97,14.56,66.66
0.001290,0.04,0.20,1.08,-1.38,10.98,65.31
0.001300,0.05,0.20,1.06,-0.56,7.69,64.42
0.001320,0.07,0.20,1.06,2.50,9.02,64.71
0.001330,0.08,0.21,1.06,3.94,6.76,66.08
0.001340,0.08,0.23,1.09,4.40,6.02,68.11
0.001360,0.09,0.24,1.11,4.34,4.87,70.21
0.001370,0.09,0.25,1.11,1.59,5.56,71.56
0.001380,0.09,0.25,1.09,-2.47,10.56,71.38
0.001400,0.11,0.23,1.05,-7.44,16.92,71.28
0.001410,0.09,0.21,1.02,-5.88,29.05,73.94
0.001420,0.05,0.19,1.05,-3.05,25.25,74.78
0.001440,0.01,0.20,1.07,1.85,16.19,75.31
0.001450,0.04,0.22,1.11,3.99,13.24,74.41
0.001460,0.07,0.24,1.10,3.51,17.66,74.39
0.001480,0.08,0.26,1.14,-3.29,17.64,77.01
0.001490,0.06,0.24,1.11,-6.18,22.92,79.11
0.001500,0.04,0.23,1.11,-7.22,19.60,78.44
0.001520,0.03,0.24,1.11,-7.51,16.08,77.26
0.001530,0.05,0.24,1.06,-7.26,11.76,77.15
0.001540,0.11,0.24,1.03,-5.58,10.35,80.49
0.001560,0.10,0.23,1.01,-2.03,14.56,83.82
0.001570,0.06,0.24,0.97,1.17,17.32,83.01
0.001580,0.06,0.24,0.97,3.76,19.83,80.46
0.001600,0.04,0.26,0.98,6.21,17.11,80.02
0.001610,0.04,0.25,1.00,7.76,12.71,77.96
0.001620,0.05,0.25,1.01,11.21,12.58,78.24
0.001640,0.03,0.31,1.06,4.48,11.11,79.40
0.001650,0.06,0.30,1.10,-9.97,16.47,81.44
0.001660,0.07,0.24,1.01,-14.80,34.79,85.17
0.001680,-0.01,0.19,0.88,-19.85,37.87,88.86
0.001690,-0.07,0.16,0.84,-1.71,32.88,86.54
0.001700,-0.06,0.17,0.84,10.11,25.84,86.82
0.001720,-0.05,0.19,0.86,20.54,25.39,88.87
0.001730,-0.08,0.23,1.01,23.56,20.44,88.78
0.001740,-0.03,0.25,1.05,18.95,19.23,84.87
0.001760,0.02,0.26,1.11,11.18,24.20,83.27
0.001770,0.26,0.17,1.22,-11.69,81.80,84.15
0.001780,0.00,0.22,1.08,-1.91,45.25,83.47
0.001800,0.07,0.23,1.10,0.18,41.48,86.98
0.001810,-0.05,0.27,1.07,-2.58,43.50,90.01
0.001820,-0.03,0.25,1.09,-0.92,32.10,89.75
0.001840,-0.07,0.27,1.05,-6.61,40.05,89.92
0.001850,-0.05,0.27,1.10,-0.56,32.61,88.86
0.001860,-0.05,0.28,1.10,-5.39,37.33,87.04
0.001880,-0.08,0.28,1.09,-9.02,31.71,87.02
0.001890,-0.08,0.28,1.08,-9.98,26.25,89.76
0.001900,-0.10,0.26,1.02,-9.29,26.81,90.94
0.001920,-0.12,0.25,1.00,-5.83,27.85,90.01
0.001930,-0.13,0.27,0.98,-5.56,21.42,88.24
0.001950,-0.09,0.29,0.98,-4.65,20.40,93.06
0.001960,-0.11,0.31,1.00,-6.68,25.42,99.27
0.001970,-0.24,0.32,0.93,-13.74,61.64,106.93
0.001990,-0.23,0.32,0.92,1.01,16.67,103.40
0.002000,-0.13,0.31,0.93,6.53,20.90,101.56
0.002010,0.20,0.25,1.23,-9.19,80.39,108.02
0.002030,-0.01,0.31,1.08,-11.18,39.75,111.05
0.002040,-0.12,0.35,1.01,-13.96,46.61,114.55
0.002050,-0.19,0.31,0.98,-4.20,35.24,107.41
0.002070,-0.16,0.33,0.95,-3.45,37.55,100.31
0.002080,-0.16,0.33,0.94,-5.11,37.95,96.41
0.002090,-0.17,0.32,0.94,-6.28,34.30,95.50
0.002110,-0.14,0.31,0.96,-4.18,30.46,96.82
0.002120,-0.25,0.32,1.01,-6.68,24.31,94.69
0.002130,-0.25,0.28,1.02,-11.78,37.87,90.02
0.002150,-0.32,0.25,0.97,-8.84,36.24,82.49
0.002160,-0.31,0.24,0.90,-4.06,25.23,71.48
0.002170,-0.26,0.23,0.94,8.65,19.90,73.62
0.002190,-0.34,0.24,1.03,10.31,13.24,68.34
0.002200,-0.38,0.24,1.06,7.54,-3.05,59.92
0.002210,-0.33,0.28,1.06,1.64,-21.15,52.98
0.002230,-0.17,0.31,1.03,-2.34,-32.97,50.80
0.002240,0.00,0.38,0.97,-6.17,-18.80,59.79
0.002260,-0.11,0.44,0.79,-9.97,-20.68,65.53
0.002270,-0.09,0.37,0.87,-6.93,-14.18,70.70
0.002280,-0.23,0.35,0.94,-4.99,-8.60,65.27
0.002300,-0.21,0.36,1.01,-5.84,-5.92,62.67
0.002310,-0.25,0.29,1.05,-5.58,-9.16,60.27
0.002320,-0.24,0.27,1.02,-6.35,-14.84,56.08
0.002340,-0.16,0.26,0.99,-3.38,-18.83,56.16
0.002350,-0.16,0.25,0.98,0.18,-17.87,55.59
0.002360,-0.14,0.24,0.98,4.84,-8.56,54.50
0.002380,-0.17,0.23,1.04,8.74,-3.62,51.58
0.002390,-0.27,0.26,1.11,9.39,23.66,46.11
0.002400,-0.26,0.29,1.14,3.66,-19.73,40.73
0.002420,-0.15,0.32,1.17,-0.21,-27.17,41.71
0.002430,-0.07,0.34,1.16,-4.93,-28.56,42.30
0.002440,-0.01,0.35,1.05,-7.02,-17.22,40.97
0.002460,0.06,0.40,1.02,-6.93,4.71,42.50
0.002470,0.04,0.39,1.04,-9.48,22.32,48.03
0.002480,-0.14,0.31,1.08,-12.47,27.63,53.89
0.002500,-0.35,0.21,1.10,-12.85,21.47,48.24
0.002510,-0.43,0.16,1.03,-12.92,-0.19,38.30
0.002520,-0.40,0.15,0.99,-6.52,-17.94,26.13
0.002540,-0.28,0.17,1.03,-2.47,-18.35,17.14
0.002550,-0.16,0.20,1.01,0.27,-17.00,10.72
0.002570,-0.01,0.25,0.97,2.71,-12.90,11.31
0.002580,0.04,0.28,1.03,3.74,2.58,17.92
0.002590,0.02,0.30,1.06,1.02,6.15,21.48
0.002600,-0.02,0.32,1.09,0.38,6.90,21.90
0.002620,-0.08,0.32,1.13,-4.92,0.76,22.05
0.002630,-0.10,0.29,1.11,-6.84,-1.95,19.48
0.002650,-0.13,0.29,1.06,-7.98,1.62,18.09
0.002660,-0.17,0.28,1.05,-8.18,-0.44,14.03
0.002670,-0.14,0.26,1.01,-6.00,-1.76,11.23
0.002690,-0.14,0.25,0.99,-2.39,1.99,8.27
0.002700,-0.15,0.26,1.01,0.56,5.44,4.79
0.002710,-0.18,0.27,1.07,-0.13,7.98,1.64
0.002730,-0.22,0.27,1.08,-2.44,2.75,-2.86
0.002740,-0.22,0.26,1.07,-4.85,-7.47,-6.05
0.002750,-0.19,0.25,1.05,-5.84,-13.44,-9.41
0.002770,-0.14,0.25,1.02,-4.62,-17.61,-12.51
0.002780,-0.11,0.26,1.01,-2.86,-16.09,-14.71
0.002790,-0.10,0.25,1.04,-3.60,-7.82,-17.40
0.002810,-0.12,0.26,1.02,-4.04,-0.39,-19.06
0.002820,-0.09,0.24,0.98,-3.60,-1.34,-20.18
0.002830,-0.10,0.24,0.95,-0.76,-6.32,-22.37
0.002850,-0.05,0.24,0.94,3.36,-8.69,-23.74
0.002860,-0.01,0.27,0.94,6.88,-3.49,-24.79
0.002870,0.04,0.32,0.96,6.82,7.70,-21.73
0.002890,-0.02,0.33,1.00,3.24,16.30,-16.73
0.002900,-0.17,0.31,1.03,1.42,15.04,-15.72
0.002910,-0.28,0.28,1.09,0.59,5.12,-20.40
0.002930,-0.30,0.27,1.07,-0.93,-0.72,-26.75
0.002940,-0.34,0.25,1.08,-0.92,-12.92,-32.98
0.002950,-0.27,0.26,1.10,-3.97,-20.18,-41.15
0.002970,-0.17,0.27,1.01,-4.40,-20.40,-44.01
0.002980,-0.09,0.26,0.95,0.47,-17.03,-45.09
0.003000,-0.03,0.29,0.97,2.47,-13.47,-45.40
0.003010,-0.02,0.28,0.99,5.15,-8.82,-43.78
0.003020,-0.03,0.27,1.02,6.66,-8.86,-41.88
0.003040,-0.02,0.27,1.02,8.15,-4.69,-41.06
0.003050,-0.07,0.27,1.04,10.32,-6.93,-41.02
0.003060,-0.09,0.31,1.13,6.04,-7.46,-39.34
0.003080,-0.14,0.32,1.16,1.29,-9.55,-40.18
0.003090,-0.17,0.30,1.15,-1.37,-14.49,-42.36
0.003100,-0.20,0.30,1.12,-3.88,-21.68,-46.79
0.003120,-0.18,0.30,1.10,-4.31,-26.85,-49.05
0.003130,-0.19,0.30,1.09,-4.91,-30.31,-51.99
0.003140,-0.18,0.29,1.11,-3.98,-37.50,-53.80
0.003160,-0.16,0.29,1.14,-6.68,-43.54,-55.95
0.003170,-0.11,0.30,1.11,-9.61,-46.40,-58.46
0.003190,-0.03,0.30,1.05,-10.59,-42.34,-59.42
0.003200,0.04,0.31,1.02,-8.11,-30.74,-58.43
0.003210,0.06,0.31,1.00,-6.40,-17.66,-57.00
0.003230,0.07,0.31,1.01,-8.36,-13.60,-53.86
0.003240,0.04,0.28,1.02,-6.07,-14.49,-52.85
0.003250,0.02,0.29,1.03,-3.00,-16.39,-52.10
0.003270,0.02,0.29,1.06,-2.28,-14.63,-51.36
0.003280,0.01,0.32,1.08,-7.28,-10.11,-47.77
0.003290,-0.01,0.30,1.09,-13.07,-5.61,-47.93
0.003310,-0.05,0.29,1.05,-15.55,-7.46,-49.59
0.003320,-0.09,0.27,0.99,-13.90,-8.06,-51.37
0.003330,-0.10,0.25,0.97,-10.85,-12.15,-54.94
0.003350,-0.10,0.26,0.96,-7.64,-14.22,-57.76
0.003360,-0.07,0.28,0.96,-5.03,-15.91,-59.44
0.003380,-0.05,0.28,0.96,-3.19,-16.32,-59.65
0.003390,-0.03,0.29,0.99,-0.45,-12.80,-59.63
0.003400,-0.02,0.29,1.00,1.16,-10.95,-61.69
0.003420,-0.03,0.29,1.01,3.82,-9.58,-61.18
0.003430,-0.04,0.28,1.02,-1.60,-16.44,-59.85
0.003440,-0.02,0.28,1.00,0.42,-17.70,-60.73
0.003460,0.00,0.29,1.02,0.22,-20.81,-60.56
0.003470,0.01,0.30,1.05,-0.44,-19.11,-59.53
0.003480,-0.01,0.30,1.07,-1.29,-18.17,-60.47
0.003500,-0.00,0.30,1.09,-2.82,-16.47,-60.09
0.003510,-0.04,0.31,1.10,-12.05,-12.89,-58.23
0.003520,-0.02,0.27,1.02,-12.31,-12.95,-61.02
0.003540,-0.01,0.24,0.95,-8.42,-10.29,-61.66
0.003550,-0.03,0.23,0.95,-3.72,-4.99,-62.73
0.003570,-0.05,0.23,0.97,1.26,-1.47,-64.42
0.003580,-0.08,0.24,1.01,2.55,-5.84,-65.97
0.003590,-0.11,0.25,1.05,2.02,-11.95,-68.52
0.003610,-0.09,0.26,1.04,2.04,-13.35,-70.58
0.003620,-0.04,0.26,1.01,2.70,-14.39,-71.73
0.003630,-0.01,0.27,1.00,2.92,-14.89,-71.37
0.003650,-0.01,0.27,1.03,2.36,-8.98,-71.24
0.003660,-0.04,0.28,1.05,1.05,-6.13,-72.37
0.003670,-0.06,0.28,1.06,1.17,-6.40,-73.86
0.003690,-0.08,0.29,1.06,0.65,-11.62,-75.56
0.003700,-0.07,0.30,1.06,0.29,-16.37,-77.11
0.003710,-0.04,0.29,1.05,0.58,-20.03,-77.01
0.003730,-0.03,0.31,1.07,-0.84,-23.69,-76.34
0.003740,-0.05,0.31,1.07,-3.03,-21.07,-76.41
0.003750,-0.05,0.29,1.08,-3.76,-22.01,-78.48
0.003770,-0.04,0.28,1.05,-2.86,-17.41,-79.78
0.003780,0.00,0.28,1.03,-2.10,-17.77,-78.62
0.003800,-0.01,0.27,1.01,-0.97,-15.11,-77.05
0.003810,-0.02,0.26,1.03,-0.56,-11.23,-77.66
0.003820,-0.04,0.26,1.02,0.13,-8.65,-79.32
0.003840,-0.02,0.27,1.04,-1.01,-10.46,-78.73
0.003850,-0.01,0.27,1.02,-0.87,-14.37,-79.43
0.003860,0.01,0.27,1.01,1.24,-16.14,-78.60
0.003880,0.04,0.27,1.03,2.37,-13.26,-77.20
0.003890,0.02,0.27,1.04,2.43,-16.29,-76.98
0.003900,0.04,0.28,1.06,0.10,-13.93,-76.70
0.003920,0.05,0.27,1.05,-1.85,-11.31,-74.61
0.003930,0.03,0.25,1.04,-1.88,-12.29,-73.47
0.003940,0.02,0.27,1.06,-0.82,-12.03,-74.22
0.003960,0.03,0.28,1.09,-1.80,-14.51,-74.95
0.003970,0.05,0.29,1.10,-5.85,-16.57,-73.92
0.003990,0.04,0.27,1.08,-8.69,-14.23,-74.41
0.004000,0.02,0.27,1.08,-11.92,-12.36,-74.61
0.004010,-0.04,0.26,1.08,-14.40,-6.46,-74.69
0.004030,-0.06,0.24,1.07,-14.79,-4.07,-75.56
0.004040,-0.09,0.23,1.05,-14.11,-6.31,-76.74
0.004050,-0.09,0.20,1.03,-13.40,-8.59,-77.20
0.004070,-0.08,0.17,0.98,-9.04,-15.05,-79.66
0.004080,-0.03,0.17,0.95,-2.18,-15.78,-81.90
0.004090,0.01,0.19,0.97,3.82,-20.21,-81.96
0.004110,0.03,0.22,1.00,5.69,-22.87,-80.18
0.004120,0.05,0.23,1.07,2.53,-21.36,-77.72
0.004130,0.03,0.25,1.08,-1.24,-19.19,-76.72
0.004150,0.04,0.23,1.07,-5.18,-18.21,-75.68
0.004160,0.02,0.23,1.05,-7.25,-15.32,-76.34
0.004180,0.03,0.21,1.00,-8.10,-18.15,-76.22
0.004190,0.05,0.19,0.95,-5.33,-16.74,-74.17
0.004200,0.06,0.16,0.96,1.01,-9.03,-70.61
0.004220,0.02,0.18,0.99,4.01,-10.89,-68.68
0.004230,0.02,0.18,1.02,4.09,-12.90,-67.33
0.004240,0.03,0.19,1.02,2.75,-14.84,-65.29
0.004260,0.02,0.18,1.00,4.96,-16.72,-65.39
0.004270,0.05,0.19,1.02,7.47,-15.19,-64.25
0.004280,0.03,0.19,1.07,6.61,-19.02,-63.92
0.004300,0.01,0.20,1.09,4.13,-22.05,-64.88
0.004310,0.03,0.21,1.10,1.80,-25.11,-66.38
0.004320,0.07,0.22,1.09,-0.79,-20.15,-65.44
0.004340,0.08,0.21,1.08,-2.02,-15.90,-62.44
0.004350,0.07,0.22,1.07,-3.60,-5.91,-60.75
0.004360,0.03,0.20,1.06,-5.66,-4.06,-60.63
0.004380,0.01,0.20,1.03,-4.93,-4.66,-60.17
0.004390,-0.00,0.18,1.04,-4.08,-1.80,-59.33
0.004400,-0.04,0.17,1.04,-2.78,-5.44,-59.82
0.004420,-0.05,0.17,1.02,-2.44,-6.44,-60.66
0.004430,-0.04,0.14,1.03,-0.46,0.55,-62.14
0.004440,-0.06,0.15,1.03,2.05,-4.49,-64.23
0.004460,-0.05,0.16,1.04,3.37,-10.31,-64.45
0.004470,-0.03,0.17,1.06,4.22,-12.50,-65.30
0.004490,-0.01,0.18,1.07,4.00,-17.67,-67.53
0.004500,0.03,0.19,1.07,3.38,-22.49,-68.72
0.004510,0.06,0.18,1.05,3.45,-25.15,-68.37
0.004530,0.08,0.18,1.05,5.27,-28.84,-67.04
0.004540,0.08,0.17,1.07,5.73,-31.80,-64.49
0.004550,0.08,0.17,1.09,6.35,-30.12,-62.99
0.004570,0.07,0.18,1.11,4.74,-26.71,-61.69
0.004580,0.08,0.19,1.14,2.03,-24.76,-60.25
0.004590,0.09,0.19,1.11,-1.73,-23.50,-59.29
0.004610,0.09,0.18,1.08,-5.25,-17.45,-58.31
0.004620,0.10,0.16,1.04,-6.14,-12.01,-57.95
0.004630,0.10,0.16,1.02,-4.74,-1.61,-56.47
0.004650,0.07,0.15,1.01,-3.25,-5.45,-55.31
0.004660,0.05,0.15,1.02,0.06,-9.10,-54.22
0.004670,0.03,0.16,1.05,1.89,-13.05,-54.40
0.004690,0.04,0.17,1.07,-0.14,-16.13,-54.08
0.004700,0.04,0.17,1.07,-2.55,-16.88,-54.82
0.004710,0.08,0.16,1.04,-3.04,-11.14,-54.55
0.004730,0.10,0.15,1.01,-1.42,-2.57,-51.69
0.004740,0.07,0.15,1.01,1.11,-0.56,-48.60
0.004750,0.05,0.15,1.04,1.05,-0.81,-46.42
0.004770,0.03,0.17,1.08,-1.05,-1.98,-45.50
0.004780,0.03,0.17,1.10,-2.63,-4.42,-46.72
0.004800,0.04,0.15,1.09,-3.50,-3.38,-47.44
0.004810,0.03,0.15,1.09,-4.08,-7.72,-48.65
0.004820,0.07,0.15,1.07,-3.95,-5.01,-47.93
0.004840,0.07,0.15,1.03,-2.55,-3.51,-46.92
0.004850,0.08,0.15,1.01,-0.75,-1.11,-44.88
0.004860,0.06,0.15,1.03,0.11,-1.21,-42.37
0.004880,0.03,0.15,1.05,0.33,-6.26,-41.37
0.004890,0.03,0.13,1.08,1.27,-4.45,-40.71
0.004900,0.02,0.13,1.10,0.89,-5.42,-40.99
0.004920,-0.00,0.14,1.11,-0.41,-8.85,-42.15
0.004930,0.01,0.14,1.15,-3.34,-16.27,-43.09
0.004940,0.02,0.18,1.20,-11.66,-23.58,-42.98
0.004960,0.05,0.17,1.16,-20.69,-32.06,-44.27
0.004970,0.09,0.19,1.12,-26.04,-29.02,-39.17
0.004980,0.10,0.14,1.05,-25.75,-27.43,-43.15
0.005000,0.15,0.12,0.98,-20.94,-6.85,-42.73
0.005010,0.20,0.09,0.89,-16.08,-8.74,-36.12
0.005020,0.12,0.12,0.95,-9.35,-17.08,-30.89
0.005040,0.12,0.09,0.91,0.21,-2.50,-26.24
0.005050,0.08,0.08,0.99,4.73,-2.36,-24.24
0.005060,0.07,0.07,1.03,5.31,-5.68,-23.62
0.005080,0.07,0.06,1.05,7.40,-6.18,-22.89
0.005090,0.09,0.08,1.10,6.52,-6.76,-21.50
0.005100,0.08,0.09,1.13,3.24,-13.15,-20.79
0.005120,0.11,0.08,1.09,3.99,-14.98,-21.03
0.005130,0.16,0.08,1.03,6.56,-14.35,-19.76
0.005150,0.20,0.08,1.01,9.20,-12.35,-15.76
0.005160,0.18,0.09,1.05,10.65,-12.76,-11.97
0.005170,0.15,0.10,1.09,11.76,-13.85,-8.65
0.005190,0.14,0.11,1.13,10.53,-6.99,-6.78
0.005200,0.09,0.13,1.16,3.82,-9.89,-6.60
0.005210,0.13,0.12,1.11,-1.51,-4.88,-6.59
0.005230,0.15,0.10,1.03,-2.34,-1.46,-5.02
0.005240,0.15,0.10,0.99,-0.82,2.27,-1.76
0.005250,0.10,0.09,1.01,2.08,3.91,-1.22
0.005270,0.07,0.09,1.06,3.34,2.39,-0.97
0.005280,0.04,0.11,1.09,3.43,-1.00,-2.23
0.005290,0.02,0.11,1.07,3.92,-3.88,-4.13
0.005310,0.03,0.10,1.08,4.20,-9.73,-5.49
0.005320,0.08,0.12,1.10,3.92,-11.96,-4.99
0.005330,0.09,0.13,1.11,2.92,-9.97,-3.66
0.005350,0.11,0.14,1.11,1.27,-6.34,-2.04
0.005360,0.13,0.14,1.11,0.50,-0.42,0.16
0.005370,0.10,0.14,1.08,-0.49,-0.63,2.44
0.005380,0.10,0.13,1.08,0.12,-0.22,5.23
0.005400,0.08,0.12,1.08,0.07,0.06,5.68
0.005410,0.06,0.13,1.11,-1.20,0.66,6.45
0.005420,0.05,0.12,1.12,-3.16,2.02,6.02
0.005440,0.05,0.12,1.10,-4.14,-3.62,5.35
0.005450,0.06,0.11,1.10,-3.83,-11.89,5.95
0.005460,0.08,0.12,1.11,-4.57,-19.89,7.50
0.005480,0.10,0.15,1.14,-11.60,-25.39,12.09
0.005490,0.06,0.15,1.16,-26.61,-25.82,21.34
0.005500,0.06,0.10,1.07,-21.69,-12.60,18.15
0.005520,0.07,0.10,1.05,-20.44,-10.71,15.54
0.005530,0.04,0.08,1.01,-15.40,-8.94,12.69
0.005550,0.06,0.07,0.99,-6.43,-6.15,7.97
0.005560,0.06,0.08,0.97,-0.18,-4.92,4.56
0.005570,0.10,0.09,0.98,3.53,-0.90,3.74
0.005580,0.10,0.11,1.02,5.96,7.90,4.09
0.005600,0.08,0.13,1.08,3.16,11.15,5.07
0.005610,0.06,0.13,1.13,-2.92,4.62,4.48
0.005620,0.05,0.11,1.10,-5.65,1.73,3.92
0.005640,0.05,0.09,1.06,-3.77,0.31,3.72
0.005650,0.07,0.10,1.05,-0.67,0.02,3.76
0.005660,0.07,0.12,1.03,1.28,-0.15,3.56
0.005680,0.10,0.12,1.05,1.69,1.96,4.11
0.005690,0.10,0.12,1.06,1.79,1.52,4.76
0.005700,0.10,0.11,1.06,3.15,4.31,6.47
0.005720,0.08,0.11,1.08,3.50,3.89,7.47
0.005730,0.06,0.11,1.09,3.32,3.72,6.98
0.005740,0.05,0.12,1.13,-0.30,6.27,6.43
0.005760,0.04,0.11,1.10,-2.46,4.41,6.17
0.005770,0.04,0.10,1.06,-1.56,5.98,5.56
0.005780,0.05,0.10,1.04,-2.04,5.03,5.86
0.005800,0.06,0.10,1.04,-0.14,12.34,6.88
0.005810,0.06,0.08,1.05,0.27,17.29,7.77
0.005820,0.04,0.07,1.04,0.63,21.98,8.70
0.005840,-0.01,0.07,1.08,1.41,17.40,8.52
0.005850,-0.04,0.08,1.10,1.44,9.47,5.91
0.005860,-0.05,0.08,1.12,1.34,0.02,2.52
0.005870,-0.02,0.09,1.12,2.15,-5.17,-0.88
0.005890,-0.00,0.11,1.11,2.89,-8.10,-3.63
0.005900,0.04,0.12,1.09,2.85,-9.50,-4.84
0.005910,0.07,0.14,1.08,2.73,-10.96,-4.16
0.005930,0.12,0.14,1.06,3.49,-7.92,-2.40
0.005940,0.12,0.16,1.07,1.15,-3.84,1.75
0.005950,0.12,0.16,1.09,-1.87,1.53,6.03
0.005970,0.10,0.15,1.09,-3.21,7.48,8.55
0.005980,0.04,0.13,1.06,-3.95,6.30,8.43
0.005990,0.04,0.13,1.05,-3.53,3.70,7.36
0.006010,0.02,0.14,1.05,-4.59,1.13,5.96
0.006020,0.02,0.12,1.04,-4.63,-0.20,4.01
0.006030,0.02,0.12,1.05,-5.40,-2.63,2.95
0.006050,0.03,0.13,1.05,-4.53,-2.79,2.02
0.006060,0.03,0.13,1.02,-4.09,-3.16,2.22
0.006070,0.04,0.13,1.03,-1.76,4.35,1.84
0.006090,0.03,0.14,1.03,-1.66,4.84,1.49
0.006100,0.02,0.12,1.03,-0.79,6.47,1.44
0.006110,0.01,0.12,1.04,-0.59,5.56,2.36
0.006130,-0.01,0.11,1.06,-0.40,4.20,2.58
0.006140,-0.03,0.10,1.05,-1.54,-1.46,1.24
0.006150,-0.01,0.10,1.05,-1.82,-0.71,-0.18
0.006170,0.00,0.10,1.02,-0.51,-2.50,-1.89
0.006180,0.02,0.11,1.04,-0.52,-3.98,-2.04
0.006190,0.05,0.11,1.03,-1.67,-0.40,-3.03
0.006210,0.04,0.12,1.03,-2.24,6.11,-2.81
0.006220,0.03,0.11,1.02,-2.37,6.66,-2.10
0.006230,0.02,0.12,1.02,-2.25,6.48,-1.20
0.006250,0.01,0.11,1.04,-2.03,7.03,-0.06
0.006260,-0.02,0.10,1.06,-0.12,9.48,0.08
0.006270,-0.05,0.10,1.09,-0.38,3.89,-0.90
0.006290,-0.05,0.10,1.09,-0.60,-1.72,-3.11
0.006300,-0.02,0.10,1.08,-0.84,-4.09,-5.67
0.006310,0.03,0.13,1.11,-4.06,4.25,-7.71
0.006330,0.09,0.14,1.12,-9.67,20.59,-9.13
0.006340,0.09,0.14,1.13,-14.43,33.15,-8.36
0.006350,0.08,0.13,1.12,-15.24,39.25,-6.03
0.006370,0.04,0.10,1.08,-10.79,31.92,-2.27
0.006380,0.00,0.08,1.07,-5.47,18.15,1.02
0.006390,-0.04,0.08,1.08,-1.35,5.89,1.66
0.006410,-0.08,0.07,1.10,2.09,-5.11,-0.29
0.006420,-0.11,0.07,1.11,5.31,-14.10,-4.93
0.006430,-0.11,0.09,1.14,3.30,-19.82,-6.44
0.006450,-0.08,0.09,1.10,1.91,-24.82,-9.48
0.006460,-0.05,0.10,1.10,0.78,-29.58,-12.45
0.006470,0.01,0.10,1.06,0.65,-22.63,-14.39
0.006490,0.06,0.10,1.04,-0.31,-16.18,-13.70
0.006500,0.06,0.10,1.03,-0.10,-14.18,-11.59
0.006510,0.08,0.11,1.05,0.92,-9.64,-8.07
0.006530,0.05,0.12,1.06,2.18,-10.18,-5.27
0.006540,0.04,0.12,1.10,2.63,-11.82,-3.39
0.006550,0.03,0.12,1.10,0.85,-8.44,-3.23
0.006570,0.03,0.12,1.07,0.24,-7.15,-2.92
0.006580,0.03,0.12,1.06,0.39,-6.89,-1.56
0.006590,0.03,0.11,1.06,0.15,-5.56,-0.08
0.006610,0.02,0.10,1.05,1.63,-6.79,1.40
0.006620,0.02,0.11,1.06,3.08,-7.84,1.93
0.006630,0.03,0.10,1.07,3.40,-1.66,1.35
0.006650,-0.00,0.11,1.08,3.88,-2.18,0.44
0.006660,0.02,0.12,1.07,4.73,-6.34,0.24
0.006670,0.01,0.13,1.06,4.76,-7.53,-0.10
0.006690,-0.02,0.13,1.08,5.66,-14.34,-4.56
