Time,acce_x,acce_y,acce_z,gyro_x,gyro_y,gyro_z
0.000010,0.41,0.07,0.92,-25.92,-8.02,1.82
0.000020,0.40,0.07,0.93,-20.90,-6.98,3.71
0.000030,0.40,0.06,0.95,-15.66,-9.34,7.39
0.000050,0.37,0.06,0.97,-10.78,-12.23,9.31
0.000060,0.36,0.06,1.00,-8.47,-13.05,11.04
0.000070,0.35,0.07,1.01,-8.34,-9.28,8.34
0.000090,0.37,0.07,0.99,-7.39,-6.49,7.37
0.000100,0.37,0.07,0.98,-6.60,-3.21,7.18
0.000110,0.37,0.06,0.95,-4.23,-3.53,7.53
0.000130,0.35,0.07,0.95,-3.65,-5.22,6.21
0.000140,0.36,0.07,0.93,-0.85,-7.02,4.05
0.000150,0.35,0.08,0.93,0.35,-6.84,0.79
0.000160,0.38,0.08,0.93,1.85,-6.55,-2.00
0.000180,0.41,0.10,0.96,2.61,-3.62,-2.82
0.000190,0.44,0.10,0.95,4.95,-1.15,-2.37
0.000200,0.45,0.10,0.93,7.08,-2.00,-1.86
0.000220,0.46,0.11,0.92,7.30,-4.49,1.54
0.000230,0.44,0.12,0.92,8.17,-6.03,4.81
0.000240,0.40,0.15,0.90,7.98,-8.46,6.78
0.000260,0.38,0.15,0.90,5.68,-8.92,4.06
0.000270,0.37,0.14,0.89,3.86,-9.42,-1.42
0.000280,0.40,0.15,0.93,3.05,-0.61,-5.94
0.000300,0.42,0.15,0.97,1.62,5.36,-10.34
0.000310,0.45,0.15,1.00,0.08,3.71,-11.88
0.000320,0.46,0.19,1.06,-6.05,-0.49,-14.12
0.000340,0.47,0.19,1.06,-9.15,-4.12,-16.24
0.000350,0.52,0.19,1.07,-13.47,-5.80,-18.06
0.000360,0.56,0.18,1.06,-14.58,-5.73,-18.53
0.000380,0.58,0.19,1.03,-13.76,-11.91,-13.37
0.000390,0.55,0.18,1.01,-13.71,-14.24,-8.23
0.000400,0.52,0.17,1.00,-14.53,-9.54,-9.37
0.000420,0.52,0.16,1.00,-14.29,-2.14,-11.56
0.000430,0.50,0.17,1.03,-13.66,3.85,-14.78
0.000440,0.52,0.16,1.05,-13.74,4.35,-16.99
0.000460,0.53,0.17,1.06,-13.59,-1.40,-15.37
0.000470,0.51,0.17,1.05,-13.18,-6.81,-12.05
0.000480,0.49,0.17,1.03,-13.83,-11.48,-12.32
0.000500,0.52,0.17,1.01,-14.29,-5.11,-13.02
0.000510,0.52,0.17,1.00,-13.04,4.84,-12.79
0.000520,0.54,0.18,1.00,-12.34,10.58,-13.82
0.000540,0.52,0.19,0.98,-11.69,10.08,-13.59
0.000550,0.52,0.17,0.96,-9.66,1.40,-13.13
0.000560,0.53,0.17,0.97,-7.85,-2.96,-9.66
0.000580,0.51,0.17,0.98,-3.97,-6.82,-6.87
0.000590,0.51,0.17,0.99,-2.60,-3.76,-5.04
0.000600,0.49,0.17,0.98,-1.24,0.47,-5.42
0.000620,0.50,0.17,0.99,-0.34,3.30,-5.22
0.000630,0.49,0.16,0.98,1.59,1.69,-3.95
0.000640,0.48,0.15,0.98,2.55,2.14,-3.33
0.000660,0.48,0.15,1.00,3.34,1.15,-3.10
0.000670,0.48,0.15,0.99,3.97,2.84,-2.60
0.000680,0.46,0.14,1.00,4.64,2.23,-1.91
0.000700,0.44,0.16,1.01,4.38,-0.20,-1.69
0.000710,0.42,0.17,1.00,3.94,-2.79,-2.53
0.000720,0.42,0.17,1.00,3.13,-4.03,-3.39
0.000740,0.42,0.16,0.98,2.06,-2.17,-3.19
0.000750,0.41,0.15,0.96,1.85,-2.32,-3.56
0.000760,0.40,0.14,0.96,2.46,-3.76,-3.82
0.000780,0.40,0.14,0.99,2.96,-6.52,-4.81
0.000790,0.41,0.14,0.99,3.51,-6.92,-5.13
0.000800,0.40,0.14,1.00,3.86,-8.85,-5.71
0.000820,0.40,0.14,0.97,4.17,-7.92,-6.41
0.000830,0.42,0.14,0.94,5.30,-3.01,-6.37
0.000840,0.39,0.13,0.96,6.85,-0.47,-7.27
0.000860,0.39,0.14,0.97,7.66,-0.95,-8.96
0.000870,0.39,0.14,0.97,8.90,-3.73,-10.56
0.000880,0.41,0.15,0.99,9.01,-4.92,-12.58
0.000900,0.44,0.17,1.00,9.30,-2.32,-12.90
0.000910,0.48,0.18,1.00,8.87,-0.23,-12.37
0.000920,0.50,0.18,0.98,9.24,1.88,-10.24
0.000940,0.52,0.19,0.98,9.60,0.98,-7.50
0.000950,0.53,0.18,0.98,9.97,0.43,-4.23
0.000960,0.53,0.18,0.98,9.53,-0.18,-1.07
0.000980,0.50,0.19,1.00,9.56,-1.51,2.66
0.000990,0.47,0.19,1.00,8.66,-0.60,3.68
0.001000,0.43,0.19,0.99,6.72,-1.33,3.13
0.001020,0.43,0.18,0.98,4.38,-0.08,1.21
0.001030,0.43,0.18,0.96,2.55,0.89,-0.31
0.001040,0.45,0.19,0.97,1.34,2.69,0.41
0.001050,0.44,0.18,0.97,-0.32,3.40,0.96
0.001070,0.42,0.18,0.98,-1.27,0.96,1.89
0.001080,0.40,0.18,0.98,-2.78,-1.80,1.48
0.001090,0.40,0.17,0.97,-4.14,-3.21,1.92
0.001110,0.41,0.17,0.98,-5.44,-1.66,1.34
0.001120,0.41,0.19,0.99,-10.64,-1.44,1.74
0.001130,0.39,0.18,0.96,-6.64,-1.71,-0.08
0.001150,0.43,0.17,0.99,-7.28,-1.71,-1.68
0.001160,0.40,0.18,1.01,-9.77,-5.51,-3.31
0.001170,0.43,0.17,0.98,-10.92,-4.61,-5.60
0.001190,0.46,0.17,0.97,-11.18,-3.97,-5.95
0.001200,0.48,0.18,0.97,-10.76,-3.74,-4.00
0.001210,0.48,0.18,0.99,-10.18,-1.44,-1.94
0.001230,0.46,0.18,1.00,-10.17,-2.31,0.03
0.001240,0.45,0.17,1.01,-10.56,-5.59,0.50
0.001250,0.45,0.16,1.00,-10.15,-4.89,0.05
0.001270,0.47,0.16,0.98,-9.53,-0.87,0.72
0.001280,0.47,0.16,0.98,-8.27,2.09,1.98
0.001290,0.47,0.16,0.97,-7.37,2.87,1.97
0.001310,0.48,0.16,0.99,-6.37,3.45,2.15
0.001320,0.50,0.17,0.98,-4.90,2.60,3.56
0.001330,0.52,0.17,0.97,-3.62,1.66,4.98
0.001350,0.54,0.18,0.95,-2.70,-0.61,6.70
0.001360,0.56,0.17,0.94,-1.07,-1.73,9.73
0.001370,0.59,0.17,0.95,0.11,1.51,12.66
0.001390,0.62,0.19,0.93,3.22,5.62,18.11
0.001400,0.62,0.20,0.94,4.78,8.63,24.82
0.001410,0.58,0.21,0.94,5.56,8.26,28.99
0.001430,0.55,0.19,0.92,6.90,4.09,32.12
0.001440,0.53,0.18,0.90,8.31,-0.85,32.43
0.001450,0.54,0.18,0.89,8.89,-0.69,31.74
0.001470,0.55,0.18,0.89,8.99,3.08,31.45
0.001480,0.54,0.18,0.90,9.05,6.87,31.66
0.001490,0.53,0.18,0.92,9.95,7.07,32.60
0.001510,0.53,0.18,0.94,10.93,4.90,34.82
0.001520,0.51,0.17,0.96,10.96,3.33,36.60
0.001530,0.50,0.17,0.97,10.76,1.44,37.08
0.001550,0.49,0.17,0.98,9.91,1.01,36.89
0.001560,0.47,0.16,0.97,9.57,2.61,35.97
0.001570,0.48,0.17,0.95,8.87,2.38,34.21
0.001590,0.47,0.16,0.98,8.46,3.85,33.31
0.001600,0.48,0.16,0.98,9.33,3.45,33.21
0.001610,0.46,0.15,1.01,8.87,2.61,31.94
0.001630,0.45,0.15,1.01,8.96,2.20,30.41
0.001640,0.45,0.14,1.00,8.73,-1.30,27.97
0.001650,0.46,0.13,0.99,8.11,1.10,26.32
0.001660,0.46,0.12,0.97,8.56,1.82,23.86
0.001680,0.47,0.11,0.94,9.39,5.89,21.77
0.001690,0.47,0.12,0.94,10.21,5.79,18.14
0.001700,0.50,0.13,0.95,10.64,5.01,16.81
0.001720,0.53,0.15,0.96,11.82,2.93,18.17
0.001730,0.53,0.16,0.95,12.24,0.56,21.18
0.001740,0.49,0.16,0.93,10.70,-2.44,20.89
0.001760,0.50,0.16,0.91,9.85,-1.31,18.92
0.001770,0.54,0.16,0.92,11.82,0.95,18.55
0.001780,0.55,0.17,0.94,14.03,6.58,20.79
0.001800,0.55,0.18,0.96,14.64,9.79,22.66
0.001810,0.55,0.19,0.96,14.70,10.18,26.06
0.001820,0.54,0.18,0.98,13.54,6.37,29.39
0.001840,0.53,0.17,0.97,12.67,6.15,31.82
0.001850,0.52,0.17,0.96,12.31,8.05,33.66
0.001860,0.51,0.16,0.93,11.39,10.53,34.89
0.001880,0.50,0.18,0.90,11.34,10.12,37.10
0.001890,0.49,0.20,0.91,10.67,9.42,39.08
0.001900,0.48,0.20,0.92,9.65,13.37,39.42
0.001920,0.48,0.18,0.95,9.07,18.27,38.49
0.001930,0.51,0.19,0.99,8.52,21.97,39.83
0.001940,0.48,0.19,1.00,6.84,18.90,41.79
0.001960,0.46,0.19,0.99,2.41,8.00,43.82
0.001970,0.45,0.19,0.93,-3.54,-2.12,44.43
0.001980,0.45,0.19,0.86,-6.70,-5.11,44.12
0.002000,0.47,0.18,0.85,-3.44,1.37,44.55
0.002010,0.47,0.19,0.90,2.99,13.51,46.98
0.002020,0.46,0.19,0.95,9.04,22.98,49.45
0.002040,0.44,0.18,0.99,10.12,20.98,51.40
0.002050,0.39,0.17,1.00,6.35,5.51,52.32
0.002060,0.37,0.16,0.98,2.12,-9.80,50.92
0.002080,0.37,0.17,0.95,2.53,-9.63,49.80
0.002090,0.40,0.17,0.92,8.81,0.00,50.56
0.002100,0.40,0.17,0.94,16.49,15.62,53.73
0.002120,0.36,0.15,1.01,21.48,22.18,55.89
0.002130,0.29,0.16,1.07,19.68,15.69,55.16
0.002140,0.25,0.15,1.06,15.04,6.17,52.02
0.002160,0.24,0.13,1.02,12.92,0.08,45.82
0.002170,0.28,0.13,1.00,15.08,4.34,40.85
0.002180,0.29,0.14,1.04,19.63,12.92,39.53
0.002200,0.28,0.15,1.07,18.79,14.61,38.17
0.002210,0.26,0.16,1.10,14.20,7.39,36.99
0.002220,0.26,0.14,1.09,10.15,1.77,33.22
0.002240,0.26,0.15,1.05,7.54,2.58,27.02
0.002250,0.29,0.13,1.00,5.62,4.41,20.76
0.002260,0.36,0.14,0.95,5.33,10.70,16.49
0.002280,0.41,0.16,0.96,7.39,14.87,18.11
0.002290,0.44,0.17,0.98,8.61,16.02,23.69
0.002300,0.39,0.18,1.01,7.66,12.15,26.64
0.002320,0.38,0.16,1.02,5.71,7.97,25.24
0.002330,0.39,0.16,0.99,3.45,7.36,22.66
0.002340,0.41,0.16,0.96,0.56,4.98,19.77
0.002360,0.45,0.18,0.95,-0.18,6.75,18.23
0.002370,0.53,0.20,0.94,0.06,15.69,24.12
0.002380,0.53,0.22,0.95,-1.42,21.88,33.94
0.002400,0.50,0.20,0.94,1.37,27.47,42.08
0.002410,0.47,0.18,0.95,5.53,25.54,48.60
0.002420,0.41,0.18,0.99,8.05,25.53,51.74
0.002440,0.36,0.18,1.00,7.18,18.79,50.26
0.002450,0.33,0.19,0.98,5.18,12.27,47.63
0.002460,0.34,0.19,0.92,4.73,7.30,45.22
0.002480,0.36,0.17,0.86,8.31,10.58,47.48
0.002490,0.37,0.16,0.85,14.56,15.39,51.57
0.002500,0.34,0.15,0.91,21.73,17.97,56.47
0.002520,0.28,0.13,0.99,26.41,16.26,56.78
0.002530,0.22,0.12,1.05,27.37,6.73,50.72
0.002540,0.23,0.12,1.04,26.41,2.78,44.00
0.002550,0.26,0.13,0.99,26.79,4.44,40.44
0.002570,0.30,0.13,0.99,30.40,10.21,39.77
0.002580,0.30,0.13,1.02,34.31,14.40,41.69
0.002600,0.28,0.13,1.08,36.64,12.69,41.86
0.002610,0.27,0.13,1.12,37.27,10.89,41.37
0.002620,0.26,0.13,1.11,36.24,7.30,38.67
0.002640,0.29,0.15,1.09,35.77,11.10,37.19
0.002650,0.32,0.17,1.08,37.18,13.65,37.39
0.002660,0.34,0.18,1.10,37.94,16.95,39.85
0.002680,0.36,0.19,1.10,37.04,18.70,43.83
0.002690,0.35,0.18,1.11,36.69,20.56,48.24
0.002700,0.33,0.20,1.12,35.30,23.13,50.09
0.002720,0.31,0.19,1.11,31.01,20.18,50.12
0.002730,0.32,0.20,1.09,28.29,17.95,51.34
0.002740,0.31,0.20,1.07,26.92,17.89,53.47
0.002760,0.31,0.20,1.08,26.05,19.97,56.24
0.002770,0.28,0.20,1.11,22.96,19.24,57.66
0.002780,0.24,0.20,1.11,16.96,16.78,56.99
0.002800,0.22,0.19,1.08,11.59,13.30,53.86
0.002810,0.21,0.18,1.04,10.12,8.92,50.11
0.002820,0.23,0.20,1.05,9.57,9.04,46.32
0.002840,0.26,0.21,1.04,8.11,6.61,46.00
0.002850,0.26,0.21,1.04,6.79,2.69,46.06
0.002860,0.26,0.19,1.02,7.10,4.02,45.83
0.002870,0.25,0.18,0.99,6.29,5.33,43.65
0.002890,0.24,0.16,0.96,6.93,6.41,41.92
0.002900,0.25,0.15,0.95,9.11,8.66,39.82
0.002910,0.24,0.16,0.97,10.73,11.50,36.56
0.002930,0.25,0.17,1.00,11.34,11.04,33.82
0.002940,0.27,0.19,1.01,11.73,8.00,31.89
0.002950,0.29,0.19,1.03,13.33,9.39,31.80
0.002970,0.26,0.19,1.02,12.21,9.54,31.34
0.002980,0.24,0.19,0.98,11.73,8.55,29.25
0.002990,0.23,0.19,0.96,13.45,11.11,24.63
0.003010,0.24,0.19,0.96,15.19,14.35,20.14
0.003020,0.24,0.20,0.95,15.42,14.50,16.38
0.003030,0.22,0.21,0.93,16.56,16.24,13.74
0.003050,0.24,0.23,0.87,13.60,21.68,12.78
0.003060,0.22,0.21,0.80,16.79,24.03,13.69
0.003070,0.24,0.21,0.80,23.51,28.67,16.08
0.003090,0.23,0.15,0.88,26.58,45.28,17.57
0.003100,0.19,0.17,1.07,31.31,47.30,14.46
0.003110,0.16,0.18,1.25,32.53,42.53,9.98
0.003130,0.19,0.23,1.39,26.78,31.77,7.73
0.003140,0.23,0.27,1.42,21.95,17.42,9.02
0.003150,0.30,0.30,1.40,20.06,6.52,15.33
0.003170,0.27,0.32,1.32,15.04,-1.74,29.45
0.003180,0.20,0.33,1.24,14.38,-3.86,42.90
0.003190,0.08,0.32,1.20,11.65,-2.20,49.28
0.003210,0.03,0.28,1.15,6.70,-0.26,48.31
0.003220,-0.01,0.23,1.10,4.43,3.39,44.00
0.003230,-0.01,0.21,1.13,5.28,4.50,39.79
0.003250,-0.05,0.20,1.18,4.44,-3.02,37.79
0.003260,-0.07,0.19,1.19,-0.47,-13.02,33.01
0.003270,-0.07,0.18,1.13,-2.99,-20.55,26.99
0.003290,-0.07,0.19,1.08,-6.02,-22.37,21.37
0.003300,-0.03,0.20,1.01,-8.49,-16.76,14.49
0.003320,0.00,0.20,1.00,-6.23,-6.82,10.06
0.003330,0.02,0.19,1.03,-4.58,-5.31,4.44
0.003340,0.07,0.19,1.11,-4.40,-6.67,-0.73
0.003360,0.10,0.20,1.16,-6.70,-9.88,-1.76
0.003370,0.12,0.21,1.13,-13.98,-16.75,-3.45
0.003380,0.14,0.20,1.03,-14.73,-14.27,-4.29
0.003400,0.16,0.20,0.96,-14.29,-7.08,-10.67
0.003410,0.25,0.21,0.94,-11.77,0.76,-14.72
0.003420,0.30,0.22,1.00,-7.16,2.14,-10.52
0.003440,0.31,0.21,1.09,-5.28,-1.54,-2.18
0.003450,0.25,0.21,1.14,-7.92,-7.37,2.20
0.003460,0.18,0.19,1.10,-10.47,-9.40,1.33
0.003480,0.15,0.19,1.07,-11.47,-9.69,-1.65
0.003490,0.15,0.18,1.05,-11.51,-8.96,-4.17
0.003500,0.16,0.19,1.07,-11.53,-5.77,-5.25
0.003520,0.16,0.20,1.10,-12.92,-5.07,-5.45
0.003530,0.15,0.19,1.11,-13.08,-3.19,-3.22
0.003540,0.07,0.17,1.11,-14.76,-5.62,-4.43
0.003560,0.02,0.15,1.10,-14.40,-8.64,-10.18
0.003570,-0.00,0.15,1.09,-15.34,-11.44,-19.50
0.003580,0.05,0.16,1.09,-17.16,-12.58,-27.62
0.003600,0.09,0.18,1.06,-15.77,-13.21,-31.36
0.003610,0.12,0.20,1.05,-14.78,-14.56,-33.68
0.003620,0.13,0.20,1.05,-12.08,-14.12,-34.27
0.003640,0.11,0.19,1.08,-11.37,-14.67,-37.25
0.003650,0.13,0.18,1.07,-12.56,-14.26,-41.42
0.003670,0.17,0.19,1.05,-12.15,-12.61,-42.92
0.003680,0.19,0.20,1.05,-10.67,-12.72,-42.05
0.003690,0.17,0.20,1.06,-10.55,-17.65,-42.15
0.003710,0.16,0.21,1.05,-10.55,-22.35,-43.60
0.003720,0.14,0.20,1.03,-12.18,-24.76,-48.64
0.003730,0.18,0.20,1.02,-14.55,-22.12,-54.38
0.003750,0.25,0.21,1.02,-16.43,-17.25,-56.67
0.003760,0.32,0.23,1.02,-17.89,-15.02,-54.56
0.003770,0.32,0.24,1.05,-18.72,-17.98,-49.05
0.003790,0.29,0.25,1.05,-22.58,-20.49,-47.27
0.003800,0.27,0.23,1.01,-25.18,-19.44,-48.52
0.003820,0.29,0.22,0.98,-26.32,-19.10,-51.10
0.003830,0.34,0.22,0.96,-26.29,-17.92,-52.46
0.003840,0.40,0.23,0.97,-27.60,-14.66,-50.31
0.003860,0.43,0.24,1.01,-29.07,-12.78,-41.92
0.003870,0.38,0.24,1.01,-30.92,-12.56,-33.71
0.003880,0.28,0.22,0.97,-31.28,-12.46,-33.01
0.003900,0.23,0.19,0.93,-31.19,-13.94,-38.90
0.003910,0.26,0.17,0.91,-30.64,-12.82,-45.08
0.003920,0.32,0.17,0.92,-28.06,-11.05,-47.56
0.003940,0.37,0.17,0.99,-25.77,-8.00,-43.25
0.003950,0.32,0.17,1.06,-23.97,-8.35,-37.62
0.003970,0.25,0.17,1.09,-23.56,-7.27,-38.50
0.003980,0.24,0.16,1.07,-23.62,-5.31,-42.35
0.003990,0.23,0.17,1.04,-24.50,-8.02,-47.50
0.004010,0.29,0.18,0.99,-22.61,-11.40,-49.65
0.004020,0.34,0.19,0.99,-18.38,-10.81,-47.63
0.004030,0.35,0.20,1.03,-18.02,-10.14,-42.98
0.004050,0.30,0.18,1.07,-15.08,-9.33,-37.50
0.004060,0.24,0.17,1.10,-15.44,-13.54,-39.79
0.004070,0.25,0.16,1.06,-16.75,-16.58,-43.51
0.004090,0.29,0.16,1.01,-17.47,-13.27,-43.94
0.004100,0.31,0.17,0.97,-15.74,-7.54,-41.71
0.004110,0.29,0.17,0.99,-14.20,-5.82,-39.45
0.004130,0.25,0.18,1.03,-12.37,-9.05,-40.63
0.004140,0.23,0.17,1.06,-11.22,-16.47,-45.15
0.004160,0.26,0.16,1.07,-11.66,-21.60,-49.28
0.004170,0.30,0.16,1.04,-12.37,-18.84,-50.38
0.004180,0.35,0.18,1.03,-13.27,-12.63,-48.31
0.004200,0.37,0.20,1.04,-12.90,-8.69,-43.56
0.004210,0.36,0.20,1.06,-14.03,-5.88,-39.53
0.004220,0.31,0.19,1.06,-14.12,-6.55,-39.04
0.004240,0.28,0.17,1.07,-14.76,-11.82,-41.71
0.004250,0.30,0.17,1.05,-16.67,-15.80,-44.47
0.004260,0.33,0.19,1.01,-18.64,-11.95,-44.55
0.004280,0.34,0.20,1.00,-19.30,-7.36,-43.54
0.004290,0.33,0.21,0.99,-20.32,-6.03,-41.94
0.004300,0.33,0.21,0.98,-22.46,-5.19,-41.45
0.004320,0.35,0.20,0.97,-23.28,-4.81,-40.08
0.004330,0.32,0.18,0.97,-23.42,-6.81,-41.74
0.004350,0.34,0.18,0.96,-22.06,-8.29,-43.40
0.004360,0.38,0.18,0.96,-22.38,-8.21,-43.02
0.004370,0.39,0.19,0.94,-22.87,-1.22,-38.95
0.004390,0.37,0.19,0.94,-22.76,3.63,-36.06
0.004400,0.34,0.17,0.93,-20.90,5.24,-35.19
0.004410,0.31,0.15,0.96,-17.97,-3.42,-37.73
0.004430,0.31,0.14,1.01,-17.01,-14.67,-42.38
0.004440,0.39,0.15,1.00,-17.65,-12.92,-42.99
0.004450,0.43,0.16,0.98,-17.85,-5.28,-38.82
0.004470,0.43,0.16,0.97,-15.27,-1.07,-32.37
0.004480,0.37,0.15,1.03,-13.19,-1.66,-28.40
0.004490,0.31,0.14,1.06,-12.87,-6.58,-29.73
0.004510,0.29,0.13,1.05,-12.78,-10.09,-33.65
0.004520,0.31,0.13,1.01,-13.11,-8.89,-37.47
0.004540,0.36,0.14,0.99,-11.50,-4.76,-38.47
0.004550,0.38,0.15,1.01,-9.02,-2.52,-35.79
0.004560,0.36,0.16,1.05,-7.95,-3.85,-34.92
0.004580,0.34,0.15,1.08,-7.71,-8.12,-35.98
0.004590,0.36,0.16,1.08,-6.81,-13.08,-36.64
0.004600,0.39,0.17,1.06,-7.98,-14.81,-36.21
0.004620,0.41,0.17,1.02,-8.31,-11.19,-34.40
0.004630,0.41,0.16,1.00,-7.60,-8.24,-31.68
0.004640,0.42,0.16,1.00,-4.67,-6.61,-27.91
0.004660,0.40,0.15,1.06,-2.95,-4.67,-24.82
0.004670,0.37,0.14,1.10,-3.66,-7.80,-23.27
0.004680,0.33,0.13,1.09,-6.44,-13.11,-24.26
0.004700,0.32,0.13,1.05,-8.00,-16.49,-25.30
0.004710,0.32,0.14,1.01,-8.66,-14.32,-25.36
0.004720,0.32,0.14,0.98,-8.17,-7.25,-24.00
0.004740,0.30,0.12,1.00,-7.27,-2.69,-24.50
0.004750,0.28,0.12,1.02,-5.92,-6.09,-27.31
0.004760,0.28,0.13,1.07,-4.98,-14.96,-29.18
0.004780,0.30,0.15,1.07,-7.74,-19.56,-31.50
0.004790,0.33,0.14,1.03,-10.93,-13.97,-31.18
0.004810,0.34,0.13,1.00,-12.02,-9.04,-29.71
0.004820,0.33,0.13,1.01,-10.44,-7.22,-29.63
0.004830,0.33,0.14,1.03,-9.16,-10.23,-29.69
0.004850,0.32,0.14,1.06,-10.66,-11.04,-29.22
0.004860,0.31,0.15,1.05,-13.10,-13.37,-30.93
0.004870,0.31,0.14,1.04,-15.15,-16.52,-32.38
0.004890,0.32,0.16,1.02,-15.68,-16.03,-32.70
0.004900,0.32,0.14,1.00,-15.89,-14.41,-32.96
0.004910,0.33,0.15,1.01,-16.56,-13.44,-32.46
0.004930,0.32,0.15,1.01,-17.80,-16.63,-32.18
0.004940,0.32,0.16,0.98,-19.44,-18.32,-33.13
0.004950,0.32,0.17,0.96,-19.98,-14.34,-33.91
0.004970,0.35,0.15,0.93,-19.36,-6.27,-33.04
0.004980,0.34,0.14,0.93,-18.05,1.33,-31.57
0.005000,0.32,0.14,0.96,-16.50,-0.53,-31.77
0.005010,0.30,0.13,0.98,-14.66,-6.17,-33.10
0.005020,0.30,0.12,0.98,-15.21,-10.53,-33.08
0.005040,0.30,0.13,0.98,-16.40,-10.46,-34.75
0.005050,0.31,0.13,0.98,-16.06,-9.98,-36.98
0.005060,0.34,0.13,0.98,-14.75,-7.11,-36.53
0.005080,0.34,0.13,0.99,-13.18,-6.69,-35.37
0.005090,0.33,0.12,1.01,-11.88,-8.21,-35.19
0.005100,0.32,0.13,1.02,-12.09,-7.25,-36.05
0.005120,0.32,0.14,1.02,-12.95,-3.79,-36.66
0.005130,0.32,0.15,1.01,-13.95,-1.91,-37.33
0.005140,0.33,0.14,1.00,-13.89,-3.15,-38.61
0.005160,0.33,0.14,0.99,-13.30,-8.92,-39.27
0.005170,0.35,0.15,0.98,-12.58,-12.17,-39.65
0.005190,0.35,0.15,0.97,-12.00,-8.20,-39.50
0.005200,0.36,0.14,0.97,-11.86,-6.63,-40.37
0.005210,0.37,0.15,0.99,-11.28,-6.58,-40.52
0.005230,0.38,0.15,1.00,-11.01,-11.71,-40.93
0.005240,0.39,0.17,0.98,-11.36,-12.90,-39.01
0.005250,0.39,0.17,0.94,-13.54,-8.47,-37.18
0.005270,0.39,0.15,0.92,-12.93,-2.99,-34.70
0.005280,0.37,0.15,0.95,-9.25,1.88,-32.26
0.005290,0.35,0.15,1.00,-6.15,-2.67,-31.63
0.005310,0.34,0.15,1.02,-6.09,-9.31,-32.08
0.005320,0.30,0.15,1.01,-7.91,-16.32,-33.89
0.005330,0.32,0.15,0.99,-8.81,-13.51,-37.51
0.005350,0.35,0.15,0.96,-7.37,-7.88,-40.26
0.005360,0.38,0.16,0.99,-5.08,-2.66,-40.63
0.005370,0.40,0.17,1.01,-3.74,-3.47,-40.24
0.005390,0.38,0.18,1.04,-4.27,-11.73,-41.07
0.005400,0.41,0.18,1.04,-6.40,-16.58,-41.40
0.005420,0.45,0.20,1.01,-7.56,-13.48,-40.18
0.005430,0.47,0.20,0.99,-7.42,-5.30,-38.06
0.005440,0.48,0.20,0.99,-7.33,0.85,-36.11
0.005460,0.47,0.20,1.00,-6.81,-1.53,-34.81
0.005470,0.48,0.21,1.01,-6.52,-11.11,-33.91
0.005480,0.49,0.21,1.04,-6.81,-20.78,-32.52
0.005500,0.49,0.21,1.00,-6.41,-28.15,-30.64
0.005510,0.51,0.21,0.98,-4.58,-27.28,-29.15
0.005520,0.54,0.20,0.96,-4.32,-16.64,-26.64
0.005540,0.54,0.19,0.98,-2.18,-8.11,-23.50
0.005550,0.52,0.19,1.05,-1.82,-2.29,-20.09
0.005560,0.50,0.18,1.09,-1.01,-5.65,-18.52
0.005580,0.48,0.18,1.06,-0.18,-12.44,-16.84
0.005590,0.47,0.19,1.01,0.50,-16.52,-15.79
0.005600,0.49,0.19,0.95,-0.95,-11.19,-14.15
0.005620,0.48,0.20,0.92,-1.11,-4.03,-11.51
0.005630,0.46,0.19,0.95,-2.61,2.05,-10.67
0.005640,0.44,0.19,0.99,-3.82,1.34,-11.51
0.005660,0.42,0.19,1.01,-4.37,-5.42,-12.87
0.005670,0.44,0.19,1.02,-4.64,-10.26,-13.74
0.005680,0.46,0.19,0.99,-4.84,-8.78,-13.95
0.005700,0.50,0.19,0.95,-5.02,-0.24,-11.85
0.005710,0.50,0.19,0.94,-6.84,8.49,-8.90
0.005720,0.48,0.19,0.98,-5.16,8.17,-7.42
0.005740,0.45,0.18,1.01,-1.37,-0.05,-7.10
0.005750,0.46,0.18,1.01,1.34,-7.65,-7.28
0.005760,0.47,0.19,0.98,2.61,-8.78,-5.77
0.005780,0.48,0.19,0.93,4.47,-5.05,-2.76
0.005790,0.48,0.19,0.93,4.18,1.37,-0.92
0.005800,0.46,0.18,0.95,3.24,4.03,-0.06
0.005820,0.44,0.18,0.97,3.11,4.67,0.55
0.005830,0.42,0.16,1.00,3.50,3.34,0.52
0.005840,0.41,0.16,1.00,4.29,-0.38,0.27
0.005860,0.40,0.17,0.99,5.05,-2.60,-0.05
0.005870,0.42,0.17,0.98,4.99,-0.20,-0.67
0.005880,0.42,0.17,0.96,4.81,2.47,-0.09
0.005900,0.41,0.18,0.99,3.86,5.73,0.15
0.005910,0.40,0.17,0.99,2.89,7.30,0.37
0.005920,0.40,0.17,0.99,3.73,5.45,0.79
0.005940,0.39,0.18,0.98,4.69,3.37,0.78
0.005950,0.39,0.18,0.97,4.66,1.95,0.82
0.005960,0.38,0.18,0.96,4.32,1.21,0.75
0.005980,0.37,0.19,0.96,3.18,3.15,0.20
0.005990,0.37,0.19,0.97,0.93,5.36,-1.08
0.006000,0.37,0.18,0.99,-1.21,6.27,-1.11
0.006020,0.37,0.18,1.00,-1.51,3.24,-1.51
0.006030,0.38,0.19,1.00,-1.30,-1.83,-1.19
0.006040,0.39,0.19,1.01,-2.11,-2.99,-0.21
0.006060,0.39,0.20,1.00,-2.69,-4.46,0.66
0.006070,0.38,0.19,0.99,-3.08,-5.36,1.25
0.006080,0.36,0.19,0.98,-3.48,-6.96,0.75
0.006100,0.37,0.19,1.00,-4.20,-6.38,0.31
0.006110,0.37,0.18,1.01,-4.72,-7.21,-0.46
0.006120,0.37,0.17,1.01,-5.11,-8.52,-0.81
0.006140,0.38,0.18,1.01,-5.08,-11.36,-0.69
0.006150,0.38,0.18,1.01,-5.34,-13.94,-0.46
0.006160,0.38,0.18,1.00,-5.40,-14.61,-0.27
0.006180,0.37,0.18,1.00,-5.50,-15.53,-1.02
0.006190,0.38,0.17,0.99,-5.44,-15.28,-1.39
0.006200,0.38,0.17,1.00,-5.71,-15.51,-2.52
0.006220,0.39,0.18,1.00,-5.79,-12.46,-2.46
0.006230,0.39,0.17,1.00,-6.17,-7.21,-2.31
0.006240,0.39,0.18,1.00,-6.11,-3.56,-2.66
0.006260,0.39,0.18,1.00,-6.40,-1.65,-2.69
0.006270,0.39,0.18,0.99,-5.73,-1.11,-1.89
0.006280,0.39,0.17,0.97,-3.37,-4.06,-1.07
0.006300,0.38,0.18,0.98,-2.26,-6.95,-1.27
0.006310,0.38,0.18,0.97,-2.11,-5.51,-2.17
0.006320,0.39,0.18,0.96,-1.40,-3.74,-2.44
0.006340,0.39,0.18,0.97,-0.08,-1.28,-2.24
0.006350,0.39,0.17,0.99,0.69,0.73,-2.18
0.006360,0.40,0.17,1.01,1.60,1.66,-1.68
0.006380,0.39,0.17,1.02,2.61,-0.18,-1.28
0.006390,0.38,0.18,1.03,3.08,-3.10,-2.37
0.006400,0.39,0.18,1.00,2.95,-2.14,-3.25
0.006420,0.40,0.19,0.98,2.52,-0.20,-3.68
0.006430,0.41,0.19,0.96,2.53,0.66,-3.18
0.006440,0.42,0.19,0.98,2.18,2.52,-1.65
0.006460,0.42,0.19,1.00,1.76,3.11,-0.18
0.006470,0.40,0.19,1.02,1.05,2.14,0.60
0.006480,0.39,0.19,1.01,0.49,-3.15,0.12
0.006490,0.38,0.19,1.00,-0.41,-6.55,-0.17
0.006510,0.39,0.19,0.98,-1.30,-6.02,-0.47
0.006520,0.39,0.20,0.96,-1.82,-4.75,-0.87
0.006530,0.40,0.19,0.98,-2.17,-5.77,-0.92
0.006550,0.41,0.20,1.00,-2.75,-5.57,-0.82
0.006560,0.42,0.20,1.01,-3.36,-5.50,0.08
0.006570,0.41,0.20,1.01,-3.88,-4.52,0.73
0.006590,0.41,0.20,1.01,-4.02,-3.28,0.90
0.006600,0.41,0.20,1.01,-4.02,-3.33,1.51
0.006610,0.41,0.20,1.01,-4.08,-1.16,2.23
0.006630,0.40,0.19,1.00,-3.34,-0.53,2.18
0.006640,0.40,0.19,0.99,-2.70,-0.26,2.47
0.006650,0.39,0.18,1.00,-2.41,-0.81,1.89
0.006670,0.39,0.19,1.01,-2.03,-1.69,1.36
0.006680,0.40,0.18,1.01,-2.15,-1.54,1.40
