Time,acce_x,acce_y,acce_z,gyro_x,gyro_y,gyro_z
0.000010,0.21,-0.07,0.94,-59.04,-1.76,-43.11
0.000020,0.21,-0.06,0.91,-45.18,-10.17,-46.92
0.000030,0.29,-0.08,0.90,-34.66,-8.38,-41.34
0.000050,0.28,-0.04,0.88,-31.07,-3.98,-46.60
0.000060,0.25,-0.02,0.92,-15.21,-1.74,-47.56
0.000070,0.25,-0.01,0.93,-11.19,-4.63,-49.71
0.000090,0.24,-0.01,0.91,-1.88,-3.22,-51.07
0.000100,0.31,0.01,0.96,4.98,-13.30,-43.76
0.000110,0.31,0.08,1.03,2.69,-13.19,-44.41
0.000130,0.36,0.08,1.05,7.10,-14.73,-40.55
0.000140,0.39,0.11,1.10,4.61,-12.92,-32.90
0.000150,0.36,0.09,1.10,7.89,-8.49,-30.38
0.000170,0.36,0.09,1.09,12.95,-6.87,-26.21
0.000180,0.35,0.12,1.09,11.95,-15.28,-22.61
0.000190,0.34,0.09,1.04,15.28,-16.79,-22.60
0.000210,0.37,0.09,1.00,16.09,-17.77,-19.76
0.000220,0.35,0.09,0.98,19.53,-16.82,-17.18
0.000230,0.37,0.08,0.98,22.69,-16.55,-15.25
0.000250,0.38,0.08,1.01,24.23,-12.60,-12.70
0.000260,0.38,0.08,1.04,23.08,-6.23,-9.92
0.000270,0.38,0.08,1.07,21.53,0.99,-7.71
0.000290,0.36,0.08,1.09,19.76,5.24,-5.66
0.000300,0.35,0.08,1.12,16.99,6.26,-4.31
0.000310,0.35,0.09,1.11,13.10,5.19,-2.93
0.000330,0.32,0.07,1.10,10.27,4.31,-2.63
0.000340,0.34,0.06,1.08,8.02,3.92,-2.66
0.000350,0.34,0.06,1.07,5.62,4.73,-1.94
0.000370,0.35,0.06,1.06,4.00,6.50,-1.24
0.000380,0.35,0.07,1.06,2.56,8.67,-0.18
0.000390,0.35,0.07,1.06,1.08,10.50,0.95
0.000410,0.33,0.07,1.06,-0.20,11.05,2.05
0.000420,0.34,0.07,1.04,-0.67,12.31,3.34
0.000430,0.34,0.07,1.02,-0.52,12.85,4.69
0.000450,0.32,0.06,1.02,-0.29,13.57,5.19
0.000460,0.31,0.06,1.03,1.42,12.17,4.99
0.000470,0.29,0.07,1.05,2.95,8.84,4.76
0.000490,0.27,0.07,1.09,1.91,4.02,4.23
0.000500,0.27,0.07,1.08,0.37,-1.28,3.76
0.000510,0.27,0.07,1.06,-0.17,-5.66,3.19
0.000520,0.27,0.07,1.06,-0.63,-7.47,2.14
0.000540,0.29,0.07,1.06,-0.66,-8.38,1.68
0.000550,0.29,0.06,1.05,0.21,-8.18,1.54
0.000560,0.28,0.05,1.05,0.98,-10.34,1.22
0.000580,0.28,0.06,1.06,1.56,-12.21,0.50
0.000590,0.28,0.06,1.05,2.15,-13.57,-0.37
0.000600,0.28,0.05,1.05,3.34,-16.29,-0.73
0.000620,0.29,0.07,1.05,5.18,-17.25,-0.87
0.000630,0.30,0.07,1.03,6.00,-17.86,-0.82
0.000640,0.31,0.06,1.03,7.24,-14.98,-0.12
0.000660,0.32,0.07,1.02,8.03,-12.92,0.41
0.000670,0.32,0.06,1.02,8.89,-11.19,0.66
0.000680,0.30,0.06,1.02,10.20,-9.89,0.40
0.000700,0.28,0.06,1.02,11.37,-9.42,-2.29
0.000710,0.30,0.07,1.02,12.11,-8.90,-4.21
0.000720,0.33,0.09,1.03,12.93,-5.73,-4.02
0.000740,0.34,0.10,1.03,13.85,-3.11,-3.73
0.000750,0.35,0.11,1.07,14.66,-2.69,-2.23
0.000760,0.36,0.12,1.10,12.58,-3.33,0.18
0.000780,0.36,0.13,1.10,7.95,-0.67,2.95
0.000790,0.35,0.13,1.09,3.45,2.78,5.01
0.000800,0.34,0.13,1.08,0.12,4.35,6.89
0.000820,0.32,0.12,1.05,-2.27,4.89,7.45
0.000830,0.31,0.12,1.03,-3.68,5.11,8.00
0.000840,0.31,0.12,1.02,-4.76,5.80,8.87
0.000860,0.30,0.12,1.02,-4.96,6.64,9.04
0.000870,0.29,0.10,1.02,-5.59,8.96,8.55
0.000880,0.28,0.10,1.02,-5.98,10.35,8.38
0.000900,0.26,0.09,1.02,-6.38,10.31,7.24
0.000910,0.26,0.08,1.04,-5.83,9.34,6.05
0.000920,0.26,0.08,1.05,-6.93,9.02,5.65
0.000940,0.24,0.08,1.04,-8.23,7.74,3.80
0.000950,0.22,0.06,1.03,-8.82,6.34,0.00
0.000960,0.26,0.07,1.02,-6.49,-0.70,-1.02
0.000970,0.26,0.09,1.03,-4.93,0.32,-0.60
0.000990,0.29,0.09,1.04,-5.80,0.76,-0.34
0.001000,0.29,0.10,1.04,-7.83,4.20,1.47
0.001010,0.28,0.08,1.03,-8.75,6.02,2.21
0.001030,0.27,0.08,1.02,-7.73,4.24,1.95
0.001040,0.27,0.08,1.02,-7.21,2.17,2.03
0.001050,0.27,0.07,1.01,-6.66,-1.13,1.92
0.001070,0.28,0.07,1.02,-7.16,-0.72,1.89
0.001080,0.28,0.08,1.01,-6.26,0.93,1.56
0.001090,0.27,0.08,1.02,-5.86,0.31,-0.03
0.001110,0.27,0.08,1.05,-5.68,-0.95,-0.66
0.001120,0.27,0.08,1.07,-5.83,-2.99,-0.92
0.001130,0.27,0.07,1.07,-6.85,-5.54,-1.05
0.001150,0.27,0.06,1.07,-7.62,-6.90,-1.31
0.001160,0.28,0.05,1.04,-7.34,-7.01,-2.02
0.001170,0.28,0.06,1.04,-5.79,-6.11,-2.40
0.001190,0.29,0.07,1.05,-4.29,-6.41,-2.93
0.001200,0.29,0.07,1.04,-3.15,-6.41,-2.82
0.001210,0.28,0.06,1.06,-2.29,-7.51,-2.98
0.001230,0.29,0.07,1.05,-1.37,-8.69,-2.69
0.001240,0.30,0.07,1.05,-1.02,-8.17,-2.58
0.001250,0.31,0.07,1.05,-1.88,-5.85,-1.73
0.001270,0.31,0.08,1.06,-1.30,-3.71,-0.21
0.001280,0.31,0.08,1.07,-0.98,-3.97,2.23
0.001290,0.28,0.07,1.06,-2.63,-1.22,1.80
0.001310,0.30,0.07,1.06,-0.84,-6.70,2.32
0.001320,0.25,0.06,1.06,-3.28,-2.00,-0.47
0.001330,0.27,0.07,1.06,-0.78,-4.60,-2.72
0.001350,0.28,0.08,1.06,-1.86,-4.14,-2.49
0.001360,0.29,0.08,1.07,-2.14,-4.56,-1.57
0.001370,0.28,0.06,1.06,-4.38,-4.46,-0.99
0.001390,0.28,0.05,1.04,-3.25,-3.68,-0.64
0.001400,0.28,0.05,1.05,-2.31,-4.20,-0.52
0.001410,0.27,0.05,1.05,-2.34,-3.91,-1.11
0.001430,0.25,0.04,1.04,-2.37,-2.34,-2.06
0.001440,0.25,0.09,1.04,-4.14,-0.18,-3.01
0.001450,0.21,0.06,1.02,-3.44,-3.21,-9.95
0.001470,0.25,0.07,1.02,2.78,-2.12,-11.50
0.001480,0.29,0.08,1.02,4.73,5.05,-8.64
0.001490,0.24,0.09,1.05,1.92,1.92,-11.97
0.001510,0.20,0.09,1.08,-2.27,3.89,-13.45
0.001520,0.21,0.09,1.07,-1.73,2.15,-15.56
0.001530,0.23,0.11,1.09,-2.00,-1.57,-14.50
0.001550,0.19,0.10,1.10,-2.53,-1.42,-15.51
0.001560,0.24,0.10,1.09,-5.54,-0.31,-15.56
0.001570,0.21,0.11,1.08,-7.91,-0.70,-16.35
0.001590,0.19,0.11,1.06,-7.30,-1.59,-17.21
0.001600,0.19,0.10,1.06,-6.05,-6.49,-18.63
0.001620,0.20,0.10,1.05,-4.43,-5.66,-19.74
0.001630,0.19,0.09,1.03,-3.54,-0.23,-19.88
0.001640,0.20,0.10,1.03,-3.05,-0.50,-21.60
0.001660,0.30,0.16,1.06,-9.83,0.82,-13.66
0.001670,0.15,0.11,1.07,-3.68,6.24,-23.36
0.001680,0.27,0.12,1.10,0.05,5.15,-24.06
0.001700,0.24,0.12,1.17,-2.93,1.48,-20.76
0.001710,0.23,0.11,1.15,-6.73,3.88,-20.38
0.001720,0.24,0.10,1.13,-10.87,2.43,-20.93
0.001740,0.23,0.09,1.11,-11.37,0.34,-22.53
0.001750,0.24,0.09,1.08,-11.50,-2.15,-22.75
0.001760,0.26,0.09,1.07,-11.95,-2.24,-23.34
0.001780,0.27,0.10,1.05,-13.02,-0.75,-22.56
0.001790,0.28,0.10,1.04,-14.00,0.56,-22.12
0.001800,0.26,0.09,1.04,-14.05,0.58,-21.56
0.001820,0.25,0.08,1.02,-14.15,2.26,-22.69
0.001830,0.25,0.06,1.00,-14.09,5.36,-24.31
0.001840,0.23,0.04,1.00,-13.36,5.59,-27.34
0.001860,0.25,0.06,1.01,-12.63,4.20,-30.32
0.001870,0.27,0.07,1.00,-12.21,3.07,-32.05
0.001880,0.31,0.08,1.01,-10.95,2.02,-30.05
0.001900,0.32,0.08,1.03,-9.56,-0.41,-27.66
0.001910,0.29,0.08,1.08,-10.40,-1.15,-27.25
0.001920,0.29,0.07,1.08,-13.45,-0.44,-27.69
0.001940,0.28,0.07,1.07,-16.08,0.06,-29.51
0.001950,0.29,0.07,1.05,-16.12,-1.91,-30.41
0.001970,0.30,0.07,1.03,-15.21,-4.34,-29.95
0.001980,0.30,0.08,1.03,-14.38,-5.65,-29.11
0.001990,0.30,0.09,1.02,-14.38,-6.03,-27.82
0.002010,0.30,0.09,1.02,-13.86,-5.44,-26.44
0.002020,0.29,0.09,1.02,-13.15,-4.32,-24.17
0.002030,0.25,0.07,1.03,-12.60,-3.30,-22.90
0.002050,0.22,0.03,1.03,-13.24,-3.15,-23.83
0.002060,0.22,0.06,1.03,-11.79,-3.33,-25.31
0.002070,0.21,0.06,1.03,-11.37,-4.23,-26.38
0.002090,0.20,0.06,1.03,-10.66,-5.22,-28.44
0.002100,0.19,0.05,1.03,-10.32,-5.83,-30.87
0.002110,0.20,0.06,1.03,-8.84,-7.10,-31.45
0.002130,0.18,0.05,1.04,-8.87,-10.40,-33.47
0.002140,0.20,0.05,1.04,-7.79,-9.30,-34.60
0.002150,0.21,0.06,1.05,-7.69,-13.10,-34.63
0.002170,0.21,0.08,1.04,-6.55,-12.66,-35.54
0.002180,0.21,0.07,1.04,-6.75,-14.75,-36.95
0.002200,0.22,0.05,1.03,-6.14,-15.48,-37.13
0.002210,0.24,0.08,1.04,-5.25,-12.18,-37.89
0.002220,0.27,0.08,1.07,-5.97,-8.08,-36.53
0.002240,0.27,0.08,1.08,-8.50,-3.39,-35.04
0.002250,0.27,0.09,1.07,-9.82,0.12,-33.34
0.002260,0.27,0.10,1.07,-10.05,0.82,-34.14
0.002280,0.29,0.08,1.07,-10.12,-0.21,-34.93
0.002290,0.29,0.07,1.07,-11.13,-2.26,-34.03
0.002300,0.30,0.06,1.06,-11.71,-3.88,-32.75
0.002320,0.28,0.05,1.06,-12.52,-8.96,-32.37
0.002330,0.28,0.05,1.04,-11.51,-10.99,-33.39
0.002340,0.29,0.04,1.04,-10.64,-11.60,-36.34
0.002360,0.30,0.06,1.03,-9.91,-10.21,-36.66
0.002370,0.34,0.06,1.01,-9.76,-6.50,-36.72
0.002380,0.32,0.06,1.02,-8.69,-7.34,-36.14
0.002400,0.32,0.06,1.02,-8.50,-9.44,-35.83
0.002410,0.32,0.06,0.99,-7.22,-11.63,-35.68
0.002420,0.31,0.06,1.01,-6.35,-14.08,-35.88
0.002440,0.32,0.06,0.99,-5.48,-13.91,-36.53
0.002450,0.33,0.06,0.99,-4.40,-12.49,-36.17
0.002470,0.33,0.06,1.00,-3.92,-8.98,-36.32
0.002480,0.33,0.06,1.01,-3.40,-5.39,-36.69
0.002490,0.33,0.06,1.00,-2.93,-2.41,-36.41
0.002510,0.31,0.07,1.01,-2.40,-2.89,-37.42
0.002520,0.31,0.08,1.01,-1.18,-2.05,-38.15
0.002530,0.33,0.09,1.00,-0.31,-4.14,-37.45
0.002550,0.31,0.09,0.99,-0.34,1.77,-37.59
0.002560,0.32,0.09,0.99,1.22,2.41,-37.44
0.002570,0.30,0.09,1.02,3.57,3.54,-36.64
0.002590,0.31,0.09,1.09,5.50,4.93,-36.72
0.002600,0.30,0.10,1.14,4.34,4.03,-34.64
0.002610,0.26,0.10,1.15,0.23,-1.86,-35.48
0.002630,0.24,0.10,1.14,-4.41,-8.73,-37.36
0.002640,0.23,0.10,1.09,-7.42,-16.93,-40.35
0.002650,0.25,0.10,1.04,-7.22,-21.37,-42.44
0.002670,0.29,0.11,1.01,-5.44,-21.18,-43.13
0.002680,0.30,0.12,1.04,-4.47,-17.63,-43.10
0.002690,0.31,0.13,1.06,-6.14,-13.89,-41.56
0.002710,0.30,0.14,1.05,-10.00,-14.90,-40.43
0.002720,0.29,0.13,1.04,-11.37,-16.20,-40.69
0.002730,0.30,0.13,1.02,-11.91,-15.53,-40.85
0.002750,0.30,0.14,1.00,-12.85,-13.91,-41.13
0.002760,0.30,0.14,0.99,-13.44,-10.73,-41.10
0.002780,0.30,0.13,0.97,-13.59,-11.66,-41.25
0.002790,0.30,0.14,0.97,-12.64,-13.97,-41.76
0.002800,0.30,0.15,0.97,-11.42,-18.21,-42.12
0.002820,0.31,0.15,0.98,-10.03,-21.86,-41.57
0.002830,0.31,0.14,0.99,-9.62,-21.66,-42.14
0.002840,0.30,0.13,0.99,-9.71,-20.82,-44.93
0.002860,0.35,0.13,1.01,-8.99,-18.61,-47.34
0.002870,0.38,0.14,1.03,-8.14,-10.69,-47.92
0.002880,0.42,0.14,1.06,-8.11,-4.87,-45.68
0.002900,0.40,0.15,1.08,-9.22,-4.43,-44.27
0.002910,0.42,0.15,1.05,-10.56,-5.74,-43.11
0.002920,0.40,0.16,1.05,-9.71,-8.82,-41.83
0.002940,0.41,0.15,1.06,-7.89,-10.93,-40.96
0.002950,0.42,0.16,1.07,-7.40,-10.69,-39.50
0.002960,0.42,0.16,1.07,-8.95,-10.34,-37.82
0.002980,0.43,0.16,1.04,-10.93,-12.09,-31.92
0.002990,0.42,0.16,1.02,-11.25,-11.25,-32.85
0.003010,0.42,0.16,1.00,-10.20,-8.09,-30.96
0.003020,0.43,0.17,1.00,-9.59,-7.34,-23.69
0.003030,0.43,0.16,1.01,-9.73,0.17,-25.74
0.003050,0.41,0.16,1.02,-10.95,0.85,-22.98
0.003060,0.40,0.14,1.02,-12.11,-1.53,-20.27
0.003070,0.36,0.16,1.02,-12.44,-4.58,-16.70
0.003090,0.36,0.13,1.01,-11.82,-4.53,-19.42
0.003100,0.34,0.13,1.01,-11.47,-2.06,-21.28
0.003110,0.34,0.12,1.00,-10.87,-0.75,-22.31
0.003130,0.34,0.13,1.01,-10.03,-1.02,-24.60
0.003140,0.36,0.12,1.03,-9.08,-1.82,-25.31
0.003150,0.37,0.13,1.05,-9.25,-3.08,-25.37
0.003170,0.39,0.11,1.05,-10.40,-3.54,-23.80
0.003180,0.38,0.12,1.04,-11.51,-2.96,-23.53
0.003190,0.37,0.13,1.03,-11.10,-1.79,-22.08
0.003210,0.34,0.12,1.04,-10.15,-3.05,-22.46
0.003220,0.36,0.13,1.06,-10.27,-1.31,-22.34
0.003240,0.34,0.12,1.06,-10.67,-0.18,-22.23
0.003250,0.31,0.11,1.05,-11.77,-1.97,-23.21
0.003260,0.28,0.17,1.06,-12.08,-3.24,-23.62
0.003280,0.33,0.11,1.03,-11.50,-1.36,-24.60
0.003290,0.35,0.10,1.01,-11.25,-1.42,-23.16
0.003300,0.34,0.11,1.02,-11.25,-2.29,-21.33
0.003320,0.33,0.10,1.03,-11.05,-1.89,-23.07
0.003330,0.30,0.10,1.04,-10.64,-0.09,-25.39
0.003340,0.31,0.09,1.04,-10.67,-2.70,-27.68
0.003360,0.31,0.08,1.01,-9.92,-5.71,-28.73
0.003370,0.30,0.09,1.04,-9.01,-6.66,-30.93
0.003380,0.29,0.09,1.04,-9.10,-7.45,-32.73
0.003400,0.32,0.10,1.03,-9.19,-8.95,-34.00
0.003410,0.31,0.10,1.00,-8.98,-8.53,-34.72
0.003420,0.32,0.11,0.99,-8.00,-11.04,-30.99
0.003440,0.32,0.10,1.01,-6.89,-5.27,-34.81
0.003450,0.31,0.10,1.01,-6.98,-4.26,-36.92
0.003460,0.31,0.11,1.01,-7.24,-6.35,-40.05
0.003480,0.33,0.12,1.00,-6.63,-8.99,-40.24
0.003490,0.33,0.14,1.00,-6.38,-13.59,-40.67
0.003510,0.35,0.14,1.00,-6.08,-12.78,-40.27
0.003520,0.35,0.13,1.00,-5.07,-10.18,-40.03
0.003530,0.34,0.13,1.02,-4.58,-10.60,-39.66
0.003550,0.34,0.12,1.02,-3.91,-8.53,-38.43
0.003560,0.35,0.13,1.00,-4.27,-5.92,-36.63
0.003570,0.35,0.13,0.99,-3.85,-1.94,-35.77
0.003590,0.36,0.15,0.99,-3.54,2.41,-34.63
0.003600,0.34,0.16,1.02,-3.82,5.22,-33.10
0.003610,0.33,0.14,1.02,-4.35,8.11,-34.85
0.003630,0.33,0.14,1.03,-4.44,5.77,-35.15
0.003640,0.31,0.14,1.05,-4.60,0.95,-36.14
0.003650,0.32,0.15,1.07,-4.72,-3.74,-36.24
0.003670,0.32,0.17,1.04,-5.34,-6.06,-34.78
0.003680,0.33,0.17,1.01,-6.38,-7.94,-36.32
0.003690,0.35,0.18,1.00,-6.17,-7.05,-35.51
0.003710,0.34,0.17,1.00,-6.87,-6.63,-33.85
0.003720,0.33,0.17,1.01,-7.68,-5.53,-34.02
0.003730,0.33,0.16,1.01,-7.27,-8.55,-35.82
0.003750,0.34,0.16,1.01,-7.31,-10.73,-36.75
0.003760,0.36,0.17,1.02,-7.77,-8.29,-35.60
0.003770,0.35,0.18,1.04,-7.94,-7.34,-34.17
0.003790,0.36,0.18,1.02,-8.31,-6.17,-32.95
0.003800,0.33,0.18,0.99,-7.66,-7.83,-31.97
0.003810,0.31,0.16,1.00,-6.87,-9.40,-33.08
0.003830,0.31,0.17,1.01,-7.47,-10.60,-35.07
0.003840,0.33,0.17,0.99,-7.60,-8.11,-35.24
0.003860,0.33,0.17,0.97,-7.77,-3.31,-35.01
0.003870,0.34,0.15,0.95,-7.05,-1.88,-35.19
0.003880,0.31,0.18,0.99,-4.31,-4.50,-30.34
0.003900,0.29,0.17,1.03,-3.33,-1.40,-34.82
0.003910,0.22,0.21,1.08,-4.79,-1.47,-36.53
0.003920,0.23,0.15,1.04,-3.69,1.47,-43.16
0.003940,0.27,0.16,1.00,-3.10,-8.17,-44.00
0.003950,0.27,0.17,1.00,-3.22,-0.69,-47.28
0.003960,0.28,0.18,0.98,-2.12,-8.61,-46.64
0.003980,0.29,0.17,0.97,2.43,-10.35,-48.89
0.003990,0.26,0.17,0.96,6.89,-21.25,-45.69
0.004000,0.20,0.19,1.00,10.26,-33.48,-50.00
0.004020,0.28,0.16,0.96,8.84,-30.11,-49.05
0.004030,0.30,0.19,0.93,4.32,-21.85,-59.94
0.004040,0.42,0.24,0.89,2.53,-9.50,-57.60
0.004060,0.49,0.23,0.92,0.00,0.66,-61.85
0.004070,0.55,0.25,0.98,-2.15,13.44,-58.35
0.004080,0.53,0.26,1.03,-0.21,21.76,-51.39
0.004100,0.52,0.25,1.03,0.44,23.83,-44.14
0.004110,0.49,0.26,0.99,2.06,18.99,-38.70
0.004120,0.57,0.27,0.97,3.92,14.69,-32.14
0.004140,0.54,0.27,0.97,5.04,11.10,-27.65
0.004150,0.71,0.30,1.01,3.60,24.93,-12.43
0.004160,0.69,0.32,1.05,2.96,34.18,4.27
0.004180,0.68,0.28,1.05,1.73,45.59,12.49
0.004190,0.54,0.25,1.01,4.27,38.52,14.03
0.004200,0.49,0.25,1.01,6.44,27.76,11.91
0.004220,0.44,0.25,0.97,9.51,6.27,11.30
0.004230,0.47,0.26,1.01,9.97,0.00,15.19
0.004240,0.47,0.27,1.03,5.39,2.08,17.08
0.004260,0.47,0.26,1.03,2.93,9.94,23.27
0.004270,0.46,0.27,1.02,-0.09,11.79,23.54
0.004280,0.45,0.27,1.01,0.15,9.22,25.89
0.004300,0.42,0.26,1.03,0.11,7.56,28.89
0.004310,0.37,0.25,1.04,-1.39,3.50,29.79
0.004320,0.36,0.25,1.02,-2.69,-0.24,29.10
0.004340,0.36,0.26,1.03,-3.68,-3.27,28.79
0.004350,0.36,0.25,1.03,-3.89,-3.98,29.73
0.004360,0.37,0.26,1.02,-5.16,-5.66,30.60
0.004380,0.37,0.25,1.00,-4.60,-5.44,31.63
0.004390,0.36,0.25,1.01,-2.78,-5.16,33.02
0.004400,0.35,0.25,1.01,-2.76,-2.76,34.67
0.004420,0.34,0.24,1.01,-4.72,0.26,35.25
0.004430,0.33,0.23,1.02,-4.12,0.46,35.36
0.004440,0.32,0.24,1.01,-3.74,1.07,35.11
0.004460,0.33,0.23,1.00,-3.80,-0.03,33.85
0.004470,0.35,0.23,1.00,-2.55,-0.09,34.99
0.004480,0.35,0.24,1.00,-2.03,-2.11,35.97
0.004500,0.33,0.22,1.01,-1.71,-1.79,37.77
0.004510,0.33,0.23,1.02,-3.22,-1.47,38.27
0.004520,0.36,0.23,1.00,-1.25,7.13,38.52
0.004540,0.37,0.23,1.00,-1.63,13.36,39.63
0.004550,0.37,0.23,0.97,-2.18,20.79,43.95
0.004560,0.33,0.24,0.96,-1.22,18.50,46.90
0.004580,0.28,0.23,0.97,1.30,13.89,49.13
0.004590,0.25,0.23,0.98,1.24,8.82,47.39
0.004600,0.26,0.22,0.99,-0.24,5.91,45.50
0.004620,0.26,0.22,1.00,-0.56,4.70,44.64
0.004630,0.26,0.22,1.00,0.20,4.47,44.11
0.004640,0.28,0.23,1.01,-0.15,6.87,44.05
0.004660,0.26,0.22,1.04,-1.79,5.98,44.61
0.004670,0.25,0.22,1.05,-4.15,5.44,45.22
0.004680,0.22,0.21,1.06,-1.36,4.11,44.66
0.004700,0.23,0.22,1.08,-1.30,4.87,44.23
0.004710,0.23,0.21,1.06,-2.50,5.63,41.86
0.004720,0.25,0.21,1.05,-4.46,4.75,38.92
0.004740,0.24,0.21,1.07,-4.31,5.54,39.27
0.004750,0.22,0.19,1.08,-2.84,4.78,39.18
0.004760,0.22,0.18,1.09,-1.25,7.44,39.02
0.004780,0.23,0.18,1.08,1.44,9.01,38.18
0.004790,0.23,0.18,1.06,3.51,11.85,36.73
0.004800,0.24,0.19,1.06,4.43,12.05,34.67
0.004820,0.28,0.19,1.04,5.91,14.37,36.27
0.004830,0.28,0.21,1.04,10.27,12.82,39.77
0.004840,0.25,0.18,1.05,15.77,10.35,41.69
0.004860,0.24,0.17,1.06,18.44,11.21,39.82
0.004870,0.23,0.19,1.05,20.53,9.54,37.86
0.004880,0.25,0.19,1.02,23.59,9.33,38.18
0.004900,0.27,0.19,1.03,25.62,8.20,38.41
0.004910,0.27,0.21,1.01,27.91,6.81,36.76
0.004920,0.26,0.23,1.04,24.64,2.49,40.61
0.004930,0.26,0.22,1.01,26.37,5.54,38.05
0.004950,0.29,0.21,1.00,20.79,2.41,39.50
0.004960,0.25,0.22,1.00,20.38,7.57,40.15
0.004970,0.31,0.22,0.99,17.10,8.29,39.34
0.004990,0.30,0.23,1.01,15.01,6.64,39.50
0.005000,0.33,0.26,1.02,13.10,4.99,41.56
0.005010,0.33,0.26,1.03,10.27,4.52,44.06
0.005030,0.31,0.26,1.03,6.66,2.78,45.74
0.005040,0.30,0.25,1.04,3.04,3.02,46.79
0.005050,0.30,0.23,1.04,-0.06,1.37,47.79
0.005070,0.31,0.24,1.03,-2.90,-1.15,48.73
0.005080,0.30,0.24,1.02,-5.85,-6.82,49.68
0.005090,0.31,0.23,1.00,-8.66,-9.88,49.68
0.005110,0.31,0.22,0.98,-11.31,-9.45,49.10
0.005120,0.31,0.23,1.01,-14.00,-4.49,47.05
0.005130,0.31,0.21,1.04,-14.82,0.60,46.99
0.005150,0.30,0.21,1.09,-15.19,6.20,49.10
0.005160,0.28,0.19,1.10,-16.15,6.34,51.02
0.005170,0.22,0.16,1.09,-19.19,2.85,49.21
0.005190,0.25,0.15,1.07,-22.27,-6.29,45.47
0.005200,0.24,0.16,1.02,-22.14,-6.05,43.88
0.005210,0.25,0.15,0.99,-21.10,-5.63,39.07
0.005230,0.28,0.13,0.98,-15.83,5.19,41.16
0.005240,0.23,0.13,1.03,-10.95,9.44,41.15
0.005260,0.27,0.13,1.07,-7.30,11.73,43.69
0.005270,0.22,0.13,1.07,-7.86,9.31,43.36
0.005280,0.19,0.12,1.06,-9.60,5.65,42.23
0.005300,0.22,0.12,1.05,-8.08,3.11,41.11
0.005310,0.24,0.10,1.03,-3.33,9.63,42.46
0.005320,0.24,0.12,1.06,0.70,20.66,44.05
0.005330,0.23,0.15,1.10,-1.71,18.98,42.00
0.005350,0.19,0.12,1.05,-2.08,33.25,46.32
0.005360,0.19,0.11,1.05,1.13,21.19,44.64
0.005370,0.16,0.10,1.07,2.99,13.82,45.89
0.005390,0.14,0.09,1.03,2.15,15.07,43.91
0.005400,0.15,0.08,1.02,1.56,11.77,41.66
0.005410,0.15,0.09,1.02,4.69,17.07,38.58
0.005430,0.14,0.09,1.04,6.02,20.98,35.08
0.005440,0.18,0.08,1.05,6.60,28.81,34.27
0.005450,0.15,0.08,1.09,7.19,24.61,32.02
0.005470,0.17,0.09,1.11,5.56,18.76,30.66
0.005480,0.17,0.10,1.11,3.79,12.09,29.34
0.005490,0.18,0.10,1.10,2.81,6.05,29.68
0.005510,0.18,0.10,1.08,3.94,1.05,28.66
0.005520,0.21,0.11,1.08,5.36,1.94,28.46
0.005530,0.22,0.11,1.08,5.22,5.86,28.64
0.005550,0.23,0.11,1.08,4.12,7.60,28.41
0.005560,0.24,0.12,1.07,5.18,8.56,28.72
0.005570,0.24,0.12,1.08,6.20,8.00,30.82
0.005590,0.24,0.13,1.07,8.11,8.47,33.51
0.005600,0.23,0.13,1.06,7.24,5.56,34.92
0.005610,0.23,0.13,1.05,7.08,6.20,36.08
0.005630,0.22,0.10,1.04,8.40,5.94,36.35
0.005640,0.21,0.11,1.04,9.42,5.54,35.13
0.005650,0.22,0.11,1.04,10.58,7.28,35.22
0.005670,0.22,0.12,1.05,9.65,5.71,35.59
0.005680,0.20,0.11,1.05,12.46,5.24,35.77
0.005690,0.20,0.12,1.07,13.66,3.21,35.68
0.005710,0.19,0.12,1.07,12.00,1.47,34.76
0.005720,0.19,0.13,1.07,8.99,0.90,34.14
0.005730,0.20,0.12,1.04,7.88,2.21,33.59
0.005750,0.19,0.12,1.04,6.75,-1.92,32.09
0.005760,0.19,0.12,1.05,7.47,-4.37,32.32
0.005770,0.19,0.12,1.07,6.78,-6.41,32.23
0.005790,0.18,0.12,1.07,3.44,-11.11,30.95
0.005800,0.20,0.12,1.06,0.32,-10.50,29.40
0.005810,0.20,0.13,1.05,-2.67,-8.78,28.76
0.005830,0.22,0.13,1.02,-2.96,-5.98,28.17
0.005840,0.23,0.13,1.02,-1.42,-6.08,28.38
0.005850,0.23,0.13,1.06,0.05,-8.27,30.41
0.005870,0.23,0.14,1.07,-2.92,-10.70,32.18
0.005880,0.20,0.13,1.04,-5.83,-12.56,33.15
0.005890,0.21,0.09,1.01,-6.63,-13.65,31.66
0.005910,0.16,0.09,0.98,-7.18,-15.62,22.66
0.005920,0.25,0.15,0.99,-4.52,-17.48,25.36
0.005930,0.26,0.10,0.99,-1.22,-10.34,26.98
0.005950,0.25,0.10,1.00,-1.33,-9.57,27.30
0.005960,0.25,0.11,1.00,-0.75,-6.24,28.29
0.005970,0.24,0.10,1.00,0.95,-3.86,27.37
0.005990,0.23,0.10,1.02,3.40,-3.97,25.83
0.006000,0.25,0.10,1.02,5.47,-2.18,25.76
0.006010,0.28,0.11,1.06,7.34,-4.92,25.98
0.006030,0.29,0.12,1.07,8.35,-3.27,27.98
0.006040,0.29,0.14,1.07,7.53,-3.24,31.04
0.006050,0.29,0.12,1.05,7.68,-1.18,33.53
0.006070,0.25,0.12,1.05,8.26,-0.67,34.18
0.006080,0.24,0.11,1.05,9.02,-0.60,33.68
0.006090,0.24,0.11,1.05,9.79,-1.18,33.68
0.006110,0.24,0.11,1.06,10.50,-1.69,34.49
0.006120,0.22,0.10,1.06,10.08,-3.63,34.61
0.006130,0.22,0.10,1.05,10.44,-5.63,34.11
0.006150,0.21,0.09,1.04,11.39,-5.10,33.53
0.006160,0.20,0.08,1.03,11.73,-1.71,31.98
0.006170,0.19,0.08,1.02,12.84,0.47,30.81
0.006190,0.17,0.07,1.06,14.15,-4.49,28.08
0.006200,0.18,0.08,1.07,14.46,-5.48,25.45
0.006210,0.20,0.09,1.06,11.16,-5.04,22.14
0.006230,0.23,0.11,1.04,9.22,-1.74,20.50
0.006240,0.25,0.12,1.03,9.25,0.11,20.20
0.006250,0.26,0.11,1.02,10.72,-1.37,20.99
0.006270,0.26,0.11,1.06,10.61,-3.40,20.75
0.006280,0.28,0.13,1.06,8.24,-1.71,21.68
0.006290,0.29,0.14,1.06,5.92,-1.57,23.92
0.006310,0.28,0.14,1.05,4.96,-1.62,24.82
0.006320,0.28,0.14,1.05,3.33,-1.76,25.68
0.006330,0.28,0.14,1.04,3.71,-1.36,25.31
0.006350,0.30,0.14,1.06,3.34,0.09,25.69
0.006360,0.30,0.14,1.07,1.27,1.71,26.72
0.006370,0.30,0.14,1.09,0.56,-0.76,28.56
0.006390,0.30,0.13,1.09,0.79,-1.34,29.47
0.006400,0.31,0.15,1.10,-1.15,-0.87,30.63
0.006410,0.27,0.14,1.11,-3.62,-2.24,30.87
0.006430,0.27,0.15,1.09,-4.73,-0.14,30.44
0.006440,0.28,0.14,1.06,-2.99,-3.97,30.81
0.006450,0.29,0.15,1.09,0.29,-2.38,31.16
0.006470,0.29,0.15,1.09,-1.97,5.05,30.37
0.006480,0.25,0.13,1.04,-4.49,18.92,32.43
0.006490,0.18,0.10,1.03,-0.21,12.78,33.53
0.006510,0.16,0.09,1.08,8.89,-7.39,32.58
0.006520,0.20,0.09,1.12,10.76,-13.54,29.22
0.006530,0.19,0.09,1.10,5.59,-6.53,26.24
0.006550,0.21,0.07,1.06,4.64,-0.89,24.67
0.006560,0.18,0.07,1.03,4.89,-3.30,18.60
0.006570,0.22,0.09,0.97,6.99,-2.15,18.06
0.006580,0.25,0.09,0.93,12.06,-1.19,18.67
0.006600,0.24,0.10,0.95,15.47,-0.32,19.63
0.006610,0.24,0.10,0.97,17.83,2.23,19.47
0.006620,0.23,0.10,1.01,18.26,2.61,19.56
0.006640,0.22,0.10,1.02,18.03,1.57,19.11
0.006650,0.22,0.11,1.02,16.41,2.90,16.34
0.006660,0.26,0.12,0.98,14.76,5.11,16.32
0.006680,0.29,0.13,0.97,14.99,5.60,18.82
