Time,acce_x,acce_y,acce_z,gyro_x,gyro_y,gyro_z
0.000010,0.01,0.12,1.06,-1.21,-2.03,0.21
0.000020,0.01,0.12,1.06,-0.34,-2.45,0.76
0.000030,0.02,0.13,1.07,-0.74,-2.34,0.72
0.000050,0.02,0.12,1.08,-1.39,-3.26,0.68
0.000060,0.02,0.12,1.07,-1.25,-3.50,1.34
0.000070,0.03,0.13,1.08,-0.54,0.23,0.90
0.000090,0.02,0.12,1.10,-1.79,-1.33,0.98
0.000100,0.00,0.11,1.08,-2.95,-2.97,0.54
0.000110,0.02,0.12,1.08,-3.24,-3.10,-0.15
0.000120,0.02,0.11,1.07,-2.31,-0.67,-0.44
0.000140,0.04,0.10,1.06,-1.98,-2.66,-0.28
0.000150,0.04,0.12,1.06,-1.70,-1.76,0.29
0.000160,0.04,0.13,1.07,-2.73,-1.34,0.83
0.000180,0.04,0.12,1.07,-3.23,0.92,1.30
0.000190,0.02,0.13,1.07,-2.75,0.77,1.32
0.000200,0.01,0.12,1.09,-3.08,-1.27,1.92
0.000220,0.00,0.12,1.08,-3.17,-3.15,1.25
0.000230,0.01,0.12,1.07,-4.02,-4.67,0.90
0.000240,0.02,0.12,1.07,-3.62,-2.45,0.47
0.000260,0.03,0.12,1.03,-3.83,-2.28,0.45
0.000270,0.04,0.12,1.03,-3.65,-1.40,1.02
0.000280,0.04,0.11,1.02,-2.27,-0.38,1.59
0.000300,0.03,0.11,1.03,-0.76,-0.13,2.44
0.000310,0.02,0.11,1.02,0.64,1.02,2.54
0.000320,0.01,0.11,1.04,0.73,0.53,2.42
0.000340,-0.00,0.10,1.05,1.04,1.60,1.77
0.000350,0.01,0.10,1.05,1.21,-0.49,1.07
0.000360,0.01,0.10,1.05,1.56,-0.34,0.23
0.000370,0.01,0.12,1.06,1.97,-1.14,0.34
0.000390,0.02,0.12,1.10,1.81,-1.45,0.01
0.000400,0.02,0.13,1.10,0.37,-3.66,-0.22
0.000410,0.03,0.14,1.10,-0.37,-2.69,0.20
0.000430,0.04,0.14,1.09,-0.62,-0.19,0.40
0.000440,0.04,0.14,1.11,-2.25,0.90,0.74
0.000450,0.03,0.13,1.09,-3.63,2.63,1.16
0.000470,0.02,0.12,1.07,-3.69,1.50,1.24
0.000480,0.01,0.11,1.06,-3.19,-0.01,1.23
0.000490,0.01,0.11,1.07,-1.89,1.24,0.73
0.000510,-0.01,0.10,1.05,-0.72,-2.30,0.27
0.000520,0.01,0.10,1.06,-0.19,-2.95,0.15
0.000530,0.01,0.12,1.08,-0.94,-3.24,0.22
0.000550,0.01,0.12,1.07,-1.24,-2.91,0.34
0.000560,0.01,0.12,1.07,-2.18,-3.57,0.60
0.000570,0.01,0.11,1.07,-2.15,-1.90,-0.07
0.000590,0.02,0.11,1.05,-1.43,-3.07,-0.66
0.000600,0.03,0.12,1.05,-1.00,-2.34,0.09
0.000610,0.03,0.13,1.06,-0.60,-1.18,0.38
0.000630,0.01,0.12,1.07,-0.71,-1.62,0.32
0.000640,0.02,0.11,1.05,-1.15,0.20,0.41
0.000650,-0.00,0.11,1.06,-1.39,-2.44,0.08
0.000660,0.00,0.11,1.06,-1.21,-4.81,-0.24
0.000680,0.02,0.11,1.04,-0.19,-3.98,-0.18
0.000690,0.02,0.12,1.06,0.22,-0.72,-0.69
0.000700,0.02,0.12,1.08,0.11,2.39,-0.32
0.000720,0.01,0.11,1.08,-0.76,1.69,-0.08
0.000730,0.00,0.12,1.07,-1.44,0.09,0.22
0.000740,0.00,0.11,1.07,-1.56,-0.16,0.37
0.000760,-0.02,0.10,1.07,-0.27,-0.92,-0.05
0.000770,-0.01,0.10,1.08,0.83,1.34,-0.17
0.000780,-0.00,0.11,1.08,-0.19,0.47,-0.54
0.000800,0.01,0.11,1.10,-0.85,3.00,-0.66
0.000810,0.00,0.12,1.09,-1.58,1.67,-0.58
0.000820,0.01,0.11,1.10,-1.81,3.70,-0.67
0.000840,0.00,0.12,1.09,-1.73,5.79,-0.53
0.000850,-0.01,0.11,1.09,-2.04,5.07,-0.55
0.000860,-0.02,0.12,1.09,-2.73,4.17,-1.34
0.000880,-0.02,0.12,1.08,-3.58,2.73,-1.72
0.000890,-0.01,0.12,1.08,-3.60,3.69,-1.89
0.000900,-0.03,0.12,1.07,-3.15,2.82,-2.44
0.000920,-0.04,0.11,1.06,-2.59,2.87,-3.31
0.000930,-0.04,0.12,1.07,-3.36,0.65,-3.35
0.000940,-0.04,0.12,1.06,-3.04,-1.70,-3.83
0.000960,-0.04,0.11,1.06,-3.09,-3.17,-4.20
0.000970,-0.03,0.12,1.06,-2.65,0.11,-4.60
0.000980,-0.03,0.12,1.05,-2.70,0.26,-4.11
0.001000,-0.05,0.11,1.06,-3.08,0.54,-3.92
0.001010,-0.07,0.11,1.06,-3.75,1.02,-5.09
0.001020,-0.06,0.12,1.05,-3.56,3.28,-6.99
0.001040,-0.05,0.11,1.05,-1.92,6.58,-7.60
0.001050,-0.05,0.11,1.06,-1.54,5.21,-7.66
0.001070,-0.07,0.11,1.05,-1.26,4.49,-7.89
0.001080,-0.09,0.11,1.06,-0.73,3.69,-8.18
0.001090,-0.10,0.11,1.09,-1.43,3.24,-9.18
0.001110,-0.13,0.13,1.11,-2.05,2.02,-11.40
0.001120,-0.12,0.14,1.11,-3.09,0.19,-14.33
0.001130,-0.12,0.14,1.10,-3.83,-0.95,-16.45
0.001150,-0.09,0.14,1.09,-4.07,-2.51,-17.22
0.001160,-0.08,0.15,1.09,-4.09,1.12,-17.21
0.001170,-0.10,0.13,1.08,-4.79,1.79,-16.70
0.001190,-0.14,0.13,1.09,-5.68,-0.29,-17.38
0.001200,-0.15,0.12,1.07,-6.44,-0.33,-19.80
0.001210,-0.16,0.12,1.06,-6.44,-1.30,-22.51
0.001230,-0.17,0.12,1.04,-5.40,-2.38,-25.50
0.001240,-0.15,0.12,1.03,-4.32,-4.40,-27.90
0.001250,-0.15,0.13,1.05,-3.54,-4.97,-30.50
0.001270,-0.14,0.13,1.07,-2.93,-6.53,-32.59
0.001280,-0.12,0.14,1.09,-3.87,-7.07,-35.03
0.001290,-0.12,0.15,1.10,-4.57,-4.60,-37.22
0.001310,-0.12,0.14,1.09,-6.30,-7.97,-38.90
0.001320,-0.12,0.13,1.08,-7.43,-10.63,-40.19
0.001340,-0.10,0.13,1.06,-7.44,-9.29,-42.21
0.001350,-0.09,0.14,1.05,-7.63,-10.80,-42.79
0.001360,-0.09,0.13,1.05,-6.17,-7.96,-43.69
0.001380,-0.07,0.14,1.04,-7.43,-7.89,-44.12
0.001390,-0.08,0.12,1.03,-7.50,-3.72,-43.96
0.001400,-0.11,0.11,1.01,-7.56,-6.47,-45.82
0.001420,-0.11,0.10,1.00,-5.12,-6.83,-47.62
0.001430,-0.14,0.09,0.98,-2.88,-9.97,-49.84
0.001440,-0.14,0.11,1.01,0.17,-12.61,-52.15
0.001460,-0.14,0.12,1.06,1.03,-16.79,-54.73
0.001470,-0.13,0.13,1.05,1.14,-17.34,-56.97
0.001480,-0.10,0.14,1.06,1.21,-16.10,-59.29
0.001500,-0.08,0.16,1.08,1.12,-14.12,-60.80
0.001510,-0.08,0.17,1.09,-0.40,-11.69,-61.76
0.001520,-0.10,0.16,1.11,-2.06,-10.69,-63.81
0.001540,-0.11,0.15,1.08,-3.48,-12.97,-65.37
0.001550,-0.11,0.15,1.05,-3.51,-13.15,-66.91
0.001570,-0.14,0.15,1.04,-2.64,-12.77,-69.84
0.001580,-0.13,0.16,1.03,-2.37,-16.76,-72.39
0.001590,-0.11,0.16,1.02,-0.87,-16.91,-75.48
0.001610,-0.09,0.17,1.01,0.97,-15.60,-78.61
0.001620,-0.07,0.17,1.03,2.29,-14.41,-79.66
0.001630,-0.05,0.18,1.03,3.12,-15.46,-78.60
0.001650,-0.05,0.18,1.04,3.73,-15.02,-78.52
0.001660,-0.05,0.19,1.04,3.73,-15.40,-79.97
0.001670,-0.01,0.21,1.04,3.10,-13.45,-80.93
0.001690,0.00,0.22,1.04,2.21,-11.16,-81.38
0.001700,0.01,0.20,1.04,2.29,-9.76,-81.27
0.001710,0.02,0.21,1.04,2.39,-11.43,-80.53
0.001730,0.01,0.21,1.04,3.37,-11.29,-80.29
0.001740,0.01,0.21,1.05,2.49,-11.37,-80.02
0.001750,0.01,0.21,1.04,1.26,-7.99,-80.68
0.001770,-0.00,0.18,1.02,0.66,-3.83,-82.26
0.001780,-0.06,0.18,1.00,-0.38,-4.02,-88.62
0.001800,-0.12,0.17,0.99,0.37,-7.52,-98.88
0.001810,-0.07,0.17,1.00,3.27,-7.66,-105.74
0.001820,-0.04,0.19,1.00,6.56,-10.02,-107.15
0.001840,0.01,0.19,0.99,10.02,-14.27,-104.11
0.001850,0.05,0.20,1.01,12.30,-13.36,-99.99
0.001860,0.08,0.21,1.00,11.53,-15.73,-96.69
0.001880,0.12,0.22,0.99,10.93,-10.83,-93.79
0.001890,0.13,0.22,1.01,11.05,-8.42,-92.01
0.001900,0.15,0.22,1.02,11.17,-5.99,-89.73
0.001920,0.17,0.22,1.05,10.87,0.35,-86.90
0.001930,0.16,0.23,1.08,9.56,-1.16,-83.21
0.001940,0.13,0.22,1.09,8.42,0.11,-79.62
0.001960,0.08,0.22,1.10,7.11,-2.40,-77.56
0.001970,0.06,0.20,1.09,6.99,-1.68,-77.75
0.001980,0.02,0.20,1.09,6.87,-6.22,-78.63
0.002000,0.01,0.20,1.11,6.72,-6.66,-80.27
0.002010,0.02,0.20,1.11,5.38,-10.99,-81.07
0.002020,0.04,0.19,1.09,5.12,-11.90,-80.34
0.002040,0.04,0.19,1.07,5.54,-16.98,-78.58
0.002050,0.06,0.20,1.06,5.87,-17.12,-77.76
0.002060,0.08,0.20,1.07,5.62,-15.69,-77.27
0.002080,0.10,0.20,1.04,5.70,-16.08,-75.94
0.002090,0.10,0.20,1.04,5.95,-14.75,-74.92
0.002100,0.12,0.20,1.03,5.91,-14.02,-74.39
0.002120,0.12,0.20,1.03,6.34,-16.27,-73.70
0.002130,0.11,0.20,1.06,6.63,-16.47,-72.95
0.002150,0.12,0.20,1.07,6.28,-16.66,-72.83
0.002160,0.09,0.19,1.06,5.05,-20.43,-73.89
0.002170,0.07,0.17,1.06,4.63,-25.31,-78.14
0.002190,0.04,0.16,1.03,6.34,-31.47,-84.82
0.002200,0.05,0.16,1.00,10.82,-39.83,-91.25
0.002210,0.14,0.18,1.03,14.34,-42.20,-91.45
0.002230,0.21,0.18,1.03,16.40,-40.03,-84.67
0.002240,0.23,0.20,1.05,14.39,-32.41,-75.61
0.002250,0.21,0.21,1.07,9.06,-24.98,-68.34
0.002270,0.17,0.22,1.07,4.95,-14.87,-65.73
0.002280,0.15,0.21,1.06,1.80,-9.73,-65.05
0.002290,0.17,0.19,1.06,0.29,-3.85,-64.47
0.002310,0.16,0.20,1.08,-1.09,-5.66,-63.32
0.002320,0.17,0.19,1.10,-2.02,-6.73,-59.79
0.002330,0.15,0.17,1.08,-0.31,-5.76,-56.34
0.002350,0.10,0.17,1.10,0.91,-9.13,-54.74
0.002360,0.07,0.16,1.09,1.68,-12.55,-54.76
0.002370,0.05,0.17,1.10,0.60,-19.33,-56.15
0.002390,0.07,0.17,1.09,0.27,-21.09,-57.81
0.002400,0.10,0.18,1.08,1.20,-23.98,-57.15
0.002410,0.11,0.18,1.08,1.34,-29.82,-54.20
0.002430,0.13,0.19,1.06,1.89,-35.17,-50.43
0.002440,0.11,0.18,1.07,2.18,-42.66,-48.28
0.002450,0.12,0.19,1.06,2.44,-45.12,-47.45
0.002470,0.17,0.18,1.03,2.27,-31.73,-45.82
0.002480,0.18,0.18,1.02,3.40,-16.98,-45.02
0.002500,0.20,0.19,1.01,2.14,-13.18,-43.48
0.002510,0.22,0.20,1.04,2.23,-3.66,-40.66
0.002520,0.21,0.20,1.05,1.18,-2.52,-36.05
0.002540,0.17,0.21,1.06,-0.58,-3.43,-34.09
0.002550,0.17,0.21,1.06,-3.90,-2.09,-33.55
0.002560,0.17,0.19,1.04,-5.77,-0.28,-32.81
0.002580,0.13,0.18,1.03,-6.37,-1.70,-32.62
0.002590,0.10,0.16,1.02,-5.34,-1.47,-34.20
0.002600,0.10,0.16,1.02,-4.95,-1.34,-35.45
0.002620,0.09,0.17,1.02,-3.60,-2.99,-35.84
0.002630,0.09,0.16,1.04,-2.70,-4.00,-35.92
0.002640,0.07,0.17,1.05,-2.40,-5.20,-37.44
0.002660,0.08,0.17,1.06,-2.83,-6.40,-39.76
0.002670,0.10,0.16,1.06,-2.78,-3.92,-39.39
0.002680,0.11,0.17,1.04,-2.05,-4.12,-37.44
0.002700,0.11,0.17,1.04,-1.11,-3.76,-35.19
0.002710,0.09,0.16,1.06,-0.95,-3.52,-33.93
0.002720,0.05,0.16,1.09,-2.22,-2.88,-35.05
0.002740,0.00,0.17,1.13,-5.27,-10.24,-37.21
0.002750,-0.00,0.17,1.14,-8.82,-20.79,-40.06
0.002760,0.04,0.18,1.12,-10.95,-29.40,-42.15
0.002780,0.13,0.18,1.08,-13.78,-31.76,-40.83
0.002790,0.22,0.17,1.04,-8.57,-14.50,-39.64
0.002800,0.21,0.18,1.05,-8.79,-9.60,-37.63
0.002820,0.23,0.17,1.04,-7.92,-0.80,-32.62
0.002830,0.22,0.16,1.04,-6.75,4.85,-28.42
0.002850,0.20,0.16,1.05,-6.08,6.91,-25.21
0.002860,0.13,0.16,1.09,-8.89,-2.49,-24.90
0.002870,0.11,0.15,1.08,-7.13,-0.84,-28.95
0.002890,0.16,0.17,1.08,-7.58,-6.05,-30.67
0.002900,0.22,0.16,1.06,-6.55,1.77,-28.44
0.002910,0.23,0.16,1.06,-7.92,4.49,-25.02
0.002930,0.19,0.17,1.07,-8.72,4.63,-19.82
0.002940,0.19,0.14,1.04,-5.18,6.99,-15.71
0.002950,0.13,0.14,1.04,-4.22,2.02,-17.21
0.002970,0.13,0.15,1.06,-2.37,-1.47,-19.92
0.002980,0.17,0.14,1.07,-0.68,0.18,-19.56
0.002990,0.19,0.16,1.09,-3.33,-3.06,-17.08
0.003010,0.20,0.16,1.07,-5.62,-0.78,-13.73
0.003020,0.22,0.16,1.05,-6.80,0.01,-8.19
0.003030,0.21,0.16,1.05,-7.09,2.74,-1.73
0.003050,0.20,0.16,1.07,-8.76,1.97,4.76
0.003060,0.17,0.15,1.07,-10.67,8.63,8.71
0.003070,0.12,0.14,1.07,-13.04,5.14,8.16
0.003090,0.11,0.12,1.07,-8.43,5.94,8.60
0.003100,0.12,0.13,1.05,-6.29,-1.33,10.51
0.003110,0.12,0.12,1.02,-2.62,1.03,11.73
0.003130,0.14,0.13,1.02,-0.31,4.50,13.50
0.003140,0.13,0.14,1.03,0.47,6.71,15.67
0.003150,0.12,0.14,1.05,0.71,5.97,19.34
0.003170,0.11,0.14,1.04,0.72,1.36,22.26
0.003180,0.11,0.15,1.05,2.01,3.98,23.56
0.003190,0.11,0.15,1.08,-0.29,4.37,23.27
0.003210,0.09,0.15,1.06,-0.89,6.60,23.05
0.003220,0.08,0.15,1.05,-0.74,6.69,21.72
0.003230,0.10,0.14,1.06,-0.23,6.61,21.16
0.003240,0.11,0.15,1.06,0.21,8.29,21.91
0.003260,0.11,0.15,1.05,-0.50,9.82,23.09
0.003270,0.11,0.14,1.06,-0.85,10.45,24.51
0.003280,0.11,0.14,1.07,-1.70,6.01,26.86
0.003300,0.11,0.13,1.08,-1.85,7.08,29.24
0.003310,0.10,0.14,1.07,-2.06,3.59,31.12
0.003320,0.07,0.14,1.05,-1.24,-1.17,31.14
0.003340,0.10,0.15,1.05,-0.43,-3.34,30.50
0.003350,0.11,0.16,1.05,1.52,0.66,31.21
0.003360,0.13,0.17,1.08,1.85,5.11,31.91
0.003380,0.11,0.18,1.10,-0.21,4.17,33.33
0.003390,0.14,0.19,1.10,-2.35,7.60,34.04
0.003400,0.14,0.19,1.10,-4.96,10.26,35.49
0.003420,0.14,0.18,1.08,-6.58,11.40,38.71
0.003430,0.13,0.17,1.05,-6.80,8.91,41.97
0.003440,0.10,0.14,1.04,-4.76,5.36,43.15
0.003460,0.08,0.15,1.06,-3.73,5.91,42.59
0.003470,0.06,0.14,1.07,-3.75,4.30,40.46
0.003480,0.07,0.15,1.07,-3.39,4.89,39.49
0.003500,0.08,0.16,1.07,-3.91,3.69,40.08
0.003510,0.09,0.16,1.06,-5.18,2.70,40.99
0.003520,0.09,0.16,1.05,-5.52,4.15,41.91
0.003540,0.09,0.16,1.05,-5.94,1.91,43.73
0.003550,0.10,0.16,1.03,-4.62,6.51,45.54
0.003560,0.09,0.15,1.02,-2.33,13.69,46.63
0.003580,0.06,0.14,1.06,1.18,13.40,47.28
0.003590,0.04,0.13,1.05,2.45,15.05,46.70
0.003600,-0.14,0.25,1.19,-0.39,2.11,49.11
0.003620,0.06,0.12,1.02,4.05,6.25,48.22
0.003630,0.06,0.15,1.04,2.50,2.37,49.56
0.003640,0.07,0.12,1.00,3.98,6.51,53.07
0.003660,0.08,0.16,1.04,3.64,6.89,54.11
0.003670,0.08,0.19,1.11,1.01,3.74,57.34
0.003680,0.10,0.19,1.10,-3.56,-0.82,61.60
0.003700,0.09,0.19,1.09,-7.09,-0.72,64.26
0.003710,0.07,0.18,1.09,-9.38,0.37,64.20
0.003720,0.06,0.16,1.07,-10.09,4.89,61.74
0.003740,0.04,0.14,1.06,-8.63,7.84,57.96
0.003750,0.06,0.14,1.05,-6.12,8.68,55.32
0.003760,0.06,0.13,1.05,-3.14,7.49,54.33
0.003780,0.06,0.14,1.05,-1.69,2.36,53.79
0.003790,0.09,0.15,1.06,-0.11,2.36,53.88
0.003800,0.13,0.16,1.07,-0.59,7.17,54.45
0.003820,0.13,0.18,1.09,-3.10,6.24,55.76
0.003830,0.14,0.18,1.10,-5.18,7.08,59.21
0.003840,0.13,0.18,1.09,-6.44,9.19,61.22
0.003860,0.12,0.17,1.09,-7.07,8.92,62.28
0.003870,0.10,0.16,1.09,-7.57,5.94,63.48
0.003880,0.10,0.17,1.08,-8.44,4.67,63.76
0.003900,0.10,0.17,1.07,-7.33,7.27,63.66
0.003910,0.10,0.17,1.07,-5.14,9.24,64.03
0.003920,0.08,0.17,1.09,-5.31,7.78,63.19
0.003940,0.10,0.18,1.07,-5.38,5.79,62.69
0.003950,0.13,0.18,1.06,-5.08,7.48,63.64
0.003960,0.15,0.18,1.06,-5.64,5.45,66.13
0.003980,0.16,0.19,1.05,-4.67,8.58,69.62
0.003990,0.14,0.19,1.06,-4.12,8.43,72.87
0.004000,0.12,0.19,1.08,-3.88,7.09,75.54
0.004020,0.12,0.20,1.08,-3.87,6.24,77.18
0.004030,0.12,0.21,1.09,-4.79,6.53,77.76
0.004040,0.12,0.21,1.09,-6.63,9.05,78.27
0.004060,0.13,0.21,1.08,-8.45,10.19,79.62
0.004070,0.14,0.20,1.07,-9.28,15.11,81.23
0.004080,0.11,0.20,1.05,-10.01,12.95,81.62
0.004100,0.11,0.19,1.04,-8.54,10.76,82.99
0.004110,0.10,0.20,1.05,-8.16,8.27,84.05
0.004120,0.10,0.20,1.05,-5.78,14.02,84.65
0.004140,0.08,0.20,1.05,-4.73,10.56,85.40
0.004150,0.08,0.21,1.06,-4.35,10.20,86.99
0.004160,0.07,0.21,1.07,-5.01,8.24,88.27
0.004180,0.05,0.20,1.07,-5.61,7.61,88.87
0.004190,0.04,0.21,1.08,-7.13,9.24,88.12
0.004200,0.02,0.20,1.07,-8.67,9.16,85.89
0.004220,0.01,0.20,1.07,-10.26,8.16,83.32
0.004230,0.02,0.20,1.06,-9.66,6.11,82.29
0.004240,0.02,0.19,1.04,-8.04,1.37,82.34
0.004260,0.01,0.19,1.06,-7.00,-0.99,82.58
0.004270,0.02,0.19,1.07,-5.68,3.60,81.44
0.004280,0.01,0.19,1.08,-7.40,4.89,80.39
0.004300,0.01,0.20,1.08,-9.49,8.39,80.46
0.004310,0.02,0.19,1.09,-11.56,9.11,80.71
0.004320,-0.01,0.19,1.07,-12.69,9.29,81.31
0.004340,-0.02,0.18,1.07,-13.36,7.14,81.53
0.004350,-0.03,0.16,1.04,-11.70,8.20,81.61
0.004360,-0.05,0.16,1.01,-9.56,6.31,80.59
0.004380,-0.04,0.15,1.01,-6.53,4.38,79.47
0.004390,-0.04,0.15,1.02,-3.74,1.62,78.95
0.004400,-0.04,0.16,1.04,-2.54,-0.56,78.88
0.004420,-0.04,0.16,1.04,-1.84,-3.61,79.05
0.004430,-0.03,0.15,1.05,-1.73,-7.40,79.32
0.004440,-0.04,0.16,1.05,-2.27,-12.59,79.48
0.004460,-0.03,0.15,1.03,-1.00,-18.53,79.01
0.004470,-0.02,0.17,1.04,-0.48,-26.13,77.87
0.004480,0.02,0.16,1.03,-0.42,-22.77,76.10
0.004500,0.03,0.16,1.04,2.73,-10.02,74.05
0.004510,0.02,0.16,1.04,2.84,-6.35,73.18
0.004520,0.02,0.17,1.06,3.65,2.65,73.87
0.004540,0.02,0.17,1.07,1.34,5.42,73.29
0.004550,-0.01,0.17,1.08,-0.79,5.95,72.65
0.004560,-0.00,0.15,1.06,-1.76,7.02,72.58
0.004580,-0.01,0.15,1.05,-2.24,5.51,71.74
0.004590,-0.02,0.14,1.04,-1.65,2.92,70.79
0.004600,-0.00,0.13,1.02,0.05,3.89,70.20
0.004620,-0.02,0.14,1.03,2.36,5.95,69.89
0.004630,-0.01,0.14,1.04,3.53,6.14,69.28
0.004640,-0.03,0.14,1.06,2.94,4.68,68.40
0.004660,-0.03,0.14,1.07,2.07,10.26,66.70
0.004670,-0.05,0.13,1.08,0.21,8.31,64.94
0.004680,-0.05,0.14,1.08,-0.26,8.42,62.64
0.004700,-0.05,0.14,1.09,-1.39,12.08,60.50
0.004710,-0.07,0.14,1.08,-3.19,7.36,57.62
0.004720,-0.08,0.13,1.07,-3.18,2.52,53.65
0.004740,-0.05,0.13,1.04,-2.25,0.37,52.60
0.004750,-0.01,0.11,1.03,0.73,7.14,53.29
0.004760,-0.04,0.12,1.05,3.25,8.49,54.05
0.004780,-0.04,0.12,1.07,3.27,9.16,55.07
0.004790,-0.07,0.13,1.08,0.63,9.00,54.18
0.004800,-0.09,0.12,1.07,-1.09,7.76,51.23
0.004820,-0.08,0.12,1.06,-0.82,9.40,47.97
0.004830,-0.06,0.11,1.03,0.55,10.32,45.89
0.004840,-0.07,0.11,1.04,2.54,7.08,44.92
0.004860,-0.06,0.11,1.06,4.34,4.39,44.98
0.004870,-0.07,0.11,1.08,4.46,3.45,44.21
0.004880,-0.08,0.11,1.11,2.63,5.35,42.86
0.004900,-0.10,0.12,1.10,-0.74,6.17,40.22
0.004910,-0.09,0.11,1.07,-2.50,6.50,36.63
0.004920,-0.08,0.11,1.04,-1.56,3.71,34.31
0.004940,-0.06,0.11,1.03,1.64,1.80,33.60
0.004950,-0.08,0.11,1.05,3.51,0.13,32.97
0.004960,-0.06,0.11,1.07,3.69,3.18,32.04
0.004980,-0.10,0.12,1.08,0.62,3.72,30.61
0.004990,-0.09,0.12,1.09,-2.42,5.92,28.24
0.005000,-0.09,0.11,1.05,-3.29,6.53,25.83
0.005020,-0.11,0.10,1.04,-1.54,1.49,23.34
0.005030,-0.08,0.10,1.03,1.10,0.98,20.68
0.005040,-0.09,0.11,1.05,3.61,0.93,18.15
0.005060,-0.05,0.11,1.07,4.02,-2.98,16.63
0.005070,-0.05,0.12,1.08,3.24,-0.51,16.34
0.005080,-0.05,0.12,1.09,0.98,0.25,15.73
0.005100,-0.06,0.12,1.09,-1.64,2.89,14.09
0.005110,-0.07,0.11,1.06,-2.17,-0.26,12.58
0.005120,-0.06,0.09,1.05,-0.39,-1.95,11.59
0.005140,-0.06,0.10,1.05,1.88,-1.24,10.41
0.005150,-0.05,0.10,1.06,2.27,-2.32,9.45
0.005160,-0.05,0.12,1.06,2.47,0.44,8.60
0.005180,-0.05,0.12,1.06,1.16,-0.81,7.28
0.005190,-0.04,0.11,1.05,1.42,-1.97,6.04
0.005200,-0.03,0.12,1.03,3.89,2.63,5.82
0.005220,-0.02,0.13,1.04,5.27,0.15,5.53
0.005230,-0.02,0.14,1.04,6.27,2.59,6.05
0.005240,-0.04,0.15,1.06,6.20,2.52,5.56
0.005260,-0.06,0.16,1.11,4.68,-2.33,4.99
0.005270,-0.04,0.16,1.06,2.35,-4.41,2.04
0.005280,-0.03,0.15,1.07,0.02,-6.82,0.91
0.005300,-0.03,0.13,1.06,-1.45,-11.32,-0.53
0.005310,-0.00,0.13,1.05,-1.66,-13.20,-1.05
0.005320,0.01,0.13,1.05,-1.04,-16.19,-1.19
0.005340,0.03,0.12,1.04,-0.04,-17.43,-0.59
0.005350,0.04,0.12,1.04,1.90,-10.98,0.12
0.005360,0.02,0.12,1.06,1.94,-5.11,-1.05
0.005380,-0.01,0.12,1.07,1.22,-3.56,-3.41
0.005390,0.02,0.11,1.07,2.11,1.56,-4.53
0.005400,0.00,0.12,1.06,3.16,2.72,-5.51
0.005420,0.01,0.12,1.05,5.17,7.97,-5.85
0.005430,0.00,0.13,1.06,5.61,6.03,-6.24
0.005440,0.00,0.13,1.05,5.95,2.56,-6.53
0.005460,0.01,0.13,1.06,6.24,1.26,-7.22
0.005470,0.02,0.14,1.08,6.22,1.24,-7.47
0.005480,0.03,0.15,1.10,3.21,-2.72,-6.74
0.005490,0.06,0.15,1.11,1.58,-1.90,-3.13
0.005510,0.02,0.14,1.08,0.47,-9.98,-7.30
0.005520,0.02,0.15,1.10,1.49,-3.72,-9.27
0.005530,0.05,0.15,1.08,2.36,-1.23,-10.86
0.005550,0.05,0.17,1.08,0.92,0.20,-11.85
0.005560,0.07,0.17,1.08,-0.60,2.06,-10.96
0.005570,0.03,0.19,1.13,-2.19,-2.06,-8.15
0.005590,0.03,0.17,1.09,-2.58,-0.31,-7.73
0.005600,0.06,0.17,1.10,-5.96,-2.09,-3.94
0.005610,0.02,0.14,1.06,-5.27,-6.85,-8.33
0.005630,0.04,0.13,1.04,-4.10,-2.61,-8.88
0.005640,0.05,0.13,1.03,-2.17,-1.14,-9.50
0.005650,0.06,0.12,1.04,-0.89,-3.31,-8.33
0.005670,0.06,0.13,1.05,0.41,-0.27,-7.54
0.005680,0.04,0.12,1.05,1.50,0.52,-7.27
0.005690,0.04,0.12,1.04,1.98,1.05,-6.38
0.005710,0.04,0.12,1.07,2.18,-2.56,-4.60
0.005720,0.03,0.14,1.08,1.66,-6.37,-2.04
0.005730,-0.19,0.14,1.19,-18.11,-39.24,1.48
0.005750,0.08,0.08,1.00,-2.11,-7.30,7.21
0.005760,-0.12,0.12,1.12,-6.11,-22.66,0.90
0.005770,-0.00,0.13,1.08,-2.82,-16.98,0.91
0.005790,0.03,0.14,1.08,-1.70,-18.63,-3.75
0.005800,0.03,0.14,1.09,-3.46,-21.34,-7.76
0.005820,0.03,0.14,1.11,-7.71,-26.05,-12.89
0.005830,0.08,0.13,1.09,-11.74,-33.75,-19.77
0.005840,0.11,0.13,1.08,-9.27,-19.14,-12.04
0.005860,0.12,0.11,1.05,-8.99,-14.29,-11.09
0.005870,0.13,0.11,1.04,-7.62,-10.99,-6.51
0.005880,0.14,0.10,1.02,-5.40,-7.65,-1.99
0.005900,0.13,0.10,1.02,-3.05,-3.48,2.36
0.005910,0.12,0.10,1.03,-1.89,-1.84,4.15
0.005920,0.13,0.10,1.03,-1.48,-1.90,6.63
0.005940,0.12,0.11,1.04,-1.06,-6.53,8.08
0.005950,0.12,0.10,1.04,0.84,-11.32,10.73
0.005960,0.12,0.10,1.04,4.32,-11.54,13.61
0.005980,0.08,0.10,1.07,8.79,-12.77,15.01
0.005990,0.09,0.11,1.10,11.07,-12.01,15.12
0.006000,0.07,0.14,1.14,8.39,-11.83,14.57
0.006020,0.10,0.15,1.14,5.77,-3.18,11.71
0.006030,0.09,0.17,1.13,0.78,2.55,8.52
0.006040,0.10,0.17,1.14,-5.63,4.97,5.74
0.006060,0.09,0.16,1.14,-11.46,4.51,5.01
0.006070,0.10,0.15,1.11,-15.24,4.53,6.31
0.006080,0.10,0.13,1.05,-13.40,2.96,3.77
0.006100,0.08,0.13,1.06,-13.22,3.13,3.05
0.006110,0.08,0.11,1.04,-11.15,-0.79,0.89
0.006120,0.10,0.10,1.03,-9.04,-6.18,0.77
0.006140,0.11,0.10,1.03,-7.24,-5.86,1.12
0.006150,0.16,0.07,1.06,-6.51,-1.51,4.74
0.006160,0.09,0.08,0.99,-2.54,-6.76,2.80
0.006180,0.12,0.11,1.02,-0.72,-8.57,2.45
0.006190,0.03,0.09,1.03,-3.62,-10.31,1.39
0.006200,0.09,0.11,1.00,0.25,-4.86,2.78
0.006220,0.12,0.11,1.01,1.92,-3.80,3.52
0.006230,0.12,0.10,1.01,3.05,-4.44,3.57
0.006240,0.09,0.11,1.04,2.02,-4.60,3.56
0.006250,0.10,0.12,1.05,-0.11,-1.39,3.49
0.006270,0.10,0.12,1.05,-0.41,-2.37,3.91
0.006280,0.09,0.12,1.05,-0.96,-5.42,5.52
0.006290,0.09,0.10,1.03,-0.38,-7.47,6.50
0.006310,0.09,0.10,1.03,1.31,-8.28,5.94
0.006320,0.08,0.10,1.03,3.44,-9.80,5.88
0.006330,0.12,0.11,1.02,4.39,-7.44,4.47
0.006350,0.12,0.12,1.03,4.46,-0.89,3.72
0.006360,0.12,0.11,1.04,3.47,-0.85,3.65
0.006370,0.11,0.12,1.04,4.05,-2.97,5.01
0.006390,0.11,0.13,1.05,3.80,-9.25,7.13
0.006400,0.11,0.14,1.04,4.14,-14.35,9.67
0.006410,0.11,0.13,1.03,4.33,-17.35,10.41
0.006430,0.08,0.12,1.03,2.79,-20.99,7.67
0.006440,0.08,0.12,1.03,1.40,-24.17,4.26
0.006450,0.13,0.13,1.04,3.24,-13.74,0.04
0.006470,0.14,0.13,1.05,1.94,-10.31,-0.48
0.006480,0.15,0.14,1.06,1.14,-8.96,2.49
0.006490,0.13,0.12,1.09,-2.15,-9.02,5.47
0.006510,0.12,0.11,1.09,-4.76,-8.24,7.02
0.006520,0.09,0.09,1.08,-5.17,-8.27,5.76
0.006530,0.07,0.09,1.05,-3.68,-7.50,2.47
0.006550,0.09,0.09,1.06,-1.66,-6.96,-1.34
0.006560,0.12,0.10,1.08,-1.18,-4.78,-4.03
0.006570,0.15,0.12,1.11,-2.40,-2.17,-3.35
0.006590,0.17,0.12,1.14,-4.53,0.24,-2.73
0.006600,0.14,0.13,1.13,-8.89,-4.28,0.34
0.006610,0.13,0.12,1.14,-10.94,-8.09,-0.49
0.006630,0.14,0.13,1.11,-13.05,-5.00,-1.16
0.006640,0.15,0.11,1.10,-16.64,-6.00,-0.66
0.006650,0.16,0.09,1.05,-14.08,0.31,-3.08
0.006670,0.13,0.08,1.03,-10.10,-1.56,-2.11
