Time,acce_x,acce_y,acce_z,gyro_x,gyro_y,gyro_z
0.000010,0.03,0.11,1.10,-0.21,-1.11,0.45
0.000020,0.02,0.11,1.10,-0.53,-1.11,1.14
0.000030,0.03,0.10,1.09,-1.11,-1.41,1.29
0.000050,0.02,0.10,1.07,-1.76,-1.19,1.69
0.000060,0.01,0.10,1.08,-2.27,-0.02,1.56
0.000070,0.01,0.09,1.07,-1.85,0.81,0.98
0.000090,0.00,0.09,1.06,-1.56,-1.34,1.59
0.000100,0.01,0.09,1.07,-1.32,-3.16,1.61
0.000110,-0.00,0.09,1.07,-1.44,-3.36,0.73
0.000120,0.02,0.10,1.07,-2.01,-2.64,0.15
0.000140,0.03,0.10,1.06,-2.47,-1.51,0.15
0.000150,0.03,0.10,1.07,-2.67,0.69,0.44
0.000160,0.03,0.10,1.07,-2.08,3.09,0.60
0.000180,0.02,0.09,1.07,-1.94,0.76,1.09
0.000190,0.02,0.10,1.06,-2.10,-1.01,1.53
0.000200,0.01,0.10,1.06,-1.97,-0.57,0.98
0.000220,0.01,0.10,1.06,-2.04,-0.97,0.67
0.000230,0.01,0.10,1.06,-1.67,-1.99,1.13
0.000240,0.01,0.10,1.05,-1.18,-1.68,1.17
0.000260,0.01,0.10,1.05,-0.48,-0.27,1.10
0.000270,0.02,0.10,1.07,-1.17,1.41,1.16
0.000280,-0.00,0.09,1.06,-1.47,0.02,0.62
0.000300,0.01,0.09,1.04,-1.08,-1.74,0.79
0.000310,0.01,0.09,1.05,0.34,-2.85,0.90
0.000320,0.02,0.10,1.06,1.34,-2.30,1.20
0.000340,0.02,0.10,1.07,0.95,-2.70,0.89
0.000350,0.02,0.10,1.08,0.73,-0.08,1.19
0.000360,0.01,0.11,1.08,-0.50,-1.18,1.40
0.000370,0.01,0.10,1.07,-1.13,-0.20,1.28
0.000390,0.00,0.10,1.08,-1.98,-1.64,0.95
0.000400,0.01,0.10,1.08,-1.70,-0.64,1.08
0.000410,0.01,0.09,1.06,-1.71,-1.47,1.19
0.000430,0.00,0.09,1.06,-1.35,-2.51,1.12
0.000440,0.01,0.10,1.07,-0.85,-1.44,0.82
0.000450,-0.00,0.09,1.07,-0.89,-2.88,0.92
0.000470,0.01,0.10,1.07,-0.69,-2.21,0.85
0.000480,0.01,0.11,1.08,-0.41,-1.48,0.95
0.000490,0.01,0.10,1.09,-0.81,-1.06,1.21
0.000510,-0.00,0.10,1.09,-1.75,-0.82,0.97
0.000520,0.01,0.10,1.08,-2.70,-0.23,0.53
0.000530,0.01,0.10,1.06,-2.87,0.82,0.28
0.000550,0.01,0.10,1.06,-2.48,-0.79,0.15
0.000560,0.01,0.10,1.05,-1.72,-1.08,0.66
0.000570,0.00,0.11,1.06,-1.72,-1.31,0.68
0.000590,0.01,0.11,1.06,-1.47,1.30,0.37
0.000600,0.01,0.11,1.07,-1.18,0.53,0.15
0.000610,0.00,0.10,1.06,-0.55,0.15,0.42
0.000630,0.01,0.11,1.08,-0.27,-2.18,0.62
0.000640,0.01,0.11,1.07,-0.29,-2.13,0.82
0.000650,0.01,0.11,1.08,-1.94,-2.47,0.91
0.000660,0.00,0.10,1.08,-2.70,-1.68,0.96
0.000680,-0.00,0.10,1.06,-2.80,-2.65,0.44
0.000690,-0.01,0.08,1.03,-1.74,-4.82,-0.11
0.000700,0.01,0.09,1.03,-0.50,-6.15,-0.01
0.000720,0.01,0.10,1.05,0.00,-2.87,-0.55
0.000730,0.02,0.10,1.08,-0.60,-2.85,-0.47
0.000740,0.01,0.10,1.08,-1.71,-3.34,0.39
0.000760,0.01,0.10,1.07,-0.34,-2.60,0.15
0.000770,0.01,0.10,1.07,-0.18,-3.61,-0.33
0.000780,0.01,0.11,1.09,-0.19,-0.62,-0.26
0.000800,0.00,0.12,1.10,-1.73,0.16,-0.40
0.000810,-0.00,0.10,1.08,-2.98,-1.38,-0.13
0.000820,0.01,0.09,1.06,-3.22,-3.10,0.31
0.000840,0.00,0.09,1.06,-2.25,-2.53,0.02
0.000850,0.01,0.09,1.05,-1.55,-3.50,-0.33
0.000860,0.01,0.10,1.06,-1.54,-2.65,-0.60
0.000880,0.02,0.10,1.07,-2.01,-0.82,-1.29
0.000890,0.03,0.11,1.06,-2.45,0.18,-0.63
0.000900,0.02,0.10,1.05,-2.56,-0.24,-0.51
0.000920,0.01,0.09,1.04,-1.27,-0.40,-0.57
0.000930,0.00,0.08,1.04,0.30,-1.81,0.17
0.000940,-0.00,0.09,1.05,0.89,-2.20,-0.15
0.000960,0.01,0.10,1.07,0.97,-2.12,-0.53
0.000970,-0.00,0.10,1.08,-0.32,-3.05,-0.94
0.000980,0.00,0.11,1.08,-0.95,-3.01,-0.69
0.001000,0.01,0.11,1.08,-1.11,-2.79,-0.91
0.001010,0.01,0.10,1.06,-1.47,-4.70,-0.76
0.001030,0.02,0.11,1.06,-1.15,-0.88,-0.71
0.001040,0.03,0.10,1.05,-1.01,-0.37,-0.76
0.001050,0.03,0.10,1.05,-0.72,0.18,-0.24
0.001070,0.01,0.09,1.05,-0.50,-0.16,0.25
0.001080,0.02,0.10,1.06,0.05,-0.79,-0.08
0.001090,0.01,0.10,1.05,0.73,-1.34,0.25
0.001100,0.01,0.09,1.06,1.40,-0.20,0.62
0.001120,-0.01,0.09,1.05,1.99,-1.05,0.89
0.001130,-0.01,0.10,1.06,1.24,-1.77,0.72
0.001140,-0.02,0.09,1.06,0.95,-3.82,0.43
0.001160,-0.01,0.09,1.05,1.89,-3.88,-0.42
0.001170,-0.00,0.09,1.05,2.95,-5.36,-0.60
0.001180,0.01,0.11,1.08,3.91,-2.37,-0.66
0.001200,0.02,0.12,1.10,2.59,-1.38,-0.73
0.001210,0.01,0.11,1.09,1.05,0.70,-0.18
0.001220,-0.00,0.11,1.08,-0.41,0.13,-0.15
0.001240,-0.01,0.11,1.06,-0.61,-1.79,-0.21
0.001250,-0.02,0.09,1.06,0.92,0.99,0.32
0.001260,-0.02,0.10,1.05,1.69,0.34,-1.19
0.001280,-0.02,0.10,1.06,2.83,1.16,-1.20
0.001290,-0.01,0.11,1.08,2.60,2.90,-1.18
0.001300,-0.03,0.11,1.10,0.97,2.13,-0.37
0.001320,-0.04,0.11,1.11,-0.59,2.34,-0.24
0.001330,-0.07,0.09,1.10,-1.73,1.15,-1.05
0.001340,-0.05,0.09,1.08,-0.94,2.01,-3.04
0.001360,-0.04,0.09,1.06,0.45,-0.43,-3.92
0.001370,-0.03,0.10,1.07,1.59,-1.08,-3.85
0.001380,-0.02,0.11,1.09,1.97,-0.63,-3.15
0.001400,-0.02,0.12,1.09,1.19,0.83,-2.56
0.001410,-0.04,0.11,1.09,1.08,4.61,-2.99
0.001420,-0.05,0.12,1.08,0.18,1.21,-3.82
0.001440,-0.05,0.11,1.09,-0.15,2.18,-4.19
0.001450,-0.06,0.11,1.08,-0.79,0.77,-5.01
0.001460,-0.07,0.11,1.09,-1.01,0.33,-6.21
0.001480,-0.09,0.11,1.09,-1.88,-0.66,-7.29
0.001490,-0.09,0.11,1.07,-1.19,1.49,-8.98
0.001500,-0.10,0.11,1.06,-1.17,-2.08,-11.47
0.001520,-0.10,0.12,1.05,-0.15,-2.11,-13.84
0.001530,-0.09,0.12,1.07,0.18,-7.42,-16.01
0.001540,-0.05,0.12,1.07,1.21,-7.46,-16.30
0.001560,-0.06,0.12,1.05,1.59,-7.83,-14.94
0.001570,-0.06,0.10,1.04,1.92,-4.24,-14.10
0.001590,-0.09,0.12,1.03,1.80,-1.74,-14.83
0.001600,-0.08,0.13,1.04,3.92,5.15,-17.31
0.001610,-0.09,0.14,1.08,4.02,10.27,-19.66
0.001630,-0.09,0.16,1.14,2.18,12.15,-21.19
0.001640,-0.11,0.14,1.15,-0.24,10.50,-22.60
0.001650,-0.12,0.14,1.12,-1.89,6.20,-23.57
0.001670,-0.13,0.14,1.10,-1.68,1.03,-24.85
0.001680,-0.13,0.13,1.10,-2.09,0.44,-27.58
0.001690,-0.13,0.15,1.08,-2.08,1.07,-32.05
0.001710,-0.09,0.15,1.11,-1.91,8.24,-36.11
0.001720,-0.11,0.17,1.11,-4.39,8.11,-37.45
0.001730,-0.12,0.16,1.10,-6.83,4.34,-38.60
0.001750,-0.13,0.15,1.06,-7.51,1.68,-39.46
0.001760,-0.14,0.14,1.01,-5.78,-1.15,-40.27
0.001770,-0.16,0.13,1.01,-3.51,-5.09,-42.16
0.001790,-0.13,0.14,1.01,-0.34,-5.53,-43.87
0.001800,-0.13,0.17,1.02,-0.24,-8.50,-45.61
0.001810,-0.11,0.18,1.03,0.05,-6.42,-46.78
0.001830,-0.12,0.19,1.06,-0.90,-1.63,-48.78
0.001840,-0.11,0.18,1.03,-2.78,-2.08,-50.70
0.001850,-0.11,0.16,1.01,-2.54,-4.88,-50.95
0.001870,-0.12,0.16,1.00,-0.50,-5.22,-51.76
0.001880,-0.13,0.16,1.00,1.48,-6.76,-52.95
0.001900,-0.12,0.17,1.03,3.28,-8.09,-54.52
0.001910,-0.11,0.19,1.04,3.39,-9.39,-56.19
0.001920,-0.08,0.19,1.06,2.82,-4.09,-57.22
0.001940,-0.08,0.19,1.07,0.63,-1.60,-56.72
0.001950,-0.11,0.18,1.08,-0.02,-1.30,-58.47
0.001960,-0.09,0.18,1.07,-0.91,-1.60,-59.23
0.001980,-0.09,0.18,1.03,-1.70,-4.20,-60.02
0.001990,-0.08,0.17,1.02,-0.74,-5.26,-60.39
0.002000,-0.08,0.17,1.02,0.24,-5.22,-60.31
0.002020,-0.08,0.16,1.03,1.13,-4.88,-60.41
0.002030,-0.08,0.16,1.04,0.98,-6.73,-61.17
0.002040,-0.09,0.17,1.06,-0.29,-8.63,-62.56
0.002060,-0.06,0.17,1.05,-1.94,-6.56,-63.18
0.002070,-0.07,0.17,1.03,-3.21,-5.05,-63.34
0.002080,-0.07,0.15,1.02,-3.65,-3.19,-63.57
0.002100,-0.08,0.13,1.01,-2.35,-0.47,-64.09
0.002110,-0.09,0.14,0.98,-1.24,-0.37,-66.11
0.002130,-0.09,0.13,0.99,1.18,0.90,-67.76
0.002140,-0.09,0.13,1.00,3.40,0.18,-68.45
0.002150,-0.09,0.14,1.02,6.82,-2.17,-69.06
0.002170,-0.10,0.14,1.03,10.32,-9.34,-69.38
0.002180,-0.10,0.16,1.07,13.64,-15.20,-69.70
0.002190,-0.08,0.19,1.13,13.95,-20.53,-70.28
0.002210,-0.05,0.20,1.14,11.21,-23.82,-70.76
0.002220,-0.02,0.20,1.15,7.83,-18.60,-71.66
0.002230,-0.00,0.20,1.14,3.61,-13.60,-72.38
0.002250,-0.02,0.18,1.12,-0.15,-11.36,-72.98
0.002260,-0.02,0.16,1.09,-1.10,-8.60,-72.20
0.002270,-0.04,0.15,1.08,-0.56,-9.72,-70.77
0.002290,-0.07,0.15,1.07,0.21,-13.32,-69.70
0.002300,-0.10,0.14,1.07,0.85,-16.95,-69.78
0.002310,-0.09,0.14,1.04,0.85,-18.40,-72.00
0.002330,-0.08,0.15,1.04,1.11,-15.21,-74.98
0.002340,-0.05,0.15,1.04,1.96,-8.46,-77.74
0.002360,-0.05,0.17,1.04,1.28,-8.69,-79.27
0.002370,-0.02,0.17,1.05,1.19,-8.76,-78.16
0.002380,-0.03,0.16,1.04,1.45,-7.47,-77.95
0.002400,-0.04,0.15,1.03,2.42,-8.96,-78.44
0.002410,-0.03,0.16,1.03,3.60,-11.83,-79.11
0.002420,-0.01,0.17,1.04,4.91,-11.82,-78.08
0.002440,-0.01,0.17,1.06,5.90,-10.20,-76.24
0.002450,-0.02,0.17,1.06,6.26,-11.88,-74.99
0.002460,-0.02,0.17,1.06,5.92,-15.86,-75.98
0.002480,0.00,0.17,1.05,5.54,-16.02,-76.20
0.002490,-0.01,0.17,1.05,5.54,-13.65,-77.40
0.002500,-0.00,0.16,1.06,4.77,-13.59,-77.76
0.002520,0.00,0.16,1.07,3.99,-9.19,-77.24
0.002530,-0.03,0.15,1.06,3.24,-8.76,-77.73
0.002540,-0.02,0.15,1.04,4.03,-10.60,-77.24
0.002560,-0.02,0.14,1.04,5.31,-14.50,-76.53
0.002570,-0.04,0.14,1.05,5.99,-18.05,-76.40
0.002580,-0.06,0.13,1.05,5.01,-21.83,-79.42
0.002600,-0.04,0.14,1.04,5.61,-22.34,-83.15
0.002610,0.01,0.15,1.05,6.26,-19.94,-83.98
0.002630,0.03,0.16,1.04,6.34,-19.15,-82.55
0.002640,0.06,0.16,1.04,6.64,-19.57,-80.25
0.002650,0.06,0.17,1.04,7.29,-19.46,-77.79
0.002670,0.05,0.17,1.05,6.62,-20.66,-78.61
0.002680,0.07,0.17,1.06,6.08,-18.91,-78.85
0.002690,0.07,0.17,1.06,4.44,-16.53,-78.47
0.002710,0.07,0.18,1.05,3.27,-12.76,-79.79
0.002720,0.08,0.16,1.04,3.50,-9.82,-79.05
0.002730,0.08,0.15,1.03,4.65,-11.54,-75.82
0.002750,0.06,0.14,1.03,6.17,-15.08,-73.56
0.002760,0.05,0.14,1.03,7.69,-15.34,-71.72
0.002770,0.06,0.15,1.03,8.18,-12.59,-71.63
0.002790,0.06,0.16,1.04,8.41,-10.33,-70.92
0.002800,0.04,0.15,1.07,7.63,-8.70,-70.82
0.002810,0.02,0.14,1.06,7.45,-7.32,-69.87
0.002830,0.00,0.13,1.06,8.12,-9.21,-70.25
0.002840,-0.01,0.15,1.08,8.60,-14.14,-70.21
0.002850,-0.03,0.15,1.13,6.73,-17.89,-71.02
0.002870,-0.00,0.15,1.10,4.56,-14.79,-73.12
0.002880,0.03,0.16,1.08,3.16,-9.66,-73.61
0.002890,0.01,0.16,1.05,2.01,-7.00,-73.26
0.002910,0.02,0.16,1.02,4.64,-4.28,-72.07
0.002920,-0.02,0.16,1.05,7.56,-8.64,-69.86
0.002930,-0.09,0.14,1.08,9.60,-9.57,-71.29
0.002950,-0.12,0.16,1.09,9.23,-9.28,-74.22
0.002960,-0.14,0.21,1.04,9.34,-8.31,-77.60
0.002970,-0.10,0.23,0.99,12.02,-9.96,-83.13
0.002990,0.05,0.22,0.95,19.54,-1.68,-88.00
0.003000,0.14,0.21,1.02,22.10,4.83,-82.01
0.003010,0.11,0.18,1.12,22.70,15.24,-73.80
0.003030,0.04,0.18,1.23,16.15,12.93,-72.49
0.003040,0.03,0.18,1.23,7.82,14.90,-72.58
0.003060,0.03,0.18,1.16,0.80,20.52,-73.38
0.003070,0.02,0.14,1.10,1.80,17.07,-74.20
0.003080,0.02,0.13,1.04,5.46,8.56,-75.78
0.003100,0.05,0.15,1.02,8.75,-2.59,-76.55
0.003110,0.10,0.18,1.01,12.02,-5.79,-73.83
0.003120,0.09,0.21,1.06,9.50,-12.67,-67.43
0.003140,0.03,0.21,1.08,8.47,-9.96,-65.95
0.003150,0.02,0.22,1.07,7.67,-16.94,-65.59
0.003160,0.02,0.23,1.08,7.96,-21.85,-65.83
0.003180,0.07,0.24,1.07,6.92,-24.24,-65.53
0.003190,0.10,0.24,1.05,3.44,-23.98,-62.66
0.003200,0.11,0.23,0.99,0.47,-19.21,-60.27
0.003220,0.11,0.20,0.93,-0.23,-19.21,-55.73
0.003230,0.08,0.17,0.92,1.49,-21.63,-51.80
0.003240,0.06,0.16,0.93,6.53,-18.63,-52.47
0.003260,0.09,0.17,0.95,11.25,-18.29,-52.12
0.003270,0.10,0.19,0.97,13.57,-21.60,-49.56
0.003280,0.12,0.20,1.00,14.82,-23.44,-45.69
0.003300,0.11,0.21,1.02,13.73,-24.39,-43.76
0.003310,0.11,0.20,1.06,12.68,-26.43,-43.19
0.003320,0.18,0.21,1.05,13.50,-21.96,-40.33
0.003340,0.20,0.22,1.07,12.42,-23.27,-34.95
0.003350,0.15,0.23,1.07,12.33,-16.75,-38.37
0.003360,0.23,0.27,1.09,5.57,-10.56,-32.27
0.003380,0.24,0.24,1.04,0.76,-2.73,-25.98
0.003390,0.22,0.21,1.06,-1.49,0.31,-17.74
0.003410,0.10,0.18,1.10,-3.09,0.69,-14.60
0.003420,-0.01,0.17,1.09,-2.82,-0.08,-22.05
0.003430,0.05,0.18,1.05,-2.05,-3.89,-27.66
0.003450,0.16,0.19,1.01,1.23,-4.18,-25.82
0.003460,0.23,0.20,0.98,4.27,-2.21,-18.91
0.003470,0.23,0.23,0.98,4.63,-0.32,-12.86
0.003490,0.25,0.29,1.02,0.18,5.17,-9.58
0.003500,0.26,0.32,1.02,-4.59,14.18,-7.53
0.003510,0.28,0.27,1.03,-14.56,16.07,2.80
0.003530,0.21,0.21,0.99,-13.50,25.48,12.94
0.003540,0.12,0.17,1.00,-8.09,24.36,17.40
0.003550,0.10,0.16,1.02,-1.51,24.82,20.23
0.003570,0.08,0.16,1.05,1.84,19.38,23.26
0.003580,0.06,0.17,1.06,3.41,13.80,24.96
0.003590,0.06,0.18,1.13,1.66,5.53,29.02
0.003610,0.07,0.16,1.13,0.01,-0.84,33.38
0.003620,0.08,0.17,1.10,2.42,-5.02,35.60
0.003630,0.08,0.19,1.11,5.07,-2.19,35.28
0.003650,0.07,0.21,1.13,5.91,1.14,32.92
0.003660,0.13,0.22,1.13,5.19,4.50,34.76
0.003670,0.09,0.23,1.16,2.78,4.62,37.69
0.003680,0.06,0.24,1.16,2.34,3.34,40.77
0.003700,0.07,0.24,1.17,1.16,-2.94,43.89
0.003710,0.09,0.24,1.15,0.35,-3.05,47.09
0.003720,0.13,0.23,1.12,1.10,0.15,50.40
0.003740,0.09,0.23,1.11,2.69,3.48,52.76
0.003750,0.05,0.22,1.13,4.18,5.80,51.11
0.003760,0.07,0.23,1.14,3.53,6.04,49.84
0.003780,0.09,0.24,1.13,1.18,7.36,51.11
0.003790,0.08,0.25,1.13,-2.68,4.79,53.00
0.003800,0.08,0.25,1.13,-6.94,-0.51,53.85
0.003820,0.10,0.24,1.09,-7.08,-0.96,56.00
0.003830,0.08,0.24,1.08,-7.59,2.26,57.48
0.003840,0.07,0.25,1.07,-9.34,8.21,57.24
0.003860,0.06,0.26,1.05,-11.09,13.57,57.27
0.003870,0.03,0.26,1.04,-10.80,14.11,58.39
0.003880,-0.03,0.27,1.09,-12.46,3.30,58.38
0.003900,-0.02,0.26,1.08,-12.98,3.65,57.05
0.003910,0.03,0.27,1.02,-13.12,2.90,56.82
0.003920,0.05,0.26,1.00,-11.17,5.23,59.57
0.003940,0.03,0.25,1.00,-8.69,4.39,62.17
0.003950,0.01,0.24,1.01,-5.63,7.12,62.02
0.003960,0.00,0.24,1.01,-3.33,2.99,63.63
0.003980,-0.02,0.25,1.06,-3.66,-2.70,64.09
0.003990,-0.02,0.26,1.07,-6.20,-1.27,62.09
0.004000,0.03,0.25,1.07,-8.81,-0.01,62.05
0.004020,0.04,0.26,1.06,-10.37,4.39,63.02
0.004030,0.04,0.26,1.04,-9.24,5.60,63.46
0.004040,0.03,0.26,1.03,-7.85,5.95,64.42
0.004060,0.03,0.26,1.04,-7.11,5.63,65.26
0.004070,0.02,0.25,1.05,-8.15,6.49,66.81
0.004080,-0.00,0.25,1.06,-10.89,5.35,66.67
0.004100,-0.00,0.25,1.06,-12.35,6.14,66.44
0.004110,0.01,0.24,1.04,-12.58,4.19,65.91
0.004120,0.04,0.24,1.03,-10.52,7.67,66.02
0.004140,0.05,0.22,1.02,-9.11,7.60,66.87
0.004150,0.09,0.23,1.02,-9.47,12.44,69.33
0.004160,0.06,0.26,1.05,-12.37,16.51,71.86
0.004180,0.05,0.27,1.08,-16.00,18.34,73.91
0.004190,0.02,0.28,1.13,-21.29,18.44,75.34
0.004200,0.01,0.28,1.13,-26.14,14.56,78.00
0.004220,-0.01,0.26,1.10,-26.75,14.86,80.31
0.004230,-0.05,0.24,1.04,-24.69,8.01,81.29
0.004250,-0.07,0.23,1.02,-22.31,6.47,80.99
0.004260,-0.09,0.21,1.01,-19.56,1.10,77.43
0.004270,-0.05,0.20,1.01,-16.37,-0.02,74.93
0.004290,-0.00,0.19,1.01,-14.56,3.44,74.81
0.004300,0.02,0.19,1.02,-13.73,2.34,76.35
0.004310,0.05,0.20,1.03,-12.47,4.40,78.99
0.004330,0.03,0.20,1.04,-11.20,1.67,82.22
0.004340,0.02,0.21,1.03,-10.97,2.39,82.41
0.004350,0.04,0.22,1.02,-11.31,4.42,81.90
0.004370,0.06,0.22,1.02,-11.89,9.63,81.08
0.004380,0.04,0.21,1.01,-12.03,15.75,80.78
0.004390,0.00,0.20,1.04,-10.93,15.63,80.79
0.004410,-0.03,0.21,1.08,-11.69,12.04,80.70
0.004420,-0.01,0.21,1.08,-13.15,10.80,79.72
0.004430,0.03,0.20,1.03,-13.92,10.49,80.76
0.004450,0.05,0.20,1.01,-11.53,14.31,84.64
0.004460,0.04,0.19,1.00,-9.54,13.36,89.11
0.004470,0.03,0.20,1.02,-9.17,13.59,92.52
0.004490,-0.01,0.22,1.03,-10.50,12.27,94.67
0.004500,-0.02,0.20,1.02,-10.92,13.98,93.19
0.004510,-0.03,0.18,1.01,-11.14,14.20,91.74
0.004530,-0.06,0.17,1.01,-8.43,12.58,88.85
0.004540,-0.05,0.17,1.01,-6.28,6.05,87.05
0.004550,-0.01,0.17,1.00,-3.34,5.13,86.87
0.004570,0.01,0.19,1.01,-1.01,1.76,90.08
0.004580,0.01,0.21,1.05,-1.56,-1.92,92.41
0.004590,0.01,0.21,1.07,-3.66,0.85,94.38
0.004610,-0.00,0.20,1.07,-7.34,0.89,94.95
0.004620,0.00,0.20,1.04,-8.64,2.93,93.49
0.004630,-0.01,0.20,1.00,-7.66,1.89,91.73
0.004650,0.03,0.19,0.98,-5.33,3.03,89.88
0.004660,0.05,0.20,0.98,-1.79,7.58,89.96
0.004670,0.06,0.22,1.00,-0.15,10.38,91.49
0.004690,0.04,0.25,1.07,-0.66,13.74,93.86
0.004700,0.03,0.27,1.12,-5.85,16.61,95.15
0.004710,0.01,0.26,1.11,-12.58,19.40,95.55
0.004730,-0.01,0.24,1.10,-17.63,17.86,97.69
0.004740,-0.08,0.21,1.07,-20.66,16.62,97.97
0.004750,-0.10,0.16,1.01,-18.82,15.30,94.37
0.004770,-0.08,0.16,0.98,-15.60,9.61,93.41
0.004780,-0.02,0.10,0.91,-3.98,7.20,88.43
0.004800,-0.05,0.14,0.97,4.04,0.11,87.18
0.004810,-0.03,0.18,1.05,7.01,-0.89,89.08
0.004820,-0.07,0.22,1.14,0.46,-2.11,89.18
0.004840,-0.03,0.19,1.12,-8.89,2.25,90.05
0.004850,-0.04,0.16,1.04,-10.30,7.16,84.13
0.004860,-0.10,0.17,1.02,-4.37,5.80,80.58
0.004880,-0.07,0.16,1.03,-0.65,6.61,78.89
0.004890,-0.07,0.18,1.03,3.15,2.67,78.69
0.004900,-0.05,0.21,1.07,3.30,4.98,79.90
0.004920,-0.08,0.22,1.08,0.99,5.76,80.82
0.004930,-0.11,0.22,1.10,-2.97,3.76,79.70
0.004940,-0.13,0.22,1.06,-5.91,1.90,77.72
0.004960,-0.14,0.23,1.07,-7.86,-3.56,75.18
0.004970,-0.11,0.25,1.07,-7.20,1.85,72.47
0.004980,-0.08,0.28,1.05,-10.21,7.80,70.71
0.005000,-0.05,0.26,1.03,-13.31,15.97,71.28
0.005010,-0.07,0.19,1.00,-16.16,18.29,77.24
0.005020,-0.16,0.14,0.98,-14.40,21.21,79.06
0.005040,-0.21,0.11,0.99,-13.56,19.38,76.76
0.005050,-0.26,0.08,0.94,-9.08,14.15,71.27
0.005060,-0.26,0.08,0.95,-2.15,6.19,63.61
0.005080,-0.24,0.08,0.97,5.26,-1.11,57.05
0.005090,-0.18,0.09,1.01,10.06,-2.30,52.99
0.005100,-0.15,0.12,1.04,9.14,0.53,50.79
0.005120,-0.14,0.12,1.05,5.44,4.09,48.59
0.005130,-0.12,0.11,1.04,1.51,8.99,47.91
0.005140,-0.16,0.09,1.01,2.03,9.64,47.40
0.005160,-0.18,0.08,1.00,7.35,11.09,46.37
0.005170,-0.21,0.09,1.04,11.56,6.85,43.97
0.005180,-0.25,0.10,1.10,13.53,2.76,39.86
0.005200,-0.27,0.11,1.18,9.76,-3.31,31.81
0.005210,-0.22,0.12,1.16,4.78,-0.06,23.68
0.005220,-0.18,0.13,1.11,0.39,-0.49,19.26
0.005240,-0.12,0.13,1.10,-1.12,6.98,18.61
0.005250,-0.13,0.14,1.08,-0.63,6.12,20.21
0.005260,-0.15,0.13,1.13,0.11,5.82,19.92
0.005280,-0.16,0.13,1.13,-0.18,7.74,15.92
0.005290,-0.14,0.16,1.14,-5.24,0.91,14.37
0.005300,-0.08,0.18,1.15,-14.13,9.52,14.00
0.005320,-0.12,0.17,1.18,-34.73,-10.52,15.85
0.005330,-0.10,0.17,1.11,-24.03,17.68,14.61
0.005340,-0.09,0.18,1.12,-22.05,15.78,14.79
0.005360,-0.11,0.16,1.09,-21.01,11.05,15.79
0.005370,-0.16,0.13,1.03,-13.71,5.55,15.47
0.005380,-0.20,0.12,1.03,-8.48,-3.50,13.03
0.005400,-0.21,0.09,1.02,-4.82,-10.95,8.28
0.005410,-0.19,0.08,1.00,-2.21,-8.88,2.44
0.005430,-0.18,0.08,1.03,-2.24,-7.71,-3.48
0.005440,-0.16,0.08,1.04,-2.69,-12.66,-9.26
0.005450,-0.09,0.09,1.02,-2.05,-13.83,-11.86
0.005470,-0.04,0.10,1.05,-3.19,-17.24,-11.92
0.005480,0.01,0.10,1.05,-4.89,-12.78,-10.76
0.005490,0.01,0.08,1.03,-5.60,-9.45,-7.30
0.005510,0.00,0.05,1.00,-2.50,-6.04,-3.67
0.005520,-0.04,0.04,0.99,3.33,-7.35,-1.86
0.005530,-0.05,0.03,1.02,9.67,-8.11,-0.03
0.005550,-0.06,0.05,1.07,13.52,-10.33,-0.40
0.005560,-0.07,0.06,1.09,12.89,-11.42,-1.86
0.005570,-0.07,0.09,1.11,6.75,-16.46,-3.00
0.005590,-0.06,0.09,1.08,-1.63,-20.44,-2.19
0.005600,-0.02,0.07,0.99,-0.73,-17.81,-2.57
0.005610,0.00,0.07,0.99,5.78,-15.32,-1.85
0.005630,0.02,0.09,1.01,12.22,-17.72,-0.86
0.005640,0.01,0.13,1.06,14.89,-19.60,0.88
0.005650,0.00,0.17,1.13,4.62,-22.96,-1.05
0.005670,0.04,0.18,1.08,-8.31,-19.85,-2.82
0.005680,0.11,0.16,0.97,-13.24,-13.47,-1.16
0.005690,0.14,0.14,0.93,-8.25,-2.14,1.98
0.005710,0.11,0.11,0.97,1.15,1.98,5.47
0.005720,0.06,0.09,1.04,10.60,0.74,8.10
0.005730,0.02,0.09,1.11,17.19,-3.71,10.83
0.005750,-0.02,0.11,1.16,16.98,-11.57,12.34
0.005760,-0.03,0.11,1.16,9.73,-23.50,10.51
0.005770,0.01,0.11,1.12,-0.81,-24.10,4.82
0.005790,0.07,0.10,1.04,-7.52,-22.88,-0.66
0.005800,0.15,0.08,0.96,-5.65,-16.48,-3.90
0.005810,0.20,0.09,0.94,1.26,-9.53,-1.90
0.005830,0.16,0.09,1.00,7.79,-7.12,3.11
0.005840,0.08,0.10,1.08,13.57,-6.63,6.18
0.005850,0.02,0.10,1.16,10.82,-8.50,4.24
0.005870,-0.00,0.09,1.16,1.66,-14.69,-0.34
0.005880,0.04,0.11,1.09,-4.85,-17.57,-4.39
0.005890,0.12,0.10,1.02,-5.66,-10.31,-4.76
0.005910,0.12,0.11,0.98,-0.44,-8.14,-3.68
0.005920,0.09,0.11,1.01,8.60,-4.24,-2.27
0.005930,0.08,0.13,1.07,18.65,-3.94,-0.54
0.005950,0.03,0.16,1.17,22.24,-9.32,1.20
0.005960,0.03,0.17,1.23,17.44,-11.33,1.32
0.005970,0.06,0.17,1.20,8.71,-11.92,-1.18
0.005990,0.12,0.17,1.13,3.45,-7.66,-1.84
0.006000,0.16,0.17,1.08,2.49,-2.76,0.60
0.006010,0.16,0.18,1.11,4.53,4.75,2.15
0.006030,0.17,0.18,1.15,5.25,13.59,5.24
0.006040,0.14,0.16,1.17,4.76,18.38,11.70
0.006050,0.05,0.14,1.16,3.77,14.01,17.92
0.006070,-0.06,0.12,1.19,1.16,-0.31,16.96
0.006080,-0.01,0.12,1.15,-1.53,-4.30,11.35
0.006090,0.07,0.13,1.10,-3.44,-1.73,8.44
0.006110,0.13,0.13,1.06,-2.41,7.68,8.48
0.006120,0.14,0.14,1.04,2.42,15.76,11.10
0.006130,0.10,0.13,1.04,4.80,15.29,15.55
0.006150,0.04,0.13,1.05,5.90,12.19,17.52
0.006160,0.01,0.14,1.06,6.78,8.60,15.96
0.006170,-0.03,0.15,1.13,1.87,-2.44,10.78
0.006190,0.01,0.15,1.15,-5.24,-2.51,5.60
0.006200,0.06,0.15,1.08,-9.64,-5.79,4.79
0.006210,0.10,0.15,1.03,-7.78,-4.11,6.44
0.006230,0.09,0.16,1.02,-4.62,-2.43,8.13
0.006240,0.06,0.16,1.06,-2.63,-4.10,8.14
0.006250,0.04,0.16,1.08,-3.24,-0.53,7.02
0.006270,0.06,0.15,1.08,-3.98,-1.20,7.13
0.006280,0.02,0.16,1.10,-7.89,-9.15,6.27
0.006290,0.05,0.16,1.08,-11.09,-9.48,4.19
0.006310,0.07,0.16,1.05,-12.51,-6.53,4.36
0.006320,0.07,0.15,1.04,-11.35,-1.25,4.76
0.006330,0.06,0.13,1.04,-9.59,-0.17,4.45
0.006350,0.07,0.12,1.02,-6.92,4.17,4.76
0.006360,0.03,0.12,1.03,-7.25,-0.45,3.97
0.006370,0.03,0.11,1.04,-8.02,-2.98,3.91
0.006390,0.03,0.11,1.04,-7.34,-6.64,3.87
0.006400,0.05,0.09,1.02,-4.92,-8.18,3.58
0.006410,0.05,0.10,1.03,-2.49,-4.82,4.07
0.006430,0.05,0.10,1.03,0.56,-1.48,2.35
0.006440,0.06,0.12,1.05,1.53,-0.21,0.37
0.006450,0.07,0.14,1.06,1.08,3.73,-0.46
0.006470,0.10,0.13,1.06,1.58,6.89,-1.38
0.006480,0.10,0.13,1.10,-0.05,7.27,1.21
0.006490,0.06,0.13,1.09,-2.89,3.33,3.81
0.006510,0.06,0.12,1.09,-5.66,-1.02,6.34
0.006520,0.04,0.13,1.06,-8.05,-7.14,7.15
0.006530,0.04,0.13,1.06,-9.40,-5.54,5.36
0.006550,0.07,0.14,1.04,-10.37,-3.18,4.69
0.006560,0.04,0.14,1.05,-10.26,-1.47,4.98
0.006570,0.00,0.13,1.07,-10.08,-3.71,1.59
0.006590,0.05,0.11,1.04,-9.05,-0.71,-1.75
0.006600,0.08,0.10,1.00,-7.00,-0.32,-1.66
0.006610,0.11,0.10,0.98,-3.51,1.50,0.73
0.006630,0.10,0.10,0.98,1.73,3.79,1.20
0.006640,0.07,0.11,1.03,5.76,9.37,0.84
0.006650,0.05,0.13,1.07,4.89,11.03,-0.37
0.006660,0.01,0.14,1.14,0.67,10.89,-3.69
0.006680,0.06,0.15,1.14,-5.89,12.90,-7.78
