Time,acce_x,acce_y,acce_z,gyro_x,gyro_y,gyro_z
0.000010,0.14,0.26,1.03,0.27,-3.40,1.01
0.000020,0.15,0.26,1.04,0.79,-1.83,1.55
0.000030,0.15,0.26,1.07,-0.44,-2.15,1.49
0.000050,0.15,0.26,1.06,-0.59,-3.11,1.80
0.000060,0.16,0.26,1.05,-1.05,-1.95,2.03
0.000070,0.15,0.27,1.04,-1.00,-0.85,1.24
0.000090,0.15,0.26,1.05,-0.01,-3.05,1.35
0.000100,0.16,0.26,1.05,-0.47,-2.87,1.60
0.000110,0.16,0.26,1.04,-1.36,-1.18,1.73
0.000120,0.15,0.27,1.03,-1.51,-0.54,2.19
0.000140,0.15,0.26,1.04,-1.44,0.45,2.18
0.000150,0.14,0.26,1.05,-0.87,0.39,2.23
0.000160,0.13,0.26,1.06,-0.56,-1.31,1.44
0.000180,0.14,0.26,1.04,-0.19,-1.11,1.41
0.000190,0.13,0.28,1.04,-0.89,-1.01,1.53
0.000200,0.13,0.27,1.04,-1.85,-3.28,1.02
0.000220,0.14,0.26,1.03,-1.87,-1.50,1.18
0.000230,0.14,0.26,1.01,-0.76,0.48,0.87
0.000240,0.14,0.27,1.00,-0.18,-1.28,0.30
0.000260,0.15,0.27,1.01,0.77,-0.86,0.63
0.000270,0.13,0.27,1.01,1.47,-2.39,0.24
0.000280,0.13,0.26,1.03,1.52,-1.79,0.01
0.000300,0.14,0.27,1.02,1.40,0.50,0.19
0.000310,0.14,0.27,1.03,1.47,-0.03,0.53
0.000320,0.14,0.27,1.04,1.51,-0.73,0.51
0.000330,0.13,0.27,1.03,2.11,-0.70,0.05
0.000350,0.14,0.27,1.04,2.76,-1.95,-0.39
0.000360,0.14,0.27,1.04,3.22,-3.08,-0.65
0.000370,0.14,0.27,1.04,3.17,-4.66,-0.39
0.000390,0.15,0.27,1.05,3.17,-4.13,-0.66
0.000400,0.16,0.28,1.05,2.46,-0.91,-0.97
0.000410,0.16,0.27,1.05,1.83,0.75,-0.56
0.000430,0.14,0.28,1.04,1.99,-1.01,-0.89
0.000440,0.15,0.28,1.04,2.73,-2.19,-0.76
0.000450,0.15,0.27,1.03,3.59,-3.44,-0.98
0.000470,0.14,0.29,1.02,3.93,-3.73,-1.40
0.000480,0.16,0.28,1.02,4.85,0.69,-2.59
0.000490,0.17,0.29,0.99,7.71,4.34,-6.24
0.000510,0.20,0.30,1.02,5.54,2.44,-1.76
0.000520,0.16,0.29,1.03,5.03,4.32,0.49
0.000530,0.14,0.28,1.02,6.04,4.45,1.02
0.000550,0.13,0.27,1.03,6.78,5.15,0.88
0.000560,0.13,0.26,1.01,7.37,9.18,0.34
0.000570,0.13,0.25,1.02,9.73,11.14,0.97
0.000580,0.12,0.26,1.07,12.76,8.51,1.24
0.000600,0.13,0.26,1.10,13.60,7.13,1.97
0.000610,0.09,0.23,1.14,12.42,0.40,1.45
0.000620,0.11,0.21,1.16,13.21,-1.74,-1.69
0.000640,0.16,0.22,1.19,12.63,0.58,-2.98
0.000650,0.20,0.23,1.26,8.89,4.14,-1.93
0.000660,0.18,0.23,1.33,3.84,5.74,1.01
0.000680,0.16,0.22,1.38,-0.76,5.04,3.26
0.000690,0.14,0.25,1.44,-5.20,-1.79,0.80
0.000700,0.09,0.23,1.46,-9.65,-7.69,-2.30
0.000720,0.13,0.25,1.50,-16.60,-15.80,-7.55
0.000730,0.18,0.26,1.49,-23.74,-16.53,-9.57
0.000740,0.23,0.29,1.48,-31.02,-11.86,-6.65
0.000760,0.22,0.30,1.47,-38.82,-9.82,-4.23
0.000770,0.19,0.29,1.48,-44.55,-9.98,-1.46
0.000780,0.16,0.26,1.48,-49.39,-13.59,-0.11
0.000800,0.12,0.24,1.47,-53.88,-18.21,-2.45
0.000810,0.14,0.24,1.48,-58.02,-22.61,-3.70
0.000820,0.14,0.27,1.46,-64.50,-26.72,-4.57
0.000840,0.17,0.28,1.42,-70.41,-27.19,-4.52
0.000850,0.21,0.29,1.38,-74.45,-26.00,-3.34
0.000860,0.22,0.28,1.31,-76.61,-22.77,-1.52
0.000880,0.22,0.29,1.28,-80.56,-22.27,1.50
0.000890,0.21,0.29,1.24,-83.04,-20.36,3.32
0.000910,0.20,0.27,1.20,-86.29,-18.15,4.82
0.000920,0.19,0.26,1.15,-88.47,-14.22,6.08
0.000930,0.16,0.22,1.16,-89.55,-13.49,6.47
0.000950,0.13,0.20,1.15,-89.56,-16.56,5.21
0.000960,0.13,0.17,1.13,-88.97,-19.71,3.66
0.000970,0.13,0.17,1.11,-89.13,-23.33,1.28
0.000990,0.16,0.14,1.08,-88.05,-24.00,1.58
0.001000,0.17,0.14,1.06,-87.00,-24.79,1.72
0.001010,0.19,0.13,1.04,-86.75,-24.94,1.60
0.001030,0.20,0.11,1.01,-86.22,-23.50,2.79
0.001040,0.21,0.08,0.99,-85.47,-21.48,3.89
0.001050,0.21,0.06,0.98,-83.79,-18.42,5.31
0.001070,0.20,0.04,0.97,-81.11,-17.61,5.66
0.001080,0.18,0.03,0.96,-77.40,-22.99,4.83
0.001090,0.19,0.03,0.96,-74.11,-29.40,3.66
0.001110,0.20,0.04,0.99,-73.26,-32.23,1.71
0.001120,0.25,0.03,1.00,-75.90,-31.26,1.62
0.001130,0.27,0.01,0.99,-78.05,-26.72,4.30
0.001150,0.29,-0.03,0.99,-78.66,-24.17,7.41
0.001160,0.28,-0.05,1.02,-79.74,-25.73,10.51
0.001170,0.25,-0.07,1.04,-80.68,-26.21,13.00
0.001190,0.24,-0.11,1.02,-83.74,-25.69,11.66
0.001200,0.26,-0.17,0.97,-84.62,-23.18,10.81
0.001220,0.27,-0.23,1.00,-84.82,-16.67,11.28
0.001230,0.24,-0.25,1.02,-84.57,-17.47,11.31
0.001240,0.21,-0.27,1.07,-83.37,-25.34,8.38
0.001260,0.25,-0.28,1.05,-83.03,-27.98,7.40
0.001270,0.28,-0.29,1.00,-81.44,-28.75,3.98
0.001280,0.32,-0.30,0.95,-78.33,-29.77,-0.06
0.001300,0.43,-0.31,0.94,-79.94,-19.32,3.30
0.001310,0.42,-0.30,1.02,-78.95,-14.03,12.21
0.001320,0.35,-0.30,1.10,-80.23,-15.22,18.41
0.001340,0.28,-0.32,1.09,-82.09,-16.33,18.49
0.001350,0.27,-0.31,1.12,-89.74,-18.14,16.70
0.001370,0.29,-0.35,1.05,-93.39,-18.65,13.65
0.001380,0.31,-0.38,0.96,-97.82,-17.02,14.18
0.001390,0.32,-0.42,0.96,-100.85,-9.88,15.08
0.001410,0.28,-0.46,0.94,-101.76,-11.31,16.56
0.001420,0.26,-0.48,0.91,-99.44,-11.16,16.87
0.001430,0.24,-0.50,0.89,-97.81,-17.32,13.60
0.001450,0.24,-0.50,0.88,-95.04,-22.44,9.78
0.001460,0.26,-0.49,0.85,-94.43,-29.56,6.71
0.001470,0.30,-0.50,0.81,-93.58,-28.70,4.74
0.001490,0.35,-0.48,0.78,-93.89,-26.53,4.75
0.001500,0.40,-0.49,0.75,-94.45,-20.11,7.92
0.001510,0.41,-0.48,0.75,-96.29,-15.18,12.67
0.001530,0.41,-0.48,0.73,-98.42,-7.81,17.68
0.001540,0.35,-0.49,0.72,-100.51,-6.93,20.23
0.001560,0.31,-0.51,0.70,-102.11,-9.13,20.37
0.001570,0.27,-0.53,0.69,-101.23,-16.16,20.31
0.001580,0.26,-0.56,0.67,-100.53,-21.16,18.28
0.001600,0.25,-0.56,0.67,-102.01,-26.50,17.35
0.001610,0.27,-0.58,0.64,-106.09,-22.44,17.24
0.001620,0.27,-0.59,0.60,-109.46,-19.92,16.88
0.001640,0.26,-0.60,0.54,-110.41,-18.69,15.47
0.001650,0.29,-0.63,0.49,-108.11,-17.21,14.34
0.001670,0.34,-0.66,0.44,-106.19,-16.10,13.34
0.001680,0.35,-0.66,0.43,-103.48,-13.19,16.78
0.001690,0.34,-0.65,0.46,-102.81,-15.02,23.31
0.001710,0.30,-0.65,0.50,-104.06,-17.10,28.37
0.001720,0.24,-0.67,0.49,-106.04,-21.67,30.74
0.001730,0.24,-0.69,0.43,-109.76,-24.37,26.61
0.001750,0.30,-0.71,0.34,-112.85,-22.51,21.31
0.001760,0.36,-0.73,0.31,-115.55,-17.98,19.45
0.001770,0.47,-0.74,0.34,-123.85,-11.47,22.38
0.001790,0.50,-0.69,0.40,-140.21,-19.72,48.60
0.001800,0.36,-0.62,0.40,-184.14,30.01,63.53
0.001820,0.25,-0.79,0.31,-158.39,3.46,63.98
0.001830,0.13,-0.81,0.25,-145.28,7.92,63.95
0.001840,0.04,-0.81,0.16,-142.90,7.94,54.90
0.001860,0.02,-0.80,0.03,-141.79,2.25,39.69
0.001870,0.05,-0.82,-0.01,-135.02,-6.17,26.15
0.001880,0.09,-0.81,-0.05,-125.83,-10.47,12.90
0.001900,0.14,-0.79,0.00,-119.34,-22.14,6.92
0.001910,0.17,-0.74,0.07,-117.75,-27.09,8.66
0.001920,0.18,-0.74,0.07,-120.74,-31.46,12.02
0.001940,0.15,-0.74,0.05,-126.03,-28.80,15.24
0.001950,0.08,-0.76,-0.00,-131.43,-31.00,12.24
0.001970,0.04,-0.77,-0.07,-129.60,-29.82,5.87
0.001980,0.05,-0.77,-0.13,-125.00,-26.20,-0.95
0.001990,0.06,-0.76,-0.14,-124.21,-33.69,-5.98
0.002010,0.12,-0.73,-0.18,-124.47,-37.46,-5.42
0.002020,0.18,-0.71,-0.22,-123.69,-38.94,-2.05
0.002030,0.23,-0.68,-0.28,-119.76,-28.83,2.62
0.002050,0.21,-0.69,-0.32,-117.68,-25.22,8.59
0.002060,0.20,-0.67,-0.33,-118.70,-13.45,4.63
0.002080,0.19,-0.67,-0.33,-122.88,-21.63,3.56
0.002090,0.25,-0.67,-0.43,-121.34,-22.04,12.59
0.002100,0.22,-0.68,-0.46,-116.97,-24.27,23.46
0.002120,0.17,-0.70,-0.53,-110.36,-21.31,31.01
0.002130,0.06,-0.70,-0.48,-110.09,-36.89,30.86
0.002140,0.06,-0.73,-0.53,-108.08,-34.37,22.80
0.002160,0.10,-0.72,-0.57,-107.24,-33.05,17.27
0.002170,0.14,-0.71,-0.57,-102.86,-36.20,21.43
0.002190,0.14,-0.69,-0.58,-98.20,-28.93,26.41
0.002200,0.02,-0.74,-0.60,-96.22,-29.98,32.82
0.002210,-0.00,-0.74,-0.68,-100.93,-26.98,29.90
0.002230,-0.02,-0.77,-0.79,-100.04,-27.67,26.89
0.002240,-0.04,-0.78,-0.89,-89.89,-20.98,19.80
0.002260,-0.04,-0.76,-0.98,-75.44,-15.96,18.40
0.002270,-0.13,-0.74,-0.95,-67.70,-43.71,17.06
0.002280,-0.08,-0.72,-0.95,-60.01,-43.38,12.89
0.002300,-0.04,-0.69,-0.98,-55.40,-45.72,10.11
0.002310,-0.03,-0.65,-0.95,-51.32,-40.32,9.67
0.002320,0.02,-0.63,-1.00,-47.61,-29.42,10.05
0.002340,0.03,-0.62,-1.04,-39.69,-23.40,12.29
0.002350,0.00,-0.61,-1.03,-31.39,-16.98,14.58
0.002370,-0.02,-0.60,-0.96,-30.38,-10.03,14.82
0.002380,-0.03,-0.62,-0.95,-27.99,-3.53,16.31
0.002390,-0.09,-0.65,-0.94,-25.58,-5.89,17.66
0.002410,-0.15,-0.68,-0.96,-22.40,-4.42,15.30
0.002420,-0.14,-0.71,-1.03,-13.04,-5.73,5.68
0.002430,-0.09,-0.74,-1.10,2.31,-3.73,3.23
0.002450,-0.07,-0.72,-1.10,16.98,-0.75,1.92
0.002460,-0.10,-0.71,-1.01,27.21,2.05,2.12
0.002470,-0.16,-0.67,-0.92,24.76,-1.79,4.41
0.002490,-0.09,-0.68,-0.93,29.73,5.24,-3.00
0.002500,-0.13,-0.68,-0.95,35.05,2.24,-8.82
0.002520,-0.05,-0.69,-0.98,39.82,4.84,-10.22
0.002530,-0.02,-0.68,-0.97,46.27,8.64,-10.11
0.002540,0.00,-0.68,-0.96,55.25,12.37,-9.08
0.002560,-0.02,-0.66,-0.90,62.31,9.30,-8.89
0.002570,0.00,-0.65,-0.84,66.78,8.39,-10.86
0.002580,0.04,-0.64,-0.79,65.10,10.15,-10.99
0.002600,0.07,-0.65,-0.77,62.34,18.64,-8.11
0.002610,0.06,-0.71,-0.80,66.53,23.15,-5.72
0.002620,0.00,-0.73,-0.79,72.44,27.24,-3.95
0.002640,-0.04,-0.76,-0.79,78.64,27.86,-3.21
0.002650,-0.07,-0.78,-0.79,85.47,24.77,-5.43
0.002660,-0.06,-0.79,-0.76,93.47,24.33,-8.72
0.002680,-0.02,-0.78,-0.72,98.78,23.44,-10.53
0.002690,-0.01,-0.77,-0.67,103.82,22.55,-11.51
0.002710,0.03,-0.74,-0.63,107.26,22.57,-11.98
0.002720,0.06,-0.75,-0.62,111.80,20.72,-10.23
0.002730,0.13,-0.74,-0.65,117.68,26.61,-6.46
0.002750,0.21,-0.73,-0.69,122.79,40.55,2.31
0.002760,0.14,-0.72,-0.56,123.53,33.31,12.73
0.002770,0.11,-0.74,-0.46,122.85,30.62,20.47
0.002790,-0.00,-0.75,-0.40,119.97,24.11,20.26
0.002800,-0.05,-0.77,-0.39,117.73,17.18,14.44
0.002810,-0.05,-0.79,-0.39,119.60,18.24,2.58
0.002830,0.01,-0.83,-0.44,125.36,30.44,-5.34
0.002840,0.03,-0.77,-0.33,123.05,25.82,-11.83
0.002860,0.01,-0.77,-0.21,126.88,31.59,-17.08
0.002870,0.05,-0.77,-0.17,126.75,27.45,-18.66
0.002880,0.07,-0.75,-0.10,117.18,15.19,-16.26
0.002900,0.13,-0.78,-0.06,117.89,24.79,-14.90
0.002910,0.08,-0.77,0.01,121.87,21.18,-13.15
0.002920,0.07,-0.78,0.04,115.58,14.50,-14.15
0.002940,0.10,-0.81,0.01,113.47,21.51,-15.35
0.002950,0.12,-0.83,0.01,114.73,20.46,-16.31
0.002970,0.14,-0.83,0.09,116.52,20.25,-16.18
0.002980,0.13,-0.81,0.19,114.34,17.07,-17.42
0.002990,0.12,-0.80,0.25,108.92,15.16,-16.33
0.003010,0.11,-0.81,0.35,95.89,1.11,-12.51
0.003020,0.21,-0.84,0.29,85.05,4.92,-13.77
0.003030,0.16,-0.86,0.29,81.87,5.76,-10.11
0.003050,0.17,-0.86,0.31,87.27,14.94,-11.76
0.003060,0.19,-0.86,0.34,86.34,11.13,-9.18
0.003070,0.18,-0.88,0.35,85.19,9.89,-5.99
0.003090,0.16,-0.88,0.35,84.77,9.36,-5.61
0.003100,0.13,-0.89,0.39,81.61,7.10,-7.77
0.003110,0.13,-0.89,0.45,75.61,4.63,-10.89
0.003130,0.19,-0.88,0.47,69.37,10.73,-11.33
0.003140,0.20,-0.87,0.47,64.13,14.79,-10.37
0.003150,0.19,-0.87,0.49,61.44,14.86,-7.83
0.003170,0.18,-0.88,0.45,58.66,13.76,-5.48
0.003180,0.19,-0.90,0.42,58.46,11.78,-3.86
0.003190,0.16,-0.90,0.47,57.58,11.08,-3.02
0.003210,0.15,-0.91,0.49,54.60,10.63,-4.18
0.003220,0.13,-0.91,0.46,53.92,8.64,-6.42
0.003230,0.13,-0.90,0.48,54.57,6.56,-7.95
0.003250,0.15,-0.90,0.47,54.04,7.07,-8.34
0.003260,0.15,-0.88,0.52,52.98,0.45,-7.79
0.003270,0.16,-0.87,0.52,51.37,1.91,-7.22
0.003290,0.18,-0.87,0.53,48.65,6.18,-7.71
0.003300,0.18,-0.87,0.49,49.37,7.62,-6.69
0.003310,0.16,-0.86,0.52,49.31,6.02,-5.24
0.003330,0.15,-0.86,0.56,47.91,2.94,-5.53
0.003340,0.15,-0.85,0.52,48.24,-0.07,-7.11
0.003360,0.18,-0.85,0.51,48.95,-1.59,-7.24
0.003370,0.18,-0.85,0.52,49.19,2.98,-6.42
0.003380,0.19,-0.84,0.55,49.06,5.23,-5.61
0.003400,0.16,-0.83,0.57,49.08,5.35,-4.48
0.003410,0.16,-0.82,0.57,49.66,3.74,-4.06
0.003420,0.14,-0.82,0.56,49.43,1.05,-3.96
0.003440,0.15,-0.83,0.55,49.58,3.14,-5.03
0.003450,0.12,-0.83,0.55,50.79,-3.61,-5.60
0.003460,0.11,-0.83,0.60,52.62,-14.71,-6.61
0.003480,0.08,-0.81,0.64,56.56,-25.75,-8.15
0.003490,0.05,-0.77,0.66,59.97,-38.48,-12.96
0.003500,0.11,-0.76,0.64,60.89,-36.65,-19.53
0.003520,0.22,-0.74,0.60,55.88,-25.92,-24.38
0.003530,0.31,-0.70,0.59,51.86,-12.49,-23.54
0.003540,0.32,-0.72,0.60,49.11,-2.31,-17.75
0.003560,0.29,-0.72,0.61,49.05,-0.50,-12.64
0.003570,0.24,-0.73,0.64,47.96,-4.68,-11.74
0.003580,0.22,-0.74,0.64,47.75,1.89,-12.41
0.003600,0.21,-0.74,0.64,48.60,1.91,-13.02
0.003610,0.21,-0.74,0.66,50.49,0.75,-13.84
0.003620,0.22,-0.74,0.66,53.70,3.01,-14.85
0.003640,0.22,-0.71,0.65,56.15,2.69,-15.95
0.003650,0.24,-0.69,0.68,57.44,2.92,-15.94
0.003670,0.25,-0.69,0.70,57.77,4.75,-15.89
0.003680,0.25,-0.66,0.69,56.52,-2.63,-13.79
0.003690,0.28,-0.65,0.70,60.69,-1.24,-8.82
0.003710,0.22,-0.58,0.77,46.29,-29.86,-1.77
0.003720,0.24,-0.60,0.73,43.97,-7.32,-6.04
0.003730,0.14,-0.66,0.77,43.25,-18.07,-5.64
0.003750,0.21,-0.66,0.77,49.21,12.50,-12.00
0.003760,0.21,-0.64,0.58,47.89,17.73,-25.06
0.003770,0.24,-0.60,0.77,54.18,7.26,-17.56
0.003790,0.28,-0.59,0.76,58.24,6.17,-12.64
0.003800,0.25,-0.53,0.76,57.24,-2.40,-8.56
0.003810,0.22,-0.57,0.77,62.63,6.04,-8.23
0.003830,0.19,-0.57,0.84,62.89,0.60,-10.32
0.003840,0.30,-0.59,0.96,54.80,33.91,-13.63
0.003850,0.21,-0.52,0.83,55.31,1.43,-18.21
0.003870,0.24,-0.50,0.83,60.37,3.42,-19.92
0.003880,0.30,-0.46,0.80,63.43,4.60,-17.24
0.003890,0.32,-0.43,0.82,62.50,4.13,-11.13
0.003910,0.27,-0.45,0.86,60.94,7.38,-8.80
0.003920,0.36,-0.47,1.01,55.47,39.22,-7.49
0.003930,0.26,-0.46,0.97,60.10,8.25,-10.48
0.003950,0.24,-0.42,0.95,59.53,5.40,-15.24
0.003960,0.26,-0.40,0.94,58.27,8.50,-19.02
0.003970,0.29,-0.38,0.92,57.60,9.26,-18.52
0.003990,0.30,-0.37,0.94,57.40,9.90,-15.91
0.004000,0.30,-0.33,0.96,53.21,6.18,-11.71
0.004020,0.32,-0.35,0.94,48.53,5.74,-9.43
0.004030,0.29,-0.31,0.92,50.00,12.44,-7.81
0.004040,0.30,-0.31,0.94,46.50,14.54,-4.89
0.004060,0.29,-0.32,0.90,48.33,24.96,-3.31
0.004070,0.15,-0.25,0.86,50.44,19.76,-2.62
0.004080,0.19,-0.27,0.88,58.24,26.90,-3.76
0.004100,0.21,-0.26,0.88,60.92,29.97,-5.76
0.004110,0.22,-0.28,0.89,62.14,31.88,-6.39
0.004120,0.20,-0.27,0.89,64.91,33.14,-2.90
0.004140,0.15,-0.28,0.94,64.81,25.11,1.77
0.004150,0.12,-0.26,0.92,70.09,22.36,-0.98
0.004160,0.13,-0.22,0.90,75.31,13.50,-4.38
0.004180,0.16,-0.19,0.88,81.50,9.76,-7.03
0.004190,0.21,-0.17,0.89,87.50,16.13,-6.24
0.004200,0.19,-0.16,0.93,90.63,26.69,-4.31
0.004220,0.19,-0.13,0.95,90.64,33.10,-2.46
0.004230,0.14,-0.11,0.99,90.87,23.52,-4.27
0.004240,0.15,-0.09,1.05,90.37,17.52,-4.74
0.004260,0.15,-0.07,1.05,89.94,16.32,-5.37
0.004270,0.16,-0.02,1.01,92.11,13.99,-8.19
0.004280,0.19,0.03,1.00,92.75,13.44,-9.78
0.004300,0.22,0.04,0.97,92.34,20.96,-9.44
0.004310,0.18,0.04,1.00,89.76,30.37,-9.37
0.004320,0.15,0.05,1.00,84.71,44.11,-10.91
0.004340,0.14,0.09,0.92,82.41,55.63,-14.17
0.004350,0.10,0.11,0.94,84.64,47.53,-15.40
0.004360,0.04,0.10,1.07,89.96,48.18,-13.67
0.004380,-0.02,0.14,1.17,89.17,43.79,-15.44
0.004390,-0.02,0.18,1.27,81.02,30.93,-20.54
0.004410,0.08,0.20,1.19,74.18,37.06,-21.66
0.004420,-0.05,0.56,1.02,74.78,-11.19,-25.09
0.004430,0.14,0.29,1.01,87.29,13.17,15.14
0.004450,0.17,0.32,1.21,90.50,15.78,24.89
0.004460,0.13,0.34,1.43,82.92,17.98,34.50
0.004470,0.01,0.34,1.52,67.34,3.94,41.33
0.004490,-0.03,0.33,1.44,57.56,-7.50,33.07
0.004500,0.02,0.32,1.36,56.38,-3.62,20.53
0.004510,0.05,0.35,1.37,56.00,4.07,10.88
0.004530,0.10,0.36,1.43,49.59,0.94,5.38
0.004540,0.11,0.35,1.46,39.04,-1.93,5.64
0.004550,0.10,0.32,1.48,28.02,2.21,6.05
0.004570,0.07,0.31,1.44,20.21,3.89,6.08
0.004580,0.04,0.30,1.37,16.28,6.58,5.53
0.004590,0.01,0.29,1.30,16.63,5.82,4.68
0.004600,-0.00,0.28,1.28,17.76,-2.00,2.18
0.004620,0.01,0.28,1.23,18.20,-4.01,0.32
0.004630,0.05,0.29,1.16,18.00,-1.60,-0.50
0.004640,0.05,0.29,1.21,15.73,-10.05,0.95
0.004660,0.04,0.31,1.24,12.66,-8.76,1.21
0.004670,0.03,0.29,1.20,10.22,-13.32,0.24
0.004680,0.05,0.31,1.20,6.86,-11.93,-1.02
0.004700,0.06,0.29,1.17,2.52,-14.88,-3.27
0.004710,0.09,0.30,1.13,4.14,-9.22,-4.72
0.004720,0.11,0.30,1.10,7.53,-5.53,-4.23
0.004740,0.10,0.30,1.15,6.85,-7.31,-4.34
0.004750,0.13,0.31,1.20,3.16,-6.11,-2.18
0.004760,0.14,0.32,1.23,-2.13,-2.14,2.36
0.004780,0.10,0.33,1.20,-6.18,-1.60,6.00
0.004790,0.07,0.34,1.15,-9.14,-3.69,6.20
0.004800,0.07,0.33,1.11,-10.69,-0.94,4.72
0.004820,0.08,0.32,1.10,-12.21,1.86,4.37
0.004830,0.08,0.32,1.08,-12.67,2.72,4.40
0.004840,0.08,0.32,1.07,-12.66,4.05,5.03
0.004860,0.07,0.32,1.05,-13.27,4.72,5.08
0.004870,0.06,0.30,1.04,-12.92,11.93,4.21
0.004880,0.06,0.29,1.03,-12.98,11.02,3.33
0.004900,0.07,0.30,1.04,-13.78,5.89,3.95
0.004910,0.08,0.29,1.01,-12.80,6.64,4.37
0.004920,0.08,0.30,0.99,-10.72,7.53,4.34
0.004940,0.09,0.30,0.99,-9.53,6.02,4.77
0.004950,0.09,0.29,1.02,-11.12,8.56,5.90
0.004960,0.09,0.29,1.00,-13.03,15.34,7.79
0.004980,0.07,0.28,0.96,-10.37,22.42,7.04
0.004990,-0.02,0.29,1.03,-10.76,16.22,8.35
0.005000,-0.00,0.27,1.02,-12.10,11.73,6.31
0.005020,-0.01,0.27,1.04,-9.60,7.93,3.40
0.005030,0.04,0.24,1.01,-5.04,9.89,-0.12
0.005040,0.02,0.30,1.03,-6.63,6.59,1.76
0.005060,0.07,0.29,0.99,-5.45,8.56,3.73
0.005070,0.05,0.27,0.98,-0.99,4.41,6.61
0.005080,0.03,0.26,1.02,1.89,-0.38,7.32
0.005100,0.02,0.25,1.06,1.83,-1.26,8.32
0.005110,-0.01,0.25,1.07,0.37,-3.72,7.21
0.005120,-0.02,0.25,1.06,-1.69,-5.38,5.31
0.005140,-0.00,0.26,1.06,-3.42,-5.31,3.35
0.005150,0.02,0.27,1.04,-3.82,-0.63,1.00
0.005160,0.04,0.27,1.02,-3.43,3.44,0.15
0.005180,0.06,0.26,1.02,-2.14,2.85,0.55
0.005190,0.06,0.22,1.00,5.76,7.76,-1.40
0.005200,-0.01,0.29,1.11,2.46,-2.24,1.83
0.005220,0.03,0.26,1.09,0.37,0.79,4.31
0.005230,0.02,0.25,1.07,-0.55,0.91,2.92
0.005240,0.02,0.27,1.12,-5.51,-4.02,2.03
0.005260,0.04,0.28,1.08,-8.29,0.11,0.21
0.005270,0.05,0.27,1.04,-8.37,3.66,-0.60
0.005280,0.02,0.25,1.03,-2.82,10.22,-3.02
0.005300,0.02,0.27,1.06,-3.00,4.05,-0.36
0.005310,0.04,0.26,1.03,-2.35,0.04,3.75
0.005320,0.02,0.25,1.07,-1.76,-3.50,3.90
0.005340,0.00,0.26,1.08,-2.63,-2.13,3.38
0.005350,0.02,0.27,1.06,-4.15,0.76,1.56
0.005360,0.04,0.23,1.02,-2.67,7.36,-1.20
0.005380,0.04,0.26,1.03,-5.41,1.55,1.82
0.005390,0.05,0.25,1.04,-3.46,1.87,5.19
0.005400,0.04,0.25,1.08,-3.89,-1.76,6.98
0.005420,-0.00,0.24,1.08,-3.04,-1.56,8.26
0.005430,-0.02,0.25,1.09,-3.43,-5.91,6.74
0.005440,-0.01,0.25,1.09,-5.13,-6.95,3.76
0.005460,0.02,0.25,1.06,-5.21,-3.17,2.13
0.005470,0.04,0.25,1.03,-4.30,-1.65,1.58
0.005480,0.04,0.25,1.02,-2.21,0.93,2.63
0.005490,0.04,0.23,1.03,1.98,2.38,0.99
0.005510,-0.00,0.25,1.11,-0.64,1.18,5.21
0.005520,0.00,0.24,1.11,-1.76,-0.05,5.92
0.005530,-0.01,0.25,1.11,-2.62,-6.16,4.72
0.005550,0.01,0.25,1.09,-4.06,-9.62,3.53
0.005560,0.03,0.25,1.05,-4.31,-9.30,2.38
0.005570,0.04,0.25,1.03,-3.08,-8.85,1.59
0.005590,0.06,0.25,1.03,-2.66,-7.59,1.56
0.005600,0.07,0.25,1.03,-2.21,-3.55,2.80
0.005610,0.06,0.25,1.03,-1.53,-0.98,2.71
0.005630,0.07,0.23,1.01,4.37,8.85,-1.30
0.005640,0.00,0.28,1.07,-3.77,-0.09,0.44
0.005650,0.02,0.25,1.05,-6.47,1.97,1.52
0.005670,0.01,0.25,1.03,-6.30,-1.89,0.13
0.005680,0.01,0.25,1.00,-5.26,-6.31,-0.65
0.005690,0.01,0.25,1.00,-3.79,-11.78,-2.35
0.005710,0.02,0.26,1.01,-1.99,-15.41,-2.44
0.005720,0.03,0.27,1.01,-1.38,-17.98,-3.05
0.005730,0.04,0.27,1.00,-1.03,-17.47,-4.99
0.005750,0.10,0.20,0.98,4.76,3.31,-8.10
0.005760,0.03,0.28,1.05,-3.21,-3.08,-6.27
0.005770,0.05,0.24,1.03,-4.76,1.81,-2.79
0.005790,0.02,0.22,1.06,-4.51,-1.47,-2.73
0.005800,-0.01,0.21,1.07,-1.20,-1.70,-6.27
0.005810,-0.03,0.23,1.06,-2.66,-5.16,-8.25
0.005830,0.02,0.22,1.04,-4.49,-3.03,-8.08
0.005840,0.03,0.23,1.02,-2.50,-3.60,-9.45
0.005850,0.05,0.23,1.02,1.24,-2.35,-7.96
0.005870,0.06,0.24,1.04,1.92,-2.13,-5.74
0.005880,0.05,0.24,1.05,3.37,-3.27,-5.44
0.005890,0.06,0.24,1.04,4.98,-5.00,-5.02
0.005910,0.06,0.25,1.06,5.10,-5.40,-4.08
0.005920,0.05,0.25,1.08,4.82,-6.18,-4.10
0.005930,0.08,0.27,1.07,6.96,0.89,-3.76
0.005950,0.05,0.28,1.10,-1.27,-5.92,-4.05
0.005960,0.04,0.26,1.07,-2.31,-0.67,-5.89
0.005970,0.06,0.26,1.02,-1.71,-2.13,-6.79
0.005990,0.08,0.26,1.03,0.38,0.91,-4.76
0.006000,0.07,0.26,1.03,1.88,-1.31,-3.53
0.006010,0.06,0.26,1.05,4.13,-6.43,-0.57
0.006030,0.04,0.26,1.07,4.89,-11.32,0.23
0.006040,0.02,0.26,1.06,5.11,-8.34,-0.59
0.006050,0.03,0.28,1.04,4.17,-12.53,-2.82
0.006070,0.04,0.29,1.03,2.06,-12.42,-3.43
0.006080,0.06,0.29,1.00,1.40,-10.89,-5.52
0.006090,0.08,0.28,0.97,2.80,-10.33,-5.56
0.006110,0.12,0.29,0.99,3.82,-3.53,-3.69
0.006120,0.09,0.28,1.02,4.69,-0.82,-0.84
0.006130,0.06,0.28,1.07,4.29,-7.83,0.09
0.006150,0.05,0.28,1.10,1.34,-12.44,-0.73
0.006160,0.07,0.28,1.09,-2.63,-14.76,-2.53
0.006170,0.10,0.27,1.05,-5.90,-10.24,-4.98
0.006190,0.13,0.26,1.02,-8.42,-2.10,-4.87
0.006200,0.12,0.25,0.99,-7.50,2.34,-3.41
0.006210,0.11,0.24,1.01,-4.44,0.50,0.48
0.006230,0.08,0.24,1.04,-2.20,-2.32,3.95
0.006240,0.05,0.24,1.04,0.96,0.53,5.60
0.006250,0.05,0.23,1.05,3.76,4.45,5.35
0.006270,0.00,0.23,1.07,4.78,0.51,2.99
0.006280,-0.00,0.23,1.11,4.91,-7.66,1.01
0.006290,0.01,0.23,1.14,2.97,-14.20,-0.43
0.006310,0.04,0.25,1.13,1.95,-13.37,-2.21
0.006320,0.05,0.27,1.12,0.18,-14.38,-2.97
0.006330,0.07,0.28,1.12,-1.71,-14.19,-3.47
0.006350,0.06,0.28,1.11,-4.06,-16.11,-3.10
0.006360,0.05,0.27,1.07,-4.90,-18.48,-3.37
0.006370,0.03,0.25,1.04,-4.47,-23.34,-4.92
0.006390,0.01,0.25,1.03,-3.63,-29.73,-7.00
0.006400,0.02,0.24,1.04,-2.12,-33.39,-9.36
0.006410,0.02,0.23,1.01,-2.57,-34.04,-12.89
0.006430,0.07,0.24,0.98,-1.70,-31.32,-14.26
0.006440,0.08,0.26,0.96,-1.21,-25.08,-14.49
0.006450,0.11,0.26,0.96,-0.98,-14.47,-14.02
0.006470,0.15,0.26,0.97,-1.19,-8.17,-11.50
0.006480,0.12,0.25,0.98,0.62,-6.47,-8.84
0.006490,0.08,0.24,1.02,3.66,-11.90,-8.85
0.006510,0.08,0.26,1.06,4.24,-15.22,-9.47
0.006520,0.11,0.28,1.06,3.12,-13.59,-10.51
0.006530,0.14,0.28,1.08,1.80,-10.39,-10.58
0.006550,0.17,0.28,1.09,0.21,-4.37,-8.58
0.006560,0.15,0.29,1.07,-1.07,-4.68,-8.44
0.006580,0.17,0.29,1.05,-0.23,-3.92,-6.69
0.006590,0.14,0.29,1.09,-1.04,-4.79,-5.15
0.006600,0.12,0.29,1.09,-2.04,-8.44,-5.76
0.006620,0.13,0.29,1.09,-2.71,-8.73,-5.86
0.006630,0.12,0.30,1.09,-4.73,-6.49,-6.35
0.006640,0.12,0.29,1.09,-6.46,-8.00,-7.48
0.006660,0.14,0.29,1.08,-8.52,-4.79,-6.34
0.006670,0.14,0.27,1.06,-8.87,-0.82,-5.79
0.006680,0.12,0.27,1.05,-7.92,-2.33,-5.41
0.006700,0.11,0.26,1.05,-6.43,-2.11,-4.70
0.006710,0.10,0.26,1.03,-6.46,-4.82,-6.57
