Time,acce_x,acce_y,acce_z,gyro_x,gyro_y,gyro_z
0.000010,0.17,0.31,1.03,-0.04,1.79,0.47
0.000020,0.15,0.30,1.03,0.07,1.64,1.06
0.000030,0.14,0.29,1.02,0.35,-0.43,0.66
0.000050,0.13,0.29,1.02,0.13,-1.39,0.12
0.000060,0.13,0.29,1.01,0.73,-0.79,-0.19
0.000070,0.14,0.29,1.01,1.31,-1.95,-0.59
0.000080,0.13,0.30,1.01,1.85,-2.91,-1.05
0.000100,0.15,0.29,1.00,3.27,-0.88,-1.11
0.000110,0.15,0.30,1.00,3.89,1.35,-1.22
0.000120,0.14,0.30,0.99,4.73,2.27,-0.93
0.000140,0.13,0.30,0.99,5.47,-0.10,-0.88
0.000150,0.13,0.29,1.00,5.39,-0.44,-0.95
0.000160,0.12,0.29,0.99,5.31,-0.85,-1.73
0.000180,0.13,0.29,0.98,6.73,2.46,-1.83
0.000190,0.13,0.29,0.97,7.00,2.81,-2.62
0.000200,0.14,0.30,0.98,8.51,3.53,-1.79
0.000220,0.13,0.30,0.98,10.02,2.64,-1.73
0.000230,0.14,0.30,0.98,11.69,3.02,-1.98
0.000240,0.14,0.31,0.98,12.45,6.88,-1.70
0.000260,0.14,0.33,0.98,12.27,10.63,-1.40
0.000270,0.12,0.31,0.99,12.22,8.46,-1.38
0.000280,0.11,0.32,0.98,12.44,7.76,-1.47
0.000300,0.12,0.32,0.96,14.34,7.05,-2.00
0.000310,0.12,0.33,0.95,16.39,5.72,-2.65
0.000320,0.12,0.33,0.94,18.22,5.98,-2.72
0.000340,0.13,0.33,0.92,20.24,8.29,-2.40
0.000350,0.12,0.34,0.91,21.97,10.51,-2.03
0.000360,0.11,0.34,0.91,23.38,10.46,-1.98
0.000370,0.12,0.36,0.93,24.87,13.23,-1.63
0.000390,0.10,0.38,0.99,24.31,14.01,-2.05
0.000400,0.11,0.39,1.03,23.03,16.95,-2.53
0.000410,0.12,0.40,1.04,22.18,14.39,-3.56
0.000430,0.13,0.40,1.06,22.24,11.57,-3.85
0.000440,0.13,0.40,1.09,21.52,11.01,-2.79
0.000450,0.13,0.39,1.12,21.56,8.01,-1.41
0.000470,-0.34,0.42,1.45,15.02,-68.98,1.82
0.000480,0.09,0.32,1.03,29.03,-16.46,-1.46
0.000490,0.20,0.33,1.08,27.25,2.18,-2.18
0.000510,0.14,0.40,1.37,12.36,-6.04,-6.44
0.000520,0.11,0.40,1.42,5.79,-7.47,-4.31
0.000530,0.19,0.42,1.32,1.42,-13.85,-3.49
0.000550,0.21,0.42,1.28,-5.27,-10.44,-3.34
0.000560,0.21,0.41,1.27,-10.57,-6.51,-1.65
0.000570,0.21,0.39,1.26,-14.27,-2.01,1.31
0.000590,0.16,0.37,1.23,-16.82,-0.80,1.41
0.000600,0.14,0.35,1.22,-13.94,6.00,2.53
0.000610,0.07,0.34,1.27,-23.87,-3.82,3.67
0.000630,0.04,0.32,1.24,-23.99,-5.37,1.44
0.000640,0.07,0.33,1.24,-25.15,-10.40,-2.24
0.000650,0.10,0.35,1.21,-27.19,-11.99,-3.60
0.000670,0.14,0.35,1.21,-29.65,-9.69,-2.56
0.000680,0.15,0.35,1.21,-31.52,-4.06,-1.15
0.000690,0.14,0.34,1.21,-33.74,-3.98,-0.58
0.000710,0.14,0.32,1.20,-35.03,-2.11,-0.04
0.000720,0.12,0.33,1.21,-35.85,-1.12,-0.50
0.000730,0.12,0.34,1.22,-37.16,-1.32,-1.13
0.000750,0.13,0.34,1.23,-39.50,-1.86,-1.10
0.000760,0.12,0.35,1.21,-42.69,0.69,-2.64
0.000770,0.16,0.33,1.17,-45.92,4.54,-2.18
0.000790,0.15,0.33,1.17,-47.21,9.31,-0.31
0.000800,0.13,0.32,1.18,-48.09,11.49,1.30
0.000810,0.09,0.30,1.17,-50.31,12.85,2.07
0.000830,0.05,0.29,1.14,-54.10,17.93,-0.14
0.000840,0.05,0.24,1.09,-55.23,19.34,-2.41
0.000860,0.06,0.21,1.06,-51.08,18.81,-2.08
0.000870,0.05,0.22,1.11,-44.39,10.82,-0.23
0.000880,0.02,0.25,1.19,-40.44,3.36,0.11
0.000900,0.02,0.29,1.24,-41.89,-4.08,-4.09
0.000910,0.06,0.30,1.22,-45.17,-2.95,-8.30
0.000920,0.12,0.30,1.18,-48.30,-1.79,-12.56
0.000940,0.19,0.30,1.18,-48.95,-0.28,-9.60
0.000950,0.16,0.31,1.17,-50.41,0.15,-4.60
0.000960,0.15,0.29,1.17,-52.47,-6.47,4.20
0.000980,0.07,0.30,1.24,-56.18,-7.09,6.10
0.000990,0.04,0.28,1.19,-59.92,-11.92,3.80
0.001000,0.02,0.26,1.18,-62.39,-12.47,-1.00
0.001020,0.06,0.25,1.12,-63.51,-11.40,-6.33
0.001030,0.10,0.24,1.12,-65.63,-13.58,-6.30
0.001040,0.12,0.25,1.11,-67.11,-14.25,-2.52
0.001060,0.08,0.24,1.12,-68.64,-16.67,-0.63
0.001070,0.04,0.22,1.12,-70.26,-22.60,-1.54
0.001080,0.05,0.21,1.10,-71.41,-21.60,-3.60
0.001100,0.09,0.18,1.04,-72.09,-20.42,-5.41
0.001110,0.12,0.17,1.00,-71.89,-14.65,-5.21
0.001120,0.15,0.11,0.96,-70.44,-8.05,-3.79
0.001140,0.15,0.06,0.93,-64.36,5.90,0.00
0.001150,0.07,-0.00,1.00,-67.86,1.02,3.11
0.001160,0.01,-0.02,1.02,-66.09,3.46,2.53
0.001180,-0.04,-0.05,1.02,-63.55,-4.97,-2.73
0.001190,-0.03,-0.07,1.06,-59.76,-14.60,-10.84
0.001210,0.09,-0.07,1.10,-55.43,-15.30,-15.34
0.001220,0.19,-0.05,1.13,-54.05,-12.05,-15.45
0.001230,0.19,-0.02,1.22,-57.44,-11.86,-9.79
0.001250,0.16,-0.02,1.24,-60.65,-11.43,-7.82
0.001260,0.17,-0.02,1.23,-63.95,-13.42,-7.28
0.001270,0.19,-0.02,1.18,-64.95,-15.13,-5.92
0.001290,0.23,-0.00,1.19,-66.05,-11.00,-2.58
0.001300,0.22,0.01,1.23,-69.51,-11.45,0.52
0.001310,0.19,-0.01,1.24,-73.46,-14.20,3.56
0.001330,0.20,-0.04,1.22,-78.29,-17.53,5.25
0.001340,0.21,-0.05,1.17,-83.29,-15.23,7.32
0.001360,0.20,-0.08,1.17,-87.40,-12.95,10.23
0.001370,0.13,-0.11,1.16,-90.33,-15.49,9.60
0.001380,0.14,-0.11,1.16,-92.07,-24.09,7.97
0.001400,0.18,-0.11,1.17,-95.50,-28.20,5.76
0.001410,0.22,-0.10,1.11,-100.46,-28.10,5.89
0.001420,0.23,-0.14,1.09,-102.82,-22.59,9.46
0.001440,0.18,-0.17,1.07,-105.92,-23.62,11.34
0.001450,0.13,-0.20,1.03,-105.67,-32.60,12.60
0.001460,0.13,-0.22,1.06,-104.06,-37.87,10.08
0.001480,0.14,-0.22,1.08,-106.43,-41.93,7.39
0.001490,0.14,-0.23,1.08,-109.69,-44.64,6.31
0.001510,0.16,-0.26,1.07,-113.56,-44.16,3.06
0.001520,0.21,-0.29,1.04,-117.67,-40.81,3.17
0.001530,0.22,-0.28,1.02,-122.22,-30.30,3.30
0.001550,0.21,-0.26,0.99,-127.73,-29.05,1.92
0.001560,0.22,-0.25,0.96,-133.77,-29.19,1.73
0.001570,0.21,-0.28,0.86,-137.44,-32.37,0.73
0.001590,0.24,-0.36,0.74,-137.76,-31.91,-1.30
0.001600,0.27,-0.43,0.66,-133.89,-30.51,0.29
0.001610,0.28,-0.49,0.63,-129.68,-20.16,5.58
0.001630,0.22,-0.52,0.61,-123.35,-20.91,8.50
0.001640,0.20,-0.52,0.61,-114.65,-28.04,10.96
0.001660,0.19,-0.54,0.63,-110.94,-29.81,11.45
0.001670,0.20,-0.56,0.63,-110.13,-30.62,10.02
0.001680,0.21,-0.58,0.59,-109.82,-33.78,9.44
0.001700,0.22,-0.57,0.58,-110.22,-37.30,9.20
0.001710,0.25,-0.58,0.54,-110.53,-34.01,9.84
0.001720,0.27,-0.58,0.49,-110.47,-30.16,10.82
0.001740,0.28,-0.60,0.46,-109.53,-25.77,14.46
0.001750,0.27,-0.62,0.42,-110.05,-25.95,16.45
0.001760,0.25,-0.63,0.40,-107.79,-31.53,20.13
0.001780,0.24,-0.66,0.39,-105.32,-33.05,22.69
0.001790,0.23,-0.72,0.33,-100.32,-30.47,24.79
0.001810,0.25,-0.70,0.36,-98.86,-37.47,26.76
0.001820,0.20,-0.73,0.31,-95.69,-31.15,28.88
0.001830,0.20,-0.76,0.27,-97.48,-35.36,28.12
0.001850,0.20,-0.79,0.25,-95.54,-23.40,25.60
0.001860,0.27,-0.82,0.26,-84.50,-24.44,24.66
0.001870,0.23,-0.82,0.23,-90.08,-27.82,28.25
0.001890,0.24,-0.85,0.19,-89.53,-32.32,29.65
0.001900,0.23,-0.87,0.18,-86.72,-30.33,30.44
0.001910,0.22,-0.89,0.17,-83.33,-31.12,30.24
0.001930,0.21,-0.90,0.19,-81.68,-27.80,29.27
0.001940,0.22,-0.90,0.18,-81.72,-22.31,28.14
0.001960,0.19,-0.90,0.17,-81.79,-17.16,28.64
0.001970,0.15,-0.90,0.17,-81.50,-23.15,27.86
0.001980,0.16,-0.90,0.18,-78.64,-24.63,27.78
0.002000,0.16,-0.89,0.17,-78.60,-26.39,27.81
0.002010,0.16,-0.88,0.17,-81.17,-22.43,28.73
0.002020,0.17,-0.87,0.15,-84.53,-15.24,29.54
0.002040,0.14,-0.88,0.12,-85.41,-14.21,30.86
0.002050,0.11,-0.88,0.10,-84.90,-21.88,32.51
0.002060,0.09,-0.88,0.10,-83.37,-27.26,31.13
0.002080,0.10,-0.88,0.08,-82.24,-33.66,27.57
0.002090,0.13,-0.87,0.06,-80.63,-32.54,23.20
0.002110,0.16,-0.86,0.05,-81.31,-29.27,21.20
0.002120,0.16,-0.84,0.07,-85.89,-26.03,20.66
0.002130,0.11,-0.83,0.05,-88.98,-25.85,21.26
0.002150,0.10,-0.82,0.04,-93.48,-33.59,18.31
0.002160,0.06,-0.79,0.04,-101.09,-38.68,13.56
0.002170,-0.00,-0.78,0.08,-114.97,-38.47,-5.05
0.002190,0.07,-0.77,0.07,-131.25,-30.95,-17.53
0.002200,0.12,-0.84,0.01,-137.69,-30.24,-8.30
0.002220,0.11,-0.90,-0.15,-133.67,-34.37,6.29
0.002230,0.08,-0.91,-0.35,-125.55,-36.08,17.63
0.002240,0.06,-0.89,-0.48,-116.76,-37.84,20.31
0.002260,0.06,-0.89,-0.57,-104.82,-32.89,17.01
0.002270,0.10,-0.86,-0.58,-94.65,-28.94,16.96
0.002280,0.08,-0.83,-0.60,-88.20,-30.36,17.95
0.002300,0.09,-0.86,-0.61,-77.72,-24.98,19.51
0.002310,-0.03,-0.76,-0.59,-77.35,-34.47,17.63
0.002330,0.05,-0.76,-0.58,-72.76,-26.37,16.55
0.002340,0.12,-0.76,-0.65,-66.11,-25.34,21.29
0.002350,0.08,-0.76,-0.64,-59.41,-22.44,25.31
0.002370,0.02,-0.78,-0.55,-57.58,-11.77,28.60
0.002380,-0.10,-0.81,-0.52,-59.09,-7.13,27.56
0.002390,-0.17,-0.86,-0.52,-55.64,-19.20,25.78
0.002410,-0.22,-0.89,-0.49,-48.63,-26.34,21.56
0.002420,-0.21,-0.87,-0.49,-45.63,-30.25,12.15
0.002440,-0.18,-0.84,-0.48,-43.49,-34.15,2.20
0.002450,-0.08,-0.80,-0.50,-42.74,-34.24,-1.72
0.002460,-0.01,-0.79,-0.54,-44.13,-32.73,1.79
0.002480,-0.01,-0.80,-0.62,-42.71,-30.69,5.36
0.002490,-0.03,-0.80,-0.64,-44.16,-18.96,4.63
0.002500,-0.03,-0.80,-0.67,-43.53,-11.63,1.77
0.002520,-0.05,-0.79,-0.71,-36.63,-17.04,-0.08
0.002530,-0.04,-0.77,-0.72,-29.85,-27.45,-0.35
0.002550,-0.02,-0.77,-0.68,-26.98,-30.89,-2.76
0.002560,0.03,-0.77,-0.64,-32.98,-14.50,-0.32
0.002570,-0.00,-0.77,-0.61,-37.51,-3.18,-1.21
0.002590,0.05,-0.79,-0.67,-35.13,-1.29,5.79
0.002600,0.04,-0.81,-0.72,-29.48,0.96,10.29
0.002610,-0.04,-0.85,-0.74,-23.84,-1.29,13.27
0.002630,-0.12,-0.86,-0.74,-17.44,0.85,8.98
0.002640,-0.13,-0.83,-0.72,-14.93,-4.63,6.11
0.002650,-0.12,-0.85,-0.69,-10.77,-8.08,0.18
0.002670,-0.09,-0.83,-0.71,-6.94,-9.67,-1.73
0.002680,-0.04,-0.83,-0.75,-3.04,-6.92,0.21
0.002700,-0.06,-0.80,-0.71,-5.71,-3.93,1.82
0.002710,-0.09,-0.77,-0.65,-16.74,5.25,-0.36
0.002720,-0.02,-0.82,-0.73,-15.66,18.26,-6.23
0.002740,-0.00,-0.82,-0.72,-6.94,15.92,-7.02
0.002750,0.04,-0.80,-0.80,3.14,15.95,-4.31
0.002760,0.02,-0.79,-0.73,6.19,8.44,0.14
0.002780,0.07,-0.74,-0.66,4.21,4.95,2.31
0.002790,-0.02,-0.79,-0.67,8.86,6.95,1.12
0.002800,-0.12,-0.80,-0.60,7.56,-3.70,1.69
0.002820,-0.10,-0.81,-0.62,-0.67,-5.61,-4.67
0.002830,-0.08,-0.81,-0.65,2.20,3.08,-9.70
0.002840,-0.03,-0.83,-0.79,11.18,2.56,-9.07
0.002860,0.02,-0.83,-0.89,24.75,10.88,-4.67
0.002870,-0.01,-0.83,-0.90,35.31,13.48,-1.79
0.002880,-0.08,-0.83,-0.83,40.55,8.29,-3.82
0.002900,-0.04,-0.82,-0.82,38.18,2.89,-1.90
0.002910,-0.02,-0.84,-0.84,44.94,13.93,-5.60
0.002930,-0.03,-0.84,-0.81,54.11,19.74,-7.90
0.002940,-0.01,-0.84,-0.85,62.13,24.08,-7.66
0.002950,0.02,-0.84,-0.84,68.92,31.07,-7.10
0.002970,-0.01,-0.83,-0.78,74.95,33.33,-5.40
0.002980,-0.09,-0.83,-0.69,77.64,23.21,-7.02
0.002990,-0.13,-0.83,-0.62,71.56,13.27,-8.63
0.003010,-0.01,-0.83,-0.62,78.71,27.23,-12.66
0.003020,0.01,-0.83,-0.63,84.53,31.50,-14.73
0.003030,0.00,-0.85,-0.63,92.78,35.30,-14.17
0.003050,-0.03,-0.84,-0.61,98.90,36.03,-15.81
0.003060,-0.04,-0.83,-0.53,104.31,40.77,-19.57
0.003080,-0.03,-0.81,-0.43,104.13,37.27,-23.97
0.003090,0.04,-0.80,-0.35,100.02,42.95,-24.90
0.003100,0.06,-0.80,-0.30,96.30,41.68,-21.60
0.003120,0.07,-0.84,-0.33,95.18,40.98,-18.99
0.003130,0.04,-0.83,-0.30,97.65,37.85,-20.57
0.003140,0.06,-0.83,-0.24,99.66,34.63,-22.66
0.003160,0.09,-0.84,-0.24,99.55,31.79,-21.97
0.003170,0.08,-0.84,-0.20,102.48,26.18,-21.29
0.003180,0.10,-0.84,-0.15,105.83,21.85,-22.89
0.003200,0.12,-0.81,-0.09,103.27,23.69,-24.73
0.003210,0.15,-0.81,-0.02,96.37,28.65,-27.73
0.003230,0.21,-0.83,-0.01,91.10,32.97,-25.73
0.003240,0.17,-0.85,-0.02,84.74,22.54,-21.15
0.003250,0.19,-0.86,-0.03,93.01,31.52,-19.33
0.003270,0.15,-0.84,-0.02,95.92,17.20,-18.47
0.003280,0.17,-0.84,0.06,94.15,14.32,-21.08
0.003290,0.19,-0.84,0.07,91.27,16.51,-24.12
0.003310,0.25,-0.84,0.11,85.40,29.36,-25.08
0.003320,0.24,-0.84,0.12,79.11,34.85,-24.72
0.003330,0.25,-0.85,0.13,77.44,33.32,-22.88
0.003350,0.25,-0.86,0.12,80.00,30.02,-19.02
0.003360,0.22,-0.86,0.11,83.89,24.03,-16.44
0.003370,0.22,-0.87,0.13,86.83,16.92,-16.27
0.003390,0.24,-0.85,0.20,86.76,19.98,-16.63
0.003400,0.22,-0.85,0.21,84.00,21.48,-16.63
0.003420,0.19,-0.85,0.26,81.02,22.08,-18.70
0.003430,0.21,-0.85,0.28,78.74,20.90,-20.66
0.003440,0.25,-0.85,0.27,76.89,17.62,-18.67
0.003460,0.27,-0.84,0.26,78.07,20.56,-16.22
0.003470,0.26,-0.83,0.23,78.94,23.50,-12.70
0.003480,0.25,-0.82,0.26,79.15,24.44,-11.00
0.003500,0.22,-0.82,0.28,79.72,22.92,-9.40
0.003510,0.17,-0.83,0.30,81.49,20.76,-10.62
0.003520,0.18,-0.83,0.34,80.40,19.98,-15.85
0.003540,0.20,-0.83,0.37,79.05,22.52,-19.37
0.003550,0.25,-0.81,0.38,79.36,22.40,-19.31
0.003560,0.27,-0.79,0.40,80.73,22.86,-15.37
0.003580,0.26,-0.77,0.41,81.02,18.72,-11.56
0.003590,0.23,-0.76,0.45,79.96,19.11,-10.40
0.003600,0.21,-0.76,0.46,79.24,18.57,-10.30
0.003620,0.21,-0.76,0.44,80.11,15.21,-12.07
0.003630,0.24,-0.76,0.47,81.09,18.52,-13.01
0.003650,0.23,-0.74,0.49,81.73,19.90,-12.65
0.003660,0.22,-0.72,0.53,82.27,20.31,-12.24
0.003670,0.20,-0.70,0.56,82.72,13.40,-11.27
0.003690,0.18,-0.70,0.58,82.02,9.51,-12.95
0.003700,0.22,-0.70,0.60,78.87,14.42,-15.37
0.003710,0.24,-0.69,0.60,76.82,20.15,-17.13
0.003730,0.26,-0.67,0.60,77.63,21.86,-16.78
0.003740,0.31,-0.66,0.59,87.40,40.50,-13.11
0.003750,0.33,-0.64,0.58,110.41,77.78,-6.36
0.003770,0.27,-0.62,0.61,143.44,117.38,8.10
0.003780,0.13,-0.55,0.70,152.62,110.53,20.86
0.003790,0.04,-0.56,0.68,141.95,66.77,14.89
0.003810,0.02,-0.54,0.73,133.16,49.28,2.78
0.003820,0.11,-0.53,0.78,109.68,34.15,-10.80
0.003840,0.19,-0.52,0.78,96.76,28.54,-14.47
0.003850,0.22,-0.50,0.83,96.64,18.89,-8.28
0.003860,0.22,-0.48,0.81,92.89,12.31,-3.15
0.003880,0.19,-0.47,0.82,85.76,10.52,-2.48
0.003890,0.18,-0.44,0.84,76.35,15.02,-3.60
0.003900,0.13,-0.42,0.86,60.15,15.02,-3.98
0.003920,0.11,-0.43,0.89,49.27,13.44,-6.98
0.003930,0.13,-0.44,0.87,45.04,12.18,-10.53
0.003940,0.14,-0.42,0.86,47.18,6.79,-9.96
0.003960,0.16,-0.41,0.87,61.62,13.04,-10.38
0.003970,0.19,-0.39,0.89,68.60,11.40,-6.52
0.003980,0.17,-0.39,0.94,79.09,19.21,-3.78
0.004000,0.16,-0.36,1.00,80.68,14.97,-0.37
0.004010,0.08,-0.30,1.06,74.60,1.94,2.69
0.004020,0.07,-0.29,1.04,71.73,0.79,0.96
0.004040,0.10,-0.31,1.04,71.12,5.20,-6.11
0.004050,0.14,-0.30,1.01,71.98,10.93,-11.93
0.004060,0.17,-0.29,1.02,70.93,13.12,-11.23
0.004080,0.15,-0.27,1.04,72.16,13.37,-7.66
0.004090,0.09,-0.25,1.06,72.33,8.47,-5.98
0.004100,0.03,-0.25,1.05,71.14,-7.43,-4.50
0.004120,0.09,-0.24,1.08,73.05,-7.00,-9.62
0.004130,0.10,-0.21,1.11,71.27,-7.38,-14.41
0.004140,0.14,-0.19,1.09,70.60,6.47,-17.29
0.004160,0.19,-0.19,1.06,71.69,14.71,-17.64
0.004170,0.18,-0.17,1.06,74.42,14.11,-14.84
0.004190,0.16,-0.13,1.12,75.40,7.15,-11.62
0.004200,0.17,-0.10,1.14,74.31,5.71,-8.48
0.004210,0.15,-0.07,1.15,70.73,3.68,-7.38
0.004230,0.12,-0.06,1.16,66.58,1.14,-6.39
0.004240,0.10,-0.06,1.15,63.61,2.03,-7.85
0.004250,0.14,-0.06,1.12,61.60,6.79,-11.44
0.004270,0.17,-0.03,1.09,61.13,9.25,-12.97
0.004280,0.19,0.00,1.10,62.55,11.09,-10.03
0.004290,0.18,0.03,1.13,64.15,12.11,-7.02
0.004310,0.17,0.05,1.15,61.81,13.90,-6.16
0.004320,0.16,0.05,1.18,57.85,20.04,-5.82
0.004330,0.16,0.05,1.18,54.27,21.08,-4.45
0.004350,0.10,0.05,1.20,50.81,12.58,-2.59
0.004360,0.07,0.06,1.19,47.97,5.44,-1.95
0.004370,0.09,0.06,1.14,46.94,2.83,-3.00
0.004390,0.10,0.06,1.09,48.14,2.73,-3.21
0.004400,0.11,0.06,1.06,50.18,5.11,-5.26
0.004410,0.17,0.07,1.01,51.50,7.22,-5.59
0.004430,0.19,0.07,1.00,52.70,12.34,-1.90
0.004440,0.14,0.08,1.00,54.36,13.92,2.56
0.004450,0.06,0.08,1.06,55.59,9.83,4.98
0.004470,0.01,0.07,1.05,56.66,3.15,1.83
0.004480,0.04,0.07,1.01,59.59,-1.55,-3.11
0.004490,0.11,0.10,1.01,62.24,2.76,-6.03
0.004510,0.12,0.14,1.03,63.97,4.27,-6.11
0.004520,0.14,0.20,1.06,65.71,4.55,-3.91
0.004530,0.13,0.24,1.07,65.08,2.65,-2.27
0.004550,0.14,0.27,1.07,63.73,5.39,-3.42
0.004560,0.17,0.28,1.11,59.36,9.02,-2.11
0.004570,0.15,0.29,1.13,55.52,12.99,0.47
0.004580,0.13,0.29,1.12,51.46,13.63,2.37
0.004600,0.09,0.29,1.10,49.34,12.40,3.27
0.004610,0.07,0.26,1.10,50.33,12.56,5.82
0.004620,0.02,0.27,1.10,51.54,5.85,5.09
0.004640,0.03,0.29,1.09,53.61,4.61,2.24
0.004650,0.07,0.32,1.07,53.25,2.77,0.34
0.004660,0.09,0.34,1.12,51.24,4.50,1.28
0.004680,0.09,0.33,1.13,49.15,3.36,2.57
0.004690,0.09,0.35,1.13,48.76,2.95,2.78
0.004700,0.13,0.36,1.09,48.73,6.73,2.44
0.004720,0.19,0.38,1.10,47.40,13.18,6.25
0.004730,0.23,0.41,1.17,43.21,10.85,14.59
0.004740,0.23,0.41,1.28,37.46,8.44,27.69
0.004760,0.19,0.43,1.30,27.44,-0.45,47.57
0.004770,0.12,0.40,1.24,22.92,-3.58,53.96
0.004780,0.04,0.38,1.20,20.63,-3.16,50.34
0.004800,0.05,0.38,1.16,16.86,2.36,42.36
0.004810,0.05,0.38,1.12,16.63,9.69,34.10
0.004820,0.08,0.38,1.08,17.31,13.66,28.62
0.004840,0.08,0.38,1.06,20.28,19.27,26.95
0.004850,0.04,0.36,1.08,23.06,9.03,26.98
0.004860,-0.01,0.36,1.11,25.39,1.54,24.40
0.004880,-0.03,0.36,1.11,25.95,-2.05,16.02
0.004890,-0.00,0.37,1.13,26.13,-0.77,7.08
0.004900,0.06,0.38,1.15,25.53,-1.88,2.62
0.004920,0.09,0.40,1.17,24.81,-5.38,2.86
0.004930,0.12,0.42,1.23,20.79,-7.56,5.39
0.004940,0.13,0.43,1.22,14.23,-4.02,7.67
0.004960,0.11,0.42,1.18,8.90,3.93,7.78
0.004970,0.08,0.43,1.16,5.00,4.59,6.15
0.004980,0.07,0.42,1.15,3.61,2.66,5.02
0.005000,0.09,0.41,1.12,3.63,-0.78,5.44
0.005010,0.07,0.41,1.12,4.57,-1.62,6.65
0.005020,0.05,0.41,1.11,4.33,-4.84,5.53
0.005040,0.05,0.42,1.11,3.85,-5.72,4.37
0.005050,0.05,0.41,1.13,1.05,-7.47,2.69
0.005060,0.05,0.42,1.13,-2.07,-8.29,1.54
0.005080,0.08,0.44,1.13,-6.10,-5.95,0.54
0.005090,0.07,0.44,1.11,-9.88,-8.87,-0.39
0.005100,0.10,0.43,1.09,-12.38,-7.34,-1.36
0.005120,0.11,0.42,1.05,-13.90,-4.47,-0.61
0.005130,0.11,0.41,1.04,-13.14,-3.49,0.60
0.005140,0.10,0.40,1.03,-11.94,-1.03,2.40
0.005160,0.07,0.40,1.02,-11.43,-1.90,3.13
0.005170,0.07,0.39,1.02,-9.63,-2.27,3.29
0.005180,0.06,0.39,1.02,-8.59,-2.16,2.80
0.005200,0.07,0.39,1.01,-8.37,-2.68,1.94
0.005210,0.07,0.39,1.01,-7.12,-5.70,1.26
0.005220,0.07,0.38,0.99,-5.91,-8.86,1.02
0.005240,0.10,0.39,0.98,-5.79,-4.88,0.85
0.005250,0.09,0.39,0.98,-5.34,-4.79,0.11
0.005260,0.09,0.38,0.98,-4.63,-5.99,0.40
0.005280,0.09,0.38,0.99,-2.82,-3.47,2.06
0.005290,0.08,0.37,1.00,-2.87,-6.15,2.38
0.005300,0.06,0.37,0.99,-2.48,-9.17,1.89
0.005320,0.08,0.38,1.02,-3.26,-10.39,1.11
0.005330,0.09,0.39,1.04,-6.05,-6.43,0.08
0.005340,0.11,0.38,1.00,-7.39,-5.92,-0.50
0.005360,0.13,0.38,0.98,-5.80,-3.58,0.31
0.005370,0.12,0.38,0.97,-3.72,-0.31,1.87
0.005380,0.11,0.38,0.98,-1.95,-4.69,2.64
0.005400,0.08,0.37,1.00,0.33,-7.83,2.71
0.005410,0.09,0.38,1.02,-1.02,-10.11,1.79
0.005420,0.09,0.39,1.03,-2.87,-6.29,0.20
0.005440,0.10,0.38,1.03,-5.33,-7.31,-0.25
0.005450,0.11,0.39,1.02,-6.48,-6.05,-0.76
0.005460,0.13,0.38,0.99,-6.27,-4.00,-0.69
0.005480,0.13,0.38,0.96,-4.63,-6.46,-0.03
0.005490,0.13,0.38,0.97,-1.90,-2.09,1.16
0.005500,0.11,0.38,0.98,-0.87,-3.47,0.77
0.005520,0.11,0.38,0.99,-0.16,-4.89,1.09
0.005530,0.11,0.38,1.01,-1.44,-4.76,0.74
0.005540,0.11,0.38,1.01,-2.16,-3.61,0.40
0.005550,0.13,0.38,1.01,-4.06,-2.50,0.26
0.005570,0.12,0.37,1.01,-5.18,-0.63,0.26
0.005580,0.12,0.37,0.97,-4.09,-1.31,0.08
0.005590,0.12,0.37,0.96,-1.67,-3.36,-0.04
0.005610,0.12,0.38,0.97,0.95,-2.93,0.28
0.005620,0.13,0.37,0.96,1.46,-4.51,-0.27
0.005630,0.14,0.37,0.97,1.27,-0.55,0.99
0.005650,0.13,0.37,0.99,0.89,-0.57,1.19
0.005660,0.10,0.36,1.00,0.44,-3.27,1.18
0.005670,0.09,0.36,1.01,1.51,-2.50,-0.52
0.005690,0.10,0.36,0.99,2.46,-4.48,-1.66
0.005700,0.10,0.37,0.99,3.42,-6.70,-2.08
0.005710,0.12,0.37,1.00,4.11,-8.52,-2.56
0.005730,0.12,0.37,1.01,5.32,-10.18,-2.11
0.005740,0.13,0.38,1.03,5.14,-11.10,-2.34
0.005750,0.13,0.38,1.03,4.60,-10.56,-2.89
0.005770,0.16,0.40,1.05,2.14,-4.24,-1.44
0.005780,0.15,0.40,1.06,-0.60,-6.11,-2.54
0.005790,0.17,0.40,1.06,-1.80,-1.87,-0.95
0.005810,0.16,0.40,1.04,-2.89,-2.37,0.27
0.005820,0.16,0.39,1.02,-3.40,0.54,0.93
0.005830,0.12,0.38,1.01,-3.12,-0.20,1.20
0.005850,0.11,0.37,1.01,-2.54,-3.08,1.08
0.005860,0.11,0.37,1.02,-1.76,-3.69,0.28
0.005870,0.11,0.38,1.02,-2.95,-5.46,-0.63
0.005890,0.11,0.38,1.04,-4.35,-4.45,-0.74
0.005900,0.12,0.38,1.03,-4.17,-3.98,-0.91
0.005910,0.13,0.39,1.02,-3.87,-1.78,-0.09
0.005930,0.11,0.38,1.00,-3.43,-3.27,-0.15
0.005940,0.10,0.39,0.99,-3.35,-6.05,-1.04
0.005950,0.12,0.38,0.99,-2.76,-5.73,-1.46
0.005970,0.14,0.38,0.98,-1.75,-5.92,-1.67
0.005980,0.13,0.39,0.99,-1.48,-3.50,-1.26
0.005990,0.13,0.39,0.98,-1.86,-4.66,-1.79
0.006010,0.15,0.39,0.99,-2.01,-4.04,-1.21
0.006020,0.16,0.40,1.00,-2.68,-2.49,-0.37
0.006030,0.14,0.39,0.98,-2.39,-3.50,-0.19
0.006050,0.15,0.39,0.98,-0.56,-1.65,0.52
0.006060,0.12,0.38,0.99,-1.02,-2.67,0.38
0.006070,0.12,0.38,0.97,-0.32,-4.50,-0.36
0.006090,0.12,0.38,0.96,0.54,-5.46,-0.45
0.006100,0.13,0.39,0.97,0.75,-5.17,-1.17
0.006110,0.14,0.38,0.96,0.95,-5.58,-0.96
0.006130,0.15,0.39,0.96,1.89,-5.89,-0.32
0.006140,0.14,0.39,0.97,1.99,-1.71,-0.22
0.006150,0.14,0.39,0.95,1.57,-2.84,-0.16
0.006170,0.14,0.40,0.94,3.16,-5.91,-0.12
0.006180,0.15,0.39,0.95,3.85,4.40,0.76
0.006190,0.11,0.40,0.97,4.92,-1.59,-2.18
0.006210,0.15,0.40,0.98,6.20,-4.28,-0.76
0.006220,0.14,0.41,0.99,5.50,-6.08,0.54
0.006230,0.14,0.40,0.98,5.02,-1.34,-0.84
0.006250,0.13,0.40,0.95,5.71,-4.85,-1.10
0.006260,0.15,0.40,0.96,7.75,-7.73,0.32
0.006270,0.16,0.41,1.00,6.73,-4.80,0.07
0.006290,0.15,0.41,0.99,5.15,-2.88,-0.22
0.006300,0.15,0.40,0.98,5.05,-4.47,0.48
0.006310,0.14,0.40,0.99,4.97,-7.23,1.13
0.006330,0.14,0.41,1.00,4.33,-4.21,-0.21
0.006340,0.14,0.41,0.98,4.26,-2.34,-0.95
0.006350,0.15,0.41,0.97,5.35,-4.11,-0.53
0.006370,0.15,0.42,0.98,5.70,-2.76,-0.37
0.006380,0.16,0.42,0.99,5.39,0.40,-0.78
0.006390,0.14,0.41,0.99,5.86,-2.53,-0.21
0.006410,0.15,0.41,1.00,6.16,-4.72,0.22
0.006420,0.14,0.42,1.00,5.77,0.39,0.11
0.006430,0.13,0.41,0.99,5.84,-2.98,-0.41
0.006440,0.14,0.42,1.00,6.59,-4.74,0.32
0.006460,0.15,0.42,1.04,4.93,-1.45,-0.05
0.006470,0.14,0.43,1.02,2.69,-0.22,-1.10
0.006480,0.16,0.43,1.00,2.98,-1.42,-0.28
0.006500,0.15,0.44,1.02,1.28,-4.76,0.73
0.006510,0.15,0.44,1.03,0.06,1.64,0.78
0.006520,0.16,0.43,1.00,-0.32,-0.83,0.74
0.006540,0.14,0.43,1.02,-0.23,-2.36,1.47
0.006550,0.15,0.42,1.04,0.01,2.30,1.49
0.006560,0.15,0.42,1.01,-1.12,-2.54,1.11
0.006580,0.15,0.41,1.01,-1.08,-4.00,1.83
0.006590,0.17,0.41,1.01,-1.73,7.18,2.44
0.006600,0.12,0.41,0.99,-3.36,2.86,0.84
0.006620,0.13,0.41,0.98,-2.83,1.05,0.85
0.006630,0.14,0.42,0.98,-3.03,3.01,0.50
0.006640,0.14,0.41,0.96,-2.69,0.05,-0.06
0.006660,0.14,0.42,0.97,-1.59,1.16,0.24
0.006670,0.14,0.44,0.98,-1.29,2.49,0.20
0.006680,0.14,0.43,0.99,-1.15,-0.96,0.10
0.006700,0.16,0.44,1.00,-0.68,2.89,1.02
0.006710,0.14,0.44,1.00,-1.66,2.27,0.95
