Time,acce_x,acce_y,acce_z,gyro_x,gyro_y,gyro_z
0.000010,0.37,0.11,1.05,-92.29,38.81,6.14
0.000020,0.35,0.09,1.06,-85.10,37.18,11.10
0.000030,0.27,0.07,1.08,-82.63,24.69,13.07
0.000050,0.29,0.06,1.08,-76.34,17.19,8.12
0.000060,0.30,0.06,1.07,-67.39,11.19,5.98
0.000070,0.31,0.06,1.07,-56.12,7.74,6.47
0.000090,0.29,0.04,1.05,-48.18,1.44,4.47
0.000100,0.28,0.04,1.04,-42.53,-6.52,0.90
0.000110,0.29,0.03,1.02,-36.60,-13.18,-2.52
0.000130,0.32,0.04,1.00,-28.70,-13.30,-5.24
0.000140,0.35,0.04,0.99,-19.76,-9.94,-6.79
0.000150,0.36,0.04,0.99,-12.82,-7.42,-9.18
0.000170,0.36,0.04,0.99,-7.37,-5.56,-11.50
0.000180,0.33,0.05,0.99,-2.99,-7.62,-14.26
0.000190,0.33,0.04,0.99,1.25,-12.02,-17.92
0.000210,0.32,0.04,0.99,5.05,-19.54,-23.18
0.000220,0.34,0.13,1.01,-1.69,-8.63,-18.79
0.000230,0.57,0.05,1.03,11.62,-5.42,-16.70
0.000250,0.40,0.10,1.14,-36.60,-21.31,-25.11
0.000260,0.60,0.04,1.07,7.36,-3.33,-22.14
0.000270,0.43,0.07,1.03,26.14,-37.11,-30.44
0.000290,0.44,0.12,1.08,7.82,-19.88,-16.72
0.000300,0.45,0.07,1.02,-15.48,-21.19,-13.30
0.000310,0.46,0.06,0.96,4.67,-9.19,-7.73
0.000330,0.45,0.06,0.97,5.73,-11.59,-5.51
0.000340,0.44,0.07,0.96,-0.69,-9.25,-4.06
0.000350,0.44,0.06,0.92,7.05,-8.93,-4.41
0.000370,0.45,0.06,0.94,11.82,-8.26,-2.17
0.000380,0.46,0.05,0.95,15.82,-7.22,-0.72
0.000390,0.45,0.07,0.98,17.40,0.63,2.61
0.000410,0.43,0.07,1.01,13.19,5.98,5.13
0.000420,0.41,0.06,1.02,9.25,7.88,6.66
0.000430,0.38,0.06,1.03,7.60,5.19,6.11
0.000450,0.37,0.06,1.03,6.96,1.42,5.24
0.000460,0.38,0.06,1.02,4.92,0.55,4.26
0.000470,0.40,0.06,1.02,2.84,-0.35,4.18
0.000480,0.40,0.07,1.02,2.81,-0.02,4.21
0.000500,0.39,0.07,1.00,4.27,0.63,4.08
0.000510,0.38,0.07,1.00,4.92,-0.47,3.45
0.000520,0.37,0.07,1.01,5.83,-2.20,2.58
0.000540,0.38,0.07,1.01,6.56,-4.60,1.48
0.000550,0.38,0.07,1.01,7.34,-5.86,0.40
0.000560,0.38,0.07,0.99,8.24,-7.54,-0.26
0.000580,0.39,0.07,1.00,10.63,-7.07,0.15
0.000590,0.40,0.08,0.99,13.88,-4.99,0.24
0.000600,0.40,0.09,0.99,16.14,-1.54,0.49
0.000620,0.39,0.08,1.01,18.08,-2.64,0.29
0.000630,0.39,0.09,1.02,20.17,-3.69,0.52
0.000640,0.40,0.10,1.04,21.24,-5.11,0.67
0.000660,0.41,0.11,1.04,19.95,-5.05,1.53
0.000670,0.41,0.12,1.03,17.48,-5.37,2.95
0.000680,0.39,0.11,1.02,15.66,-6.08,3.31
0.000690,0.39,0.10,1.03,14.96,-6.67,2.73
0.000710,0.39,0.11,1.03,14.09,-7.28,1.85
0.000720,0.40,0.12,1.02,11.53,-6.21,0.99
0.000730,0.39,0.12,1.01,7.56,-5.65,1.65
0.000750,0.40,0.13,1.00,3.53,-5.95,2.17
0.000760,0.39,0.12,0.99,1.94,-4.34,2.63
0.000770,0.38,0.11,0.99,0.79,-2.99,1.92
0.000790,0.37,0.11,0.99,-0.23,-4.06,1.22
0.000800,0.36,0.12,0.99,-1.16,-5.11,0.03
0.000810,0.36,0.12,1.00,-2.55,-4.95,-1.33
0.000830,0.37,0.12,1.00,-4.55,-4.85,-1.91
0.000840,0.39,0.12,1.00,-6.23,-3.22,-2.64
0.000850,0.39,0.12,0.98,-7.71,0.14,-2.24
0.000870,0.40,0.11,1.00,-8.37,0.46,-2.24
0.000880,0.39,0.12,1.00,-7.47,3.54,-1.10
0.000890,0.38,0.12,1.03,-6.41,5.80,-0.85
0.000910,0.37,0.12,1.03,-7.30,5.71,-1.62
0.000920,0.36,0.11,1.03,-8.93,3.73,-2.95
0.000930,0.36,0.11,1.03,-9.37,0.63,-4.08
0.000950,0.39,0.12,1.01,-7.74,-0.61,-4.21
0.000960,0.39,0.11,1.01,-5.86,-3.15,-2.93
0.000970,0.40,0.12,1.02,-5.01,-2.17,-2.79
0.000990,0.39,0.13,1.02,-5.34,-2.12,-2.08
0.001000,0.41,0.11,1.01,-5.53,-0.37,-1.40
0.001010,0.40,0.10,1.00,-4.31,0.93,-1.62
0.001030,0.39,0.10,1.01,-1.98,0.14,-1.91
0.001040,0.38,0.10,1.01,0.00,-2.41,-2.24
0.001050,0.38,0.10,1.04,0.34,-5.65,-2.52
0.001070,0.39,0.11,1.04,-0.98,-5.66,-3.04
0.001080,0.39,0.11,1.02,-1.79,-5.60,-3.21
0.001090,0.39,0.11,1.04,-2.02,-5.94,-3.94
0.001110,0.41,0.10,1.02,-1.66,-4.50,-3.74
0.001120,0.40,0.10,1.02,-1.51,-3.97,-4.15
0.001130,0.41,0.10,1.03,-1.36,-3.21,-5.25
0.001150,0.41,0.11,1.04,-1.44,-3.07,-5.85
0.001160,0.42,0.11,1.04,-1.69,-2.82,-6.18
0.001170,0.43,0.11,1.05,-2.75,-2.53,-6.63
0.001190,0.43,0.12,1.05,-4.05,-1.21,-6.12
0.001200,0.44,0.11,1.05,-5.13,-1.80,-5.85
0.001210,0.44,0.11,1.05,-5.79,-0.50,-4.73
0.001230,0.44,0.11,1.05,-6.69,-0.05,-3.68
0.001240,0.44,0.11,1.06,-8.08,1.95,-3.10
0.001250,0.44,0.10,1.05,-9.56,5.19,-3.01
0.001270,0.43,0.09,1.05,-9.60,5.59,-3.33
0.001280,0.42,0.09,1.06,-8.12,5.91,-4.31
0.001290,0.43,0.10,1.08,-7.54,6.17,-5.02
0.001310,0.43,0.09,1.11,-8.84,6.34,-5.10
0.001320,0.42,0.09,1.12,-10.60,7.04,-6.09
0.001330,0.42,0.08,1.15,-12.31,10.79,-10.41
0.001350,0.43,0.09,1.15,-12.35,10.60,-8.96
0.001360,0.43,0.10,1.16,-11.11,9.37,-6.89
0.001370,0.44,0.09,1.16,-9.37,9.40,-4.98
0.001390,0.43,0.09,1.18,-9.95,7.83,-3.97
0.001400,0.41,0.11,1.18,-10.47,5.79,-3.16
0.001410,0.41,0.10,1.15,-9.50,4.61,-1.11
0.001430,0.41,0.10,1.16,-8.50,4.56,-1.37
0.001440,0.41,0.09,1.15,-6.64,7.05,-1.22
0.001450,0.40,0.09,1.18,-6.09,6.29,-2.41
0.001470,0.41,0.12,1.19,-6.99,4.96,-2.35
0.001480,0.43,0.13,1.21,-8.56,7.36,0.73
0.001490,0.42,0.13,1.20,-11.57,7.21,3.82
0.001510,0.40,0.13,1.17,-14.41,5.39,6.08
0.001520,0.40,0.11,1.15,-15.05,5.16,7.47
0.001530,0.39,0.10,1.13,-14.20,5.24,7.98
0.001550,0.37,0.10,1.12,-13.11,6.93,6.64
0.001560,0.36,0.10,1.12,-12.61,7.10,5.01
0.001570,0.42,0.07,1.17,-6.53,9.18,2.17
0.001590,0.38,0.09,1.12,-2.84,1.77,1.86
0.001600,0.32,0.14,1.12,-27.02,-0.08,5.95
0.001610,0.40,0.09,1.08,-41.31,-5.97,6.11
0.001630,0.40,0.06,1.03,-23.83,3.31,7.54
0.001640,0.38,0.08,1.07,-16.50,0.63,9.22
0.001650,0.37,0.09,1.09,-14.14,0.81,9.25
0.001670,0.36,0.10,1.09,-21.11,-3.63,8.92
0.001680,0.37,0.08,1.04,-26.08,-7.86,12.05
0.001690,0.36,0.05,0.98,-23.31,-10.37,15.24
0.001710,0.37,0.04,0.95,-18.34,-7.16,14.15
0.001720,0.44,0.04,0.93,-5.62,5.19,16.79
0.001730,0.41,0.03,0.99,0.03,0.53,17.86
0.001750,0.21,0.04,0.95,-12.98,-9.05,14.63
0.001760,0.37,0.00,1.00,-2.99,7.31,12.78
0.001770,0.28,0.04,1.02,-7.92,2.98,15.97
0.001790,0.30,0.03,1.05,-12.46,-10.70,14.95
0.001800,0.31,0.01,1.04,-11.82,-10.49,11.01
0.001810,0.29,0.01,1.00,-10.50,-17.71,11.68
0.001830,0.32,0.02,0.98,-11.21,-20.66,7.44
0.001840,0.32,-0.00,1.00,-14.69,-24.87,3.42
0.001850,0.33,0.03,0.96,-16.78,-26.73,3.71
0.001870,0.39,0.02,0.96,-17.85,-19.37,5.33
0.001880,0.42,0.01,0.95,-20.55,-9.88,5.37
0.001890,0.36,-0.05,0.93,-18.53,1.02,4.61
0.001910,0.37,-0.00,0.92,-20.26,9.25,4.18
0.001920,0.36,-0.01,0.93,-22.24,9.71,3.48
0.001930,0.36,-0.02,0.96,-23.60,10.09,3.85
0.001950,0.37,-0.03,0.96,-23.62,8.60,5.04
0.001960,0.37,-0.03,0.98,-23.05,6.92,5.50
0.001970,0.36,-0.04,0.98,-22.46,7.50,5.50
0.001990,0.37,-0.04,1.01,-23.42,10.18,4.66
0.002000,0.37,-0.05,1.01,-23.48,11.02,5.39
0.002020,0.36,-0.04,1.03,-23.95,12.38,5.95
0.002030,0.35,-0.04,1.04,-25.79,10.40,5.88
0.002040,0.34,-0.05,1.02,-25.25,5.94,5.89
0.002060,0.33,-0.05,1.00,-24.29,-0.27,4.84
0.002070,0.36,-0.07,1.01,-20.96,-3.82,5.28
0.002080,0.36,-0.03,1.03,-17.73,-1.97,4.78
0.002100,0.38,-0.07,1.02,-16.31,-0.79,3.95
0.002110,0.37,-0.06,1.03,-15.28,0.27,4.76
0.002120,0.37,-0.05,1.04,-15.42,-0.49,5.47
0.002140,0.38,-0.07,1.06,-15.82,-0.49,7.11
0.002150,0.38,-0.08,1.05,-13.25,1.83,6.78
0.002160,0.37,-0.09,1.04,-15.77,0.60,5.47
0.002180,0.39,-0.07,1.04,-17.19,-0.73,6.24
0.002190,0.39,-0.06,1.07,-15.68,-1.44,8.56
0.002200,0.39,-0.04,1.08,-19.22,-1.25,8.84
0.002220,0.37,-0.07,1.06,-20.72,-0.75,9.24
0.002230,0.34,-0.09,1.04,-25.04,-5.91,10.87
0.002240,0.34,-0.11,1.01,-26.02,-4.90,10.89
0.002260,0.34,-0.12,0.99,-25.22,-0.70,8.82
0.002270,0.33,-0.13,1.02,-22.84,5.62,4.21
0.002280,0.31,-0.13,1.05,-25.31,4.26,4.31
0.002300,0.32,-0.11,1.06,-24.60,4.56,0.63
0.002310,0.31,-0.12,1.07,-28.18,1.71,1.36
0.002320,0.34,-0.12,1.05,-30.50,0.72,0.23
0.002340,0.34,-0.12,1.05,-31.45,-2.14,1.42
0.002350,0.37,-0.16,1.04,-30.38,-2.15,1.54
0.002360,0.35,-0.13,1.05,-33.16,-2.61,3.98
0.002380,0.33,-0.15,1.04,-35.16,-3.34,4.31
0.002390,0.34,-0.17,1.02,-35.02,-3.34,3.07
0.002400,0.32,-0.19,1.00,-35.88,-3.63,5.01
0.002420,0.33,-0.20,0.99,-34.81,0.11,2.79
0.002430,0.35,-0.23,0.98,-31.01,4.32,-1.94
0.002450,0.37,-0.23,1.00,-29.97,3.56,0.63
0.002460,0.35,-0.20,1.05,-28.43,1.42,1.89
0.002470,0.36,-0.18,1.12,-28.84,-3.76,3.39
0.002490,0.37,-0.16,1.12,-32.66,-5.18,4.73
0.002500,0.35,-0.19,1.08,-39.76,-4.78,5.83
0.002510,0.35,-0.22,1.03,-42.96,-4.11,4.27
0.002530,0.35,-0.24,1.00,-43.74,-2.23,2.61
0.002540,0.36,-0.26,0.97,-39.71,-2.53,0.58
0.002550,0.35,-0.26,0.98,-37.31,-1.88,0.03
0.002570,0.35,-0.24,1.00,-34.87,-3.19,-0.14
0.002580,0.37,-0.27,0.99,-36.60,-4.18,0.17
0.002590,0.39,-0.28,1.00,-37.89,2.18,-0.99
0.002610,0.37,-0.27,0.99,-39.33,4.90,-1.15
0.002620,0.36,-0.28,1.00,-39.44,5.59,-4.08
0.002630,0.36,-0.27,1.00,-39.97,4.89,-4.82
0.002650,0.36,-0.26,1.01,-42.26,2.43,-4.46
0.002660,0.38,-0.25,0.99,-43.36,3.21,-5.24
0.002670,0.38,-0.28,0.98,-47.21,1.34,-1.80
0.002690,0.37,-0.29,0.96,-48.03,2.08,-2.52
0.002700,0.35,-0.30,0.95,-46.17,-0.73,-0.79
0.002710,0.36,-0.33,0.92,-44.32,-4.61,0.11
0.002730,0.37,-0.34,0.89,-44.34,-6.47,1.82
0.002740,0.37,-0.36,0.86,-42.56,-4.89,1.25
0.002750,0.37,-0.34,0.86,-39.15,-8.47,1.69
0.002770,0.36,-0.36,0.89,-34.78,-17.04,4.32
0.002780,0.39,-0.35,0.87,-33.10,-27.19,8.43
0.002790,0.43,-0.36,0.87,-33.74,-18.47,7.30
0.002810,0.44,-0.38,0.83,-38.21,-10.63,9.85
0.002820,0.43,-0.40,0.78,-40.85,5.11,6.81
0.002840,0.42,-0.44,0.77,-40.56,22.70,1.05
0.002850,0.39,-0.44,0.78,-41.02,28.43,0.78
0.002860,0.36,-0.45,0.79,-36.89,26.82,1.68
0.002880,0.35,-0.43,0.84,-32.00,17.86,5.04
0.002890,0.32,-0.42,0.90,-30.95,0.89,12.18
0.002900,0.34,-0.42,0.87,-32.60,-8.12,18.20
0.002920,0.31,-0.43,0.88,-35.66,-8.20,22.49
0.002930,0.28,-0.46,0.86,-38.96,-5.62,23.36
0.002940,0.27,-0.50,0.84,-40.05,2.31,18.98
0.002960,0.22,-0.50,0.85,-39.07,2.24,15.54
0.002970,0.18,-0.51,0.84,-37.22,-4.87,12.32
0.002980,0.20,-0.53,0.79,-38.20,-13.65,14.24
0.003000,0.20,-0.55,0.76,-36.99,-18.82,13.50
0.003010,0.24,-0.55,0.74,-35.91,-16.76,10.32
0.003020,0.25,-0.55,0.75,-35.11,-8.11,6.90
0.003040,0.23,-0.57,0.73,-33.91,-7.74,6.18
0.003050,0.23,-0.60,0.67,-32.72,-14.81,8.78
0.003070,0.21,-0.62,0.63,-29.51,-25.16,13.97
0.003080,0.23,-0.66,0.59,-24.76,-31.65,17.88
0.003090,0.24,-0.68,0.62,-19.47,-27.92,16.29
0.003110,0.27,-0.67,0.62,-17.95,-16.09,10.43
0.003120,0.25,-0.68,0.64,-15.79,-12.81,7.01
0.003130,0.27,-0.63,0.64,-16.73,-9.69,6.27
0.003150,0.25,-0.59,0.63,-18.14,-10.18,6.31
0.003160,0.27,-0.63,0.65,-16.84,-5.51,3.71
0.003170,0.31,-0.68,0.70,-11.68,1.33,-0.41
0.003190,0.31,-0.68,0.76,-7.65,5.86,-3.68
0.003200,0.32,-0.67,0.81,-5.34,2.82,-2.05
0.003210,0.33,-0.65,0.80,-10.78,-1.56,3.08
0.003230,0.26,-0.60,0.73,-22.02,-5.31,11.34
0.003240,0.23,-0.68,0.63,-23.86,-6.34,14.64
0.003250,0.23,-0.73,0.62,-17.50,-4.37,10.70
0.003270,0.23,-0.79,0.64,-10.79,-2.32,6.41
0.003280,0.23,-0.78,0.67,-4.17,-0.05,-1.19
0.003290,0.23,-0.74,0.71,-2.35,-3.79,-3.10
0.003310,0.19,-0.69,0.68,-9.74,-6.85,-1.37
0.003320,0.17,-0.73,0.58,-14.87,-9.37,0.70
0.003340,0.19,-0.79,0.51,-12.14,-5.89,-2.14
0.003350,0.22,-0.81,0.51,-5.65,6.67,-9.34
0.003360,0.22,-0.80,0.56,0.89,15.60,-13.97
0.003380,0.22,-0.78,0.62,5.95,15.60,-16.58
0.003390,0.22,-0.73,0.67,7.30,15.02,-19.36
0.003400,0.25,-0.68,0.67,1.74,12.93,-19.10
0.003420,0.29,-0.72,0.58,-2.06,12.46,-15.56
0.003430,0.30,-0.76,0.48,-0.20,13.80,-12.17
0.003440,0.31,-0.78,0.48,7.95,19.04,-10.46
0.003460,0.31,-0.75,0.55,14.32,25.63,-15.39
0.003470,0.34,-0.74,0.60,17.92,33.94,-19.92
0.003480,0.35,-0.65,0.69,22.02,33.89,-22.35
0.003500,0.35,-0.56,0.77,21.01,28.92,-19.53
0.003510,0.36,-0.54,0.79,20.21,16.81,-10.08
0.003520,0.37,-0.58,0.82,22.75,8.92,-1.24
0.003540,0.34,-0.60,0.85,23.85,7.59,2.79
0.003550,0.29,-0.64,0.87,22.63,4.29,5.77
0.003560,0.21,-0.65,0.85,22.67,5.27,3.82
0.003580,0.15,-0.62,0.87,22.02,2.08,-1.02
0.003590,0.16,-0.57,0.89,21.56,-1.82,-7.08
0.003600,0.22,-0.58,0.90,25.07,-5.63,-8.27
0.003620,0.24,-0.56,0.92,28.37,-9.31,-9.33
0.003630,0.27,-0.53,0.96,29.15,-13.95,-8.49
0.003640,0.28,-0.51,0.98,25.30,-15.08,-6.84
0.003660,0.28,-0.52,0.97,19.53,-15.92,-5.47
0.003670,0.27,-0.52,0.93,15.53,-19.21,-3.19
0.003690,0.26,-0.55,0.89,15.05,-23.10,-1.15
0.003700,0.26,-0.56,0.84,18.76,-31.60,-0.14
0.003710,0.30,-0.56,0.84,24.67,-41.51,0.64
0.003730,0.37,-0.50,0.86,25.47,-38.09,-1.60
0.003740,0.42,-0.46,0.89,21.51,-13.86,-5.79
0.003750,0.36,-0.48,0.88,12.96,1.71,-9.13
0.003770,0.30,-0.55,0.81,7.57,10.96,-12.26
0.003780,0.26,-0.58,0.79,8.81,6.96,-13.08
0.003790,0.27,-0.56,0.80,13.86,0.55,-14.31
0.003810,0.30,-0.54,0.81,19.59,-4.21,-13.68
0.003820,0.30,-0.51,0.83,22.67,-12.29,-10.93
0.003830,0.32,-0.51,0.82,22.44,-13.97,-9.92
0.003850,0.33,-0.51,0.80,20.58,-10.82,-10.56
0.003860,0.33,-0.51,0.77,19.47,-4.41,-13.01
0.003870,0.35,-0.51,0.77,22.31,1.25,-15.65
0.003890,0.36,-0.47,0.82,25.85,0.98,-13.57
0.003900,0.35,-0.45,0.88,27.27,-5.65,-8.27
0.003910,0.32,-0.45,0.86,24.75,-7.53,-6.26
0.003930,0.30,-0.49,0.83,22.08,-7.62,-7.18
0.003940,0.29,-0.50,0.78,20.46,-6.76,-8.35
0.003960,0.29,-0.50,0.77,22.09,-3.83,-11.47
0.003970,0.33,-0.50,0.76,26.21,-1.48,-13.74
0.003980,0.33,-0.50,0.77,31.13,-1.91,-12.81
0.004000,0.30,-0.46,0.80,31.85,-3.04,-13.31
0.004010,0.29,-0.46,0.81,30.84,-0.53,-16.00
0.004020,0.31,-0.47,0.80,30.26,1.86,-20.23
0.004040,0.34,-0.43,0.85,29.68,4.76,-24.08
0.004050,0.40,-0.38,0.88,28.93,5.21,-24.29
0.004060,0.42,-0.35,0.86,27.25,4.00,-19.37
0.004080,0.40,-0.36,0.85,27.89,-0.63,-15.13
0.004090,0.42,-0.35,0.86,26.70,1.15,-16.67
0.004100,0.44,-0.33,0.90,26.47,9.69,-19.83
0.004120,0.43,-0.34,0.94,27.77,13.30,-21.60
0.004130,0.43,-0.34,0.97,27.77,12.44,-19.16
0.004140,0.41,-0.32,0.97,27.04,5.73,-16.90
0.004160,0.41,-0.29,0.98,25.63,1.77,-16.67
0.004170,0.41,-0.25,1.01,24.82,-2.37,-16.99
0.004180,0.44,-0.26,0.97,23.02,-6.08,-15.01
0.004200,0.46,-0.31,0.95,27.01,-10.41,-12.53
0.004210,0.49,-0.29,0.97,31.01,-11.66,-13.10
0.004230,0.54,-0.25,1.04,32.75,-6.05,-12.89
0.004240,0.54,-0.19,1.08,29.98,1.34,-9.76
0.004250,0.48,-0.19,1.06,24.90,-0.87,-2.92
0.004270,0.43,-0.26,0.99,22.53,-7.69,2.38
0.004280,0.41,-0.28,0.99,24.46,-10.55,0.43
0.004290,0.42,-0.25,0.99,26.69,-6.20,-5.21
0.004310,0.45,-0.25,1.00,28.40,0.15,-8.78
0.004320,0.44,-0.25,1.02,29.65,-0.73,-7.36
0.004330,0.43,-0.20,1.03,27.28,-5.48,-5.11
0.004350,0.42,-0.20,1.03,23.59,-7.95,-2.02
0.004360,0.41,-0.22,1.00,21.51,-8.82,-0.58
0.004370,0.41,-0.22,0.99,21.44,-4.61,-3.18
0.004390,0.40,-0.22,0.99,22.05,-2.60,-5.71
0.004400,0.41,-0.20,0.99,22.02,-0.70,-7.11
0.004410,0.40,-0.22,0.97,21.83,-6.66,-4.95
0.004430,0.39,-0.22,0.93,22.32,-16.05,-0.24
0.004440,0.40,-0.23,0.91,23.11,-19.28,2.63
0.004450,0.39,-0.22,0.90,24.09,-14.53,-1.24
0.004470,0.38,-0.22,0.91,25.44,-6.66,-7.45
0.004480,0.41,-0.20,0.91,26.76,-2.12,-11.15
0.004490,0.43,-0.19,0.90,27.69,0.14,-10.79
0.004510,0.43,-0.20,0.90,28.69,-1.77,-6.87
0.004520,0.39,-0.19,0.91,29.27,-4.87,-3.74
0.004530,0.36,-0.14,0.98,25.71,-6.72,-6.08
0.004550,0.36,-0.15,0.98,23.37,-7.86,-8.12
0.004560,0.34,-0.19,0.95,19.59,-18.76,-6.75
0.004580,0.37,-0.22,0.86,19.60,-21.33,-6.89
0.004590,0.41,-0.24,0.80,25.04,-22.66,-5.73
0.004600,0.44,-0.20,0.80,30.43,-16.82,-7.94
0.004620,0.46,-0.16,0.84,35.42,-11.02,-8.67
0.004630,0.45,-0.10,0.92,36.53,-6.43,-6.24
0.004640,0.39,-0.09,0.96,32.90,-9.07,-2.60
0.004660,0.35,-0.09,0.94,26.60,-11.65,-4.67
0.004670,0.38,-0.11,0.92,22.67,-10.60,-10.49
0.004680,0.40,-0.11,0.90,23.21,-8.46,-16.44
0.004700,0.45,-0.09,0.90,25.82,-5.80,-20.31
0.004710,0.50,-0.06,0.91,27.74,-6.67,-19.30
0.004720,0.54,-0.04,0.90,27.08,-5.71,-14.96
0.004740,0.53,-0.02,0.90,26.34,-7.10,-6.64
0.004750,0.51,-0.01,0.93,25.01,-5.95,-0.24
0.004760,0.47,-0.02,0.93,24.09,0.40,-0.76
0.004780,0.43,-0.02,0.95,23.69,6.24,-4.40
0.004790,0.42,-0.03,0.95,24.69,6.38,-6.99
0.004800,0.43,-0.02,0.97,25.18,2.00,-7.42
0.004820,0.45,-0.01,0.97,24.79,-1.51,-7.39
0.004830,0.45,0.02,1.00,23.86,-2.12,-8.11
0.004840,0.46,0.02,1.01,21.39,-5.07,-7.65
0.004860,0.48,0.02,0.98,18.78,-4.58,-5.44
0.004870,0.46,-0.01,0.96,16.89,-2.12,-5.83
0.004890,0.49,0.01,0.96,15.60,2.52,-7.77
0.004900,0.53,0.05,0.96,15.50,12.89,-4.82
0.004910,0.51,0.08,0.97,15.25,19.21,-6.58
0.004930,0.44,0.08,0.99,13.89,15.44,-3.85
0.004940,0.43,0.08,0.98,11.02,7.85,-3.36
0.004950,0.45,0.05,0.97,8.49,6.11,-6.60
0.004960,0.50,0.06,0.96,7.89,10.78,-9.45
0.004980,0.54,0.06,0.96,9.08,15.71,-9.02
0.004990,0.56,0.10,0.98,12.31,16.26,-4.37
0.005000,0.51,0.10,1.01,12.31,13.11,2.02
0.005020,0.50,0.10,0.98,10.14,6.15,8.06
0.005030,0.47,0.07,0.96,10.11,3.39,11.48
0.005040,0.47,0.02,0.94,14.44,10.06,2.96
0.005060,0.50,0.08,0.93,19.91,23.63,3.68
0.005070,0.43,0.02,0.99,25.54,29.39,-5.04
0.005080,0.41,0.09,1.04,28.79,22.50,-1.57
0.005100,0.36,0.10,1.08,26.17,12.05,0.73
0.005110,0.25,0.13,1.13,1.21,-7.82,8.70
0.005120,0.45,0.09,0.96,22.38,0.14,1.16
0.005140,0.47,0.07,1.00,24.52,7.25,3.88
0.005150,0.38,0.10,0.95,39.59,13.79,-0.81
0.005160,0.44,0.17,1.07,13.62,-10.34,5.98
0.005180,0.43,0.13,1.13,-8.93,-13.68,11.57
0.005190,0.41,0.07,1.15,-6.73,-0.24,11.73
0.005200,0.40,0.16,1.12,-1.05,12.02,5.86
0.005220,0.38,0.12,1.10,4.00,18.29,-4.76
0.005230,0.35,0.13,1.09,0.96,15.60,-7.18
0.005240,0.36,0.12,1.07,-1.56,3.27,-6.87
0.005260,0.38,0.12,1.07,-3.04,-6.27,-6.35
0.005270,0.36,0.16,1.08,1.71,-9.54,-3.48
0.005280,0.38,0.13,1.07,6.75,-8.79,-8.55
0.005300,0.40,0.12,1.04,12.75,-7.66,-8.40
0.005310,0.42,0.13,1.04,16.52,-5.91,-7.50
0.005320,0.41,0.14,1.04,20.93,-1.48,-4.66
0.005340,0.39,0.14,1.04,21.53,-4.90,-2.38
0.005350,0.38,0.13,1.01,19.95,-12.31,-1.22
0.005360,0.39,0.12,0.98,18.98,-12.32,-1.73
0.005380,0.39,0.11,0.97,19.65,-9.31,-4.69
0.005390,0.38,0.14,1.00,22.14,-5.97,-6.14
0.005400,0.40,0.17,1.02,21.91,-3.73,-7.65
0.005420,0.39,0.18,1.00,18.26,-4.66,-6.61
0.005430,0.40,0.18,0.96,12.34,-7.60,-4.89
0.005440,0.42,0.15,0.90,8.08,-7.04,-2.37
0.005460,0.42,0.12,0.86,8.63,-0.43,-2.43
0.005470,0.42,0.12,0.88,16.37,11.60,-4.75
0.005480,0.39,0.14,0.96,26.90,19.16,-8.40
0.005500,0.36,0.18,1.06,31.07,11.62,-9.42
0.005510,0.38,0.20,1.11,26.53,-0.85,-6.27
0.005520,0.36,0.15,1.09,14.00,-10.72,-3.33
0.005540,0.38,0.19,1.00,7.77,-15.80,-2.24
0.005550,0.44,0.16,0.96,10.78,-13.27,-5.28
0.005560,0.45,0.16,0.99,24.70,-1.16,-7.51
0.005580,0.42,0.19,1.05,32.14,3.66,-10.18
0.005590,0.39,0.22,1.12,27.21,0.24,-11.59
0.005600,0.41,0.22,1.12,20.52,-9.74,-9.80
0.005620,0.40,0.26,1.11,6.79,-13.53,-9.57
0.005630,0.44,0.24,1.04,11.77,-3.60,-8.12
0.005650,0.46,0.24,1.03,4.05,-0.08,-7.76
0.005660,0.45,0.24,1.03,-8.49,7.10,-9.89
0.005670,0.44,0.24,1.07,-13.30,8.50,-12.82
0.005690,0.47,0.25,1.04,-8.87,7.86,-10.64
0.005700,0.48,0.27,1.09,-11.82,4.69,-9.28
0.005710,0.54,0.25,1.16,-23.39,28.34,-5.56
0.005730,0.23,0.23,0.97,-48.06,-29.30,-13.33
0.005740,0.54,0.21,1.11,-40.50,5.44,-5.34
0.005750,0.40,0.19,1.11,-20.14,22.55,-4.34
0.005770,0.38,0.21,1.16,-3.30,16.23,-1.36
0.005780,0.37,0.20,1.15,-7.31,3.39,-4.64
0.005790,0.36,0.20,1.13,-5.62,-1.27,-7.50
0.005810,0.36,0.20,1.10,-13.65,-13.69,-12.21
0.005820,0.44,0.18,1.08,-7.66,-13.45,-10.84
0.005830,0.44,0.20,1.06,-0.21,-12.31,-7.16
0.005850,0.45,0.20,1.07,-2.40,-13.79,-5.54
0.005860,0.43,0.20,1.07,-6.15,-15.04,-4.49
0.005870,0.40,0.19,1.05,-14.99,-14.66,-6.78
0.005890,0.43,0.16,1.03,-2.67,-4.66,-4.21
0.005900,0.43,0.18,1.04,2.98,-6.44,-5.05
0.005910,0.41,0.18,1.06,8.53,-8.31,-4.82
0.005930,0.42,0.20,1.08,6.56,-8.50,-3.22
0.005940,0.43,0.20,1.09,4.20,-9.50,-2.18
0.005950,0.43,0.20,1.08,2.47,-7.40,-1.82
0.005970,0.43,0.20,1.05,1.77,-2.82,-0.96
0.005980,0.39,0.19,1.03,0.32,-1.98,-2.31
0.005990,0.39,0.20,1.03,1.71,-3.15,-2.81
0.006010,0.37,0.20,1.03,1.31,-6.27,-3.02
0.006020,0.37,0.21,1.00,0.58,-6.60,-3.44
0.006030,0.38,0.21,0.98,-0.49,-7.28,-5.02
0.006050,0.40,0.20,0.98,1.57,-4.55,-6.96
0.006060,0.43,0.20,1.01,2.93,-1.34,-6.15
0.006070,0.41,0.19,1.03,1.56,-1.86,-5.33
0.006090,0.40,0.19,1.04,-1.25,-3.40,-4.44
0.006100,0.41,0.19,1.02,-4.05,-2.87,-4.02
0.006110,0.43,0.20,0.99,-5.02,0.06,-3.18
0.006130,0.42,0.19,0.97,-5.28,1.97,-1.74
0.006140,0.42,0.19,0.95,-5.30,-1.19,-2.06
0.006150,0.41,0.19,0.96,1.56,2.21,-1.62
0.006170,0.41,0.19,0.99,-0.38,-0.40,-1.80
0.006180,0.41,0.20,1.01,-1.89,-1.73,-2.08
0.006190,0.42,0.19,1.01,-2.11,-1.45,-0.73
0.006210,0.41,0.20,1.02,-2.60,-4.29,0.38
0.006220,0.41,0.19,1.00,-3.98,-4.02,0.44
0.006230,0.41,0.20,0.99,-4.20,-3.65,-0.03
0.006250,0.42,0.19,0.99,-4.53,-3.05,-0.08
0.006260,0.41,0.19,0.99,-2.37,-1.66,-0.99
0.006270,0.40,0.19,0.99,-2.78,-2.21,-1.05
0.006290,0.40,0.18,1.00,-2.14,-1.65,-1.80
0.006300,0.41,0.18,0.98,-2.40,-2.08,-2.52
0.006310,0.43,0.19,0.97,-2.31,-3.56,-2.53
0.006330,0.44,0.20,0.98,-0.55,-3.97,-1.89
0.006340,0.46,0.20,0.98,0.76,-4.21,0.02
0.006350,0.44,0.21,0.98,0.44,-4.14,3.07
0.006370,0.43,0.21,0.98,0.11,-3.69,4.58
0.006380,0.42,0.21,0.98,0.37,-1.71,4.38
0.006390,0.42,0.20,0.97,0.35,-0.56,4.49
0.006410,0.42,0.19,0.96,0.53,0.40,5.05
0.006420,0.43,0.18,0.96,1.80,1.34,4.26
0.006430,0.43,0.19,1.00,3.19,1.15,4.40
0.006440,0.42,0.19,1.02,4.21,-2.35,6.78
0.006460,0.40,0.18,1.04,3.01,-4.72,6.29
0.006470,0.39,0.19,1.02,0.85,-5.63,4.66
0.006480,0.39,0.19,1.01,0.14,-3.82,4.21
0.006500,0.39,0.18,0.98,0.03,-1.80,2.93
0.006510,0.40,0.18,0.98,0.43,-1.98,2.79
0.006520,0.40,0.19,0.98,0.14,-3.21,3.10
0.006540,0.38,0.19,0.97,-0.90,-4.09,2.82
0.006550,0.38,0.17,0.96,-1.10,-5.33,2.40
0.006560,0.37,0.18,0.95,-0.76,-7.07,0.56
0.006580,0.39,0.18,0.96,0.23,-5.56,-0.67
0.006590,0.39,0.18,0.97,0.98,-5.08,-1.34
0.006600,0.41,0.19,0.98,0.35,-4.29,-0.81
0.006620,0.41,0.19,0.99,0.17,-4.53,-0.52
0.006630,0.42,0.19,0.98,-0.55,-6.69,-0.12
0.006640,0.43,0.18,0.97,-0.37,-6.76,0.99
0.006660,0.42,0.20,0.97,-0.26,-3.97,1.11
0.006670,0.43,0.19,0.96,-0.67,0.00,0.76
0.006680,0.44,0.19,0.98,-0.11,2.99,0.82
