Time,acce_x,acce_y,acce_z,gyro_x,gyro_y,gyro_z
0.000010,0.05,0.21,1.08,1.61,-0.22,1.36
0.000020,0.06,0.21,1.06,1.09,-0.82,0.97
0.000030,0.05,0.22,1.07,-0.28,-1.51,0.41
0.000050,0.07,0.22,1.08,0.34,3.18,0.54
0.000060,0.06,0.21,1.07,0.48,0.60,-0.05
0.000070,0.08,0.22,1.06,0.82,1.17,0.42
0.000080,0.06,0.20,1.06,1.36,0.08,0.20
0.000100,0.07,0.21,1.06,1.95,-0.68,0.50
0.000110,0.07,0.21,1.06,1.77,-0.11,0.89
0.000120,0.05,0.22,1.08,0.44,1.03,0.50
0.000140,0.05,0.21,1.08,0.25,-1.90,-0.16
0.000150,0.05,0.21,1.07,-0.02,-5.50,0.25
0.000160,0.07,0.22,1.06,0.45,0.78,-0.17
0.000180,0.08,0.22,1.04,-0.29,2.31,-0.32
0.000190,0.07,0.22,1.03,-0.04,2.34,0.98
0.000200,0.07,0.22,1.03,1.02,3.85,1.24
0.000220,0.05,0.23,1.04,1.20,2.63,1.08
0.000230,0.05,0.23,1.06,0.12,3.76,0.80
0.000240,0.05,0.23,1.05,-1.31,5.57,-0.21
0.000250,0.09,0.23,1.03,-1.82,7.36,1.02
0.000270,0.07,0.21,1.04,-1.70,9.88,2.30
0.000280,0.05,0.21,1.05,-0.53,9.64,3.15
0.000290,0.02,0.21,1.03,0.96,4.58,3.07
0.000310,0.01,0.20,1.02,2.08,5.03,1.85
0.000320,-0.00,0.20,1.00,3.14,2.31,-0.89
0.000330,0.01,0.20,1.00,5.47,-0.71,-2.95
0.000350,0.03,0.21,1.02,8.17,-4.15,-4.82
0.000360,0.06,0.22,1.05,9.05,-3.24,-5.26
0.000370,0.06,0.23,1.08,8.06,-3.50,-4.40
0.000390,0.09,0.24,1.08,7.02,-4.10,-3.48
0.000400,0.09,0.24,1.08,5.30,-3.11,-1.41
0.000410,0.09,0.24,1.08,4.14,-0.92,0.51
0.000430,0.07,0.23,1.07,3.50,1.98,1.71
0.000440,0.03,0.22,1.06,3.15,1.72,1.07
0.000450,0.03,0.22,1.05,3.53,1.99,-0.01
0.000460,0.03,0.23,1.05,3.92,0.16,-0.89
0.000480,0.05,0.23,1.04,4.69,-0.22,-0.91
0.000490,0.08,0.23,1.04,6.01,4.29,-0.46
0.000500,0.09,0.23,1.05,6.61,5.79,0.69
0.000520,0.06,0.23,1.08,7.01,4.65,2.35
0.000530,0.04,0.22,1.10,5.73,5.73,3.71
0.000540,0.02,0.21,1.14,3.43,6.46,2.98
0.000560,-0.01,0.18,1.13,0.09,9.08,0.72
0.000570,-0.05,0.16,1.10,-0.05,6.94,-1.69
0.000580,-0.04,0.15,1.08,5.08,1.44,-4.64
0.000600,-0.03,0.17,1.12,10.94,-2.05,-7.18
0.000610,-0.01,0.21,1.21,13.21,-6.60,-8.90
0.000620,0.02,0.25,1.30,12.34,-9.94,-9.78
0.000640,0.05,0.28,1.37,5.64,-13.03,-8.97
0.000650,0.08,0.31,1.41,-3.37,-7.70,-6.01
0.000660,0.09,0.31,1.36,-12.95,-6.84,-2.87
0.000680,0.09,0.29,1.29,-19.32,-5.31,0.47
0.000690,0.09,0.26,1.21,-21.92,-4.34,2.85
0.000700,0.10,0.26,1.18,-23.81,-3.93,3.78
0.000720,0.09,0.25,1.19,-25.17,-5.31,5.57
0.000730,0.07,0.24,1.21,-26.29,-7.69,6.10
0.000740,0.06,0.23,1.19,-27.18,-9.13,5.45
0.000760,0.05,0.22,1.16,-27.89,-13.04,4.42
0.000770,0.08,0.23,1.14,-27.62,-13.37,3.81
0.000780,0.11,0.24,1.13,-28.19,-10.05,4.17
0.000800,0.11,0.24,1.14,-29.53,-6.00,5.56
0.000810,0.09,0.23,1.17,-30.37,-3.24,7.46
0.000820,0.05,0.21,1.20,-31.54,-5.36,8.54
0.000840,0.01,0.20,1.21,-35.16,-8.36,7.47
0.000850,-0.02,0.19,1.20,-38.66,-12.00,4.56
0.000860,0.00,0.17,1.18,-40.18,-17.61,1.34
0.000880,0.03,0.16,1.15,-39.92,-15.76,-0.36
0.000890,0.07,0.15,1.13,-39.92,-17.28,-1.46
0.000900,0.07,0.15,1.15,-39.54,-16.69,-0.77
0.000920,0.06,0.14,1.17,-39.94,-18.21,-1.08
0.000930,0.08,0.14,1.17,-41.34,-19.73,-1.56
0.000940,0.10,0.13,1.17,-41.35,-17.61,-1.04
0.000960,0.11,0.13,1.17,-42.28,-17.02,0.74
0.000970,0.09,0.14,1.15,-43.26,-14.89,1.66
0.000990,0.08,0.13,1.15,-43.85,-13.81,1.63
0.001000,0.08,0.12,1.14,-44.89,-13.25,1.47
0.001010,0.10,0.11,1.13,-46.07,-10.73,1.71
0.001030,0.08,0.11,1.14,-46.98,-9.82,1.33
0.001040,0.09,0.10,1.15,-48.25,-10.12,1.34
0.001050,0.09,0.09,1.11,-49.33,-13.49,2.54
0.001070,0.09,0.08,1.10,-49.40,-15.46,2.69
0.001080,0.12,0.07,1.08,-48.50,-11.91,2.16
0.001090,0.13,0.05,1.07,-49.15,-9.14,2.18
0.001110,0.13,0.04,1.08,-48.98,-5.16,3.16
0.001120,0.13,0.03,1.09,-48.76,-5.69,3.82
0.001130,0.10,0.03,1.12,-49.50,-8.25,3.70
0.001150,0.10,0.01,1.12,-50.31,-9.62,3.68
0.001160,0.10,0.00,1.10,-51.44,-13.76,3.17
0.001170,0.11,-0.02,1.09,-51.60,-17.29,3.64
0.001190,0.14,-0.04,1.08,-50.27,-17.08,4.07
0.001200,0.14,-0.04,1.09,-50.15,-18.11,4.98
0.001210,0.14,-0.05,1.10,-50.58,-16.40,6.36
0.001230,0.14,-0.05,1.10,-51.42,-12.38,6.03
0.001240,0.15,-0.06,1.09,-52.82,-14.69,5.58
0.001250,0.16,-0.07,1.07,-52.29,-14.23,6.00
0.001270,0.19,-0.08,1.06,-52.71,-14.64,7.39
0.001280,0.20,-0.08,1.07,-54.78,-12.77,9.98
0.001290,0.17,-0.12,1.07,-56.47,-11.82,12.35
0.001310,0.15,-0.16,1.07,-56.41,-9.34,13.00
0.001320,0.12,-0.22,1.08,-54.64,-7.24,13.24
0.001340,0.08,-0.23,1.15,-52.11,-9.57,10.66
0.001350,0.06,-0.24,1.22,-49.18,-11.66,7.49
0.001360,0.07,-0.22,1.24,-49.24,-14.37,3.11
0.001380,0.13,-0.19,1.23,-52.37,-18.06,0.20
0.001390,0.19,-0.17,1.20,-56.59,-17.63,-0.46
0.001400,0.24,-0.16,1.20,-61.15,-16.71,2.25
0.001420,0.24,-0.16,1.18,-65.06,-14.47,7.25
0.001430,0.21,-0.17,1.20,-68.16,-15.90,10.49
0.001440,0.17,-0.18,1.20,-72.24,-11.03,10.83
0.001460,0.18,-0.20,1.16,-76.96,-9.66,10.88
0.001470,0.18,-0.23,1.11,-81.16,-12.01,11.28
0.001480,0.18,-0.26,1.05,-82.45,-9.13,12.41
0.001500,0.17,-0.28,1.03,-82.66,-10.73,12.99
0.001510,0.14,-0.30,1.01,-80.29,-9.47,13.74
0.001530,0.12,-0.32,1.01,-77.86,-13.51,12.95
0.001540,0.12,-0.33,1.02,-77.66,-18.59,12.27
0.001550,0.12,-0.33,1.02,-79.73,-20.87,9.71
0.001570,0.15,-0.32,1.01,-82.90,-21.48,7.60
0.001580,0.18,-0.34,1.00,-83.85,-16.73,5.46
0.001590,0.20,-0.36,0.98,-85.99,-12.66,5.21
0.001610,0.21,-0.37,0.95,-86.68,-15.47,7.14
0.001620,0.20,-0.40,0.93,-86.12,-16.82,9.77
0.001630,0.19,-0.40,0.94,-87.18,-17.39,11.56
0.001650,0.17,-0.40,0.95,-89.63,-16.56,10.15
0.001660,0.19,-0.42,0.92,-92.75,-11.56,8.13
0.001670,0.23,-0.43,0.91,-96.86,-3.82,7.89
0.001690,0.24,-0.45,0.90,-101.05,5.53,7.00
0.001700,0.30,-0.51,0.87,-105.98,9.18,8.17
0.001720,0.31,-0.54,0.86,-107.96,16.01,15.31
0.001730,0.24,-0.56,0.86,-105.23,17.07,22.46
0.001740,0.16,-0.54,0.87,-105.60,6.41,26.15
0.001760,0.11,-0.57,0.86,-104.64,8.69,25.53
0.001770,0.07,-0.55,0.81,-106.21,-4.12,18.38
0.001780,0.13,-0.57,0.72,-105.73,-4.18,10.38
0.001800,0.22,-0.58,0.60,-106.02,2.15,2.63
0.001810,0.26,-0.60,0.57,-102.70,6.50,4.30
0.001820,0.22,-0.61,0.59,-98.01,4.66,10.87
0.001840,0.15,-0.63,0.62,-97.61,-6.14,14.66
0.001850,0.10,-0.65,0.60,-99.59,-14.21,14.92
0.001860,0.09,-0.69,0.57,-101.21,-18.73,14.33
0.001880,0.06,-0.71,0.52,-101.05,-15.82,13.28
0.001890,0.07,-0.73,0.46,-99.02,-13.31,10.65
0.001910,0.06,-0.71,0.46,-95.89,-11.76,6.46
0.001920,0.06,-0.73,0.49,-96.85,-11.56,9.85
0.001930,0.03,-0.74,0.46,-96.41,-13.22,8.03
0.001950,0.05,-0.74,0.45,-96.41,-20.05,4.91
0.001960,0.08,-0.73,0.37,-96.02,-17.66,0.78
0.001970,0.15,-0.72,0.31,-94.09,-17.59,-3.47
0.001990,0.19,-0.71,0.29,-90.42,-19.00,-0.95
0.002000,0.22,-0.74,0.28,-86.44,-20.44,3.65
0.002010,0.23,-0.75,0.30,-83.78,-20.31,7.98
0.002030,0.20,-0.75,0.29,-83.76,-19.45,13.92
0.002040,0.17,-0.76,0.30,-83.44,-18.56,18.35
0.002050,0.12,-0.77,0.29,-84.63,-21.51,17.44
0.002070,0.11,-0.78,0.27,-84.08,-23.92,16.73
0.002080,0.13,-0.80,0.26,-83.29,-23.06,15.86
0.002100,0.12,-0.81,0.25,-84.37,-25.38,14.78
0.002110,0.10,-0.80,0.25,-85.63,-25.00,14.33
0.002120,0.08,-0.82,0.25,-86.55,-26.26,11.32
0.002140,0.10,-0.83,0.16,-88.05,-25.16,9.56
0.002150,0.15,-0.85,0.13,-83.51,-15.21,0.08
0.002160,0.12,-0.87,0.09,-81.98,-24.90,2.05
0.002180,0.18,-0.91,0.01,-80.68,-21.82,8.88
0.002190,0.15,-0.95,-0.01,-80.85,-31.02,18.23
0.002200,0.12,-0.98,-0.02,-74.48,-33.63,21.32
0.002220,0.12,-1.00,-0.05,-66.93,-40.38,21.15
0.002230,0.17,-0.98,-0.04,-56.18,-36.09,17.67
0.002250,0.16,-0.98,-0.03,-50.48,-42.94,21.55
0.002260,0.16,-1.00,0.01,-41.63,-37.27,21.47
0.002270,0.10,-0.96,0.05,-43.42,-44.63,20.27
0.002290,0.14,-0.96,0.15,-49.61,-33.80,25.53
0.002300,0.06,-0.90,0.01,-62.49,-39.08,22.62
0.002310,0.08,-0.86,0.04,-63.39,-27.89,22.80
0.002330,0.12,-0.89,0.02,-68.20,-25.24,24.51
0.002340,0.09,-0.88,-0.04,-69.40,-28.15,26.16
0.002350,0.09,-0.90,-0.11,-66.57,-16.49,24.23
0.002370,0.01,-0.85,-0.01,-71.47,-23.95,28.10
0.002380,-0.00,-0.89,-0.10,-76.27,-34.40,29.16
0.002400,-0.02,-0.91,-0.11,-77.35,-30.47,28.89
0.002410,-0.03,-0.92,-0.18,-73.94,-28.33,25.24
0.002420,-0.07,-0.87,-0.12,-70.89,-30.67,23.05
0.002440,-0.05,-0.90,-0.14,-69.26,-34.57,21.31
0.002450,-0.04,-0.88,-0.14,-73.21,-38.58,24.85
0.002460,-0.01,-0.85,-0.17,-71.76,-26.38,25.51
0.002480,-0.04,-0.86,-0.20,-73.36,-36.26,25.15
0.002490,-0.03,-0.84,-0.20,-71.44,-26.86,24.63
0.002510,-0.02,-0.83,-0.24,-73.60,-29.20,21.78
0.002520,0.04,-0.81,-0.29,-72.31,-28.79,21.91
0.002530,0.08,-0.80,-0.31,-69.41,-32.68,24.85
0.002550,0.08,-0.77,-0.33,-64.04,-34.31,27.40
0.002560,0.03,-0.84,-0.34,-56.87,-29.10,30.56
0.002570,0.02,-0.85,-0.36,-54.16,-16.57,28.59
0.002590,-0.02,-0.85,-0.35,-61.06,-14.19,32.26
0.002600,-0.04,-0.83,-0.28,-70.89,-15.07,35.62
0.002620,-0.02,-0.86,-0.28,-77.45,-17.28,41.30
0.002630,-0.06,-0.86,-0.33,-81.58,-28.53,48.10
0.002640,-0.11,-0.86,-0.42,-80.81,-29.12,50.76
0.002660,-0.15,-0.89,-0.51,-78.05,-27.79,50.85
0.002670,-0.22,-0.90,-0.56,-73.25,-19.57,47.28
0.002690,-0.31,-0.91,-0.60,-66.92,-26.64,41.98
0.002700,-0.33,-0.90,-0.57,-61.62,-32.95,34.02
0.002710,-0.32,-0.86,-0.57,-59.63,-41.71,26.11
0.002730,-0.26,-0.85,-0.58,-49.47,-51.85,32.97
0.002740,-0.22,-0.85,-0.80,-46.81,-28.92,38.14
0.002750,-0.30,-0.94,-0.95,-39.13,-33.61,34.99
0.002770,-0.25,-0.98,-0.92,1.13,-20.24,50.66
0.002780,-0.40,-0.92,-0.98,4.82,-28.31,46.94
0.002800,-0.43,-0.93,-0.96,7.13,-10.06,28.18
0.002810,-0.46,-0.94,-0.95,5.05,-5.91,13.28
0.002820,-0.44,-0.95,-0.94,5.83,4.04,-1.40
0.002840,-0.40,-0.94,-0.89,10.55,11.44,-6.64
0.002850,-0.42,-0.98,-0.86,19.45,17.41,-7.95
0.002860,-0.48,-0.99,-0.79,22.91,20.98,-15.72
0.002880,-0.50,-0.99,-0.66,31.63,15.50,-26.66
0.002890,-0.42,-0.95,-0.61,35.98,10.06,-37.49
0.002900,-0.30,-0.90,-0.56,40.32,9.15,-42.67
0.002920,-0.22,-0.86,-0.49,42.34,7.76,-43.42
0.002930,-0.16,-0.82,-0.42,39.29,8.15,-41.40
0.002950,-0.11,-0.82,-0.38,38.31,4.79,-38.14
0.002960,-0.05,-0.83,-0.42,37.22,3.04,-33.45
0.002970,-0.01,-0.85,-0.45,40.21,10.64,-25.69
0.002990,-0.04,-0.86,-0.44,44.02,16.97,-19.60
0.003000,-0.10,-0.87,-0.44,47.39,15.94,-18.74
0.003010,-0.11,-0.87,-0.46,48.54,18.20,-20.31
0.003030,-0.13,-0.88,-0.44,48.79,18.11,-20.76
0.003040,-0.13,-0.88,-0.42,48.56,13.87,-19.08
0.003050,-0.13,-0.89,-0.40,48.68,6.98,-16.62
0.003070,-0.15,-0.90,-0.43,49.68,6.37,-11.54
0.003080,-0.13,-0.95,-0.48,51.82,11.46,-9.05
0.003100,-0.21,-0.93,-0.43,56.52,9.05,-15.50
0.003110,-0.18,-0.92,-0.39,64.02,8.27,-20.99
0.003120,-0.14,-0.91,-0.36,64.40,8.56,-22.56
0.003140,-0.13,-0.90,-0.33,63.12,11.60,-24.57
0.003150,-0.14,-0.90,-0.32,63.85,12.40,-27.03
0.003160,-0.11,-0.90,-0.31,65.87,13.46,-28.21
0.003180,-0.08,-0.91,-0.32,68.30,10.87,-25.78
0.003190,-0.06,-0.93,-0.32,72.50,10.02,-22.12
0.003210,-0.07,-0.93,-0.29,73.24,5.24,-20.01
0.003220,-0.08,-0.90,-0.26,72.96,5.82,-19.73
0.003230,-0.08,-0.92,-0.23,71.75,5.77,-24.36
0.003250,-0.09,-0.92,-0.20,73.99,12.63,-29.27
0.003260,-0.06,-0.94,-0.19,76.03,16.24,-31.02
0.003270,-0.06,-0.94,-0.19,78.65,16.92,-30.67
0.003290,-0.06,-0.93,-0.16,80.00,14.69,-30.20
0.003300,-0.06,-0.94,-0.12,81.31,8.82,-30.40
0.003310,-0.06,-0.93,-0.07,83.23,7.32,-31.11
0.003330,-0.06,-0.90,-0.04,79.96,1.16,-29.48
0.003340,0.02,-0.95,-0.09,77.94,3.76,-32.37
0.003360,0.04,-0.91,-0.03,76.89,9.35,-33.79
0.003370,0.03,-0.90,0.02,78.67,4.99,-32.27
0.003380,0.05,-0.90,0.04,80.94,8.90,-30.63
0.003400,0.06,-0.90,0.08,82.82,14.66,-31.19
0.003410,0.05,-0.90,0.10,82.25,23.65,-33.78
0.003420,0.04,-0.90,0.14,78.24,29.27,-36.72
0.003440,-0.02,-0.93,0.17,65.79,20.38,-31.98
0.003450,0.03,-0.95,0.13,61.98,19.04,-36.03
0.003460,0.06,-0.95,0.13,67.44,9.62,-40.41
0.003480,0.11,-0.93,0.15,73.62,1.79,-39.54
0.003490,0.11,-0.90,0.21,72.39,-2.03,-36.81
0.003500,0.13,-0.89,0.25,62.85,-3.11,-30.43
0.003520,0.17,-0.88,0.18,56.73,5.66,-28.21
0.003530,0.14,-0.90,0.17,57.92,11.76,-29.05
0.003540,0.17,-0.90,0.17,62.42,18.55,-32.13
0.003560,0.17,-0.90,0.15,68.59,19.98,-31.60
0.003570,0.17,-0.90,0.18,77.62,19.11,-28.40
0.003590,0.15,-0.88,0.22,81.60,13.13,-22.89
0.003600,0.11,-0.85,0.31,81.82,8.40,-23.36
0.003610,0.13,-0.80,0.39,77.47,6.27,-22.99
0.003630,0.13,-0.83,0.35,73.41,12.66,-26.44
0.003640,0.12,-0.82,0.33,66.73,18.34,-27.90
0.003650,0.13,-0.82,0.31,64.88,22.55,-27.89
0.003670,0.19,-0.85,0.26,69.61,40.79,-28.51
0.003680,0.16,-0.84,0.30,72.00,37.98,-28.26
0.003690,0.16,-0.82,0.37,72.69,37.89,-27.95
0.003710,0.13,-0.80,0.46,72.84,32.66,-27.71
0.003720,0.16,-0.78,0.51,71.49,31.32,-28.93
0.003730,0.18,-0.78,0.50,70.76,26.92,-26.54
0.003750,0.17,-0.77,0.50,70.97,25.52,-25.58
0.003760,0.19,-0.76,0.47,71.45,24.84,-28.47
0.003770,0.21,-0.76,0.46,75.35,23.56,-27.95
0.003790,0.22,-0.76,0.49,79.25,18.47,-24.82
0.003800,0.21,-0.74,0.56,81.93,6.92,-19.48
0.003810,0.24,-0.73,0.65,84.13,-5.73,-12.97
0.003830,0.25,-0.71,0.66,83.38,-7.80,-9.89
0.003840,0.29,-0.69,0.66,79.63,-2.15,-8.05
0.003860,0.28,-0.68,0.65,75.85,9.18,-7.88
0.003870,0.26,-0.67,0.67,75.47,16.13,-9.69
0.003880,0.22,-0.66,0.69,78.21,11.85,-11.60
0.003900,0.24,-0.63,0.70,80.84,10.66,-13.19
0.003910,0.22,-0.60,0.76,76.63,9.40,-12.24
0.003920,0.21,-0.58,0.79,71.16,12.69,-19.40
0.003940,0.25,-0.57,0.82,63.60,15.24,-21.60
0.003950,0.28,-0.57,0.80,59.26,15.56,-21.66
0.003960,0.32,-0.59,0.73,58.36,16.64,-17.15
0.003980,0.30,-0.59,0.73,59.13,16.84,-12.44
0.003990,0.27,-0.61,0.72,60.15,14.96,-8.48
0.004000,0.22,-0.60,0.74,62.01,14.08,-7.60
0.004020,0.19,-0.61,0.78,62.08,14.95,-7.89
0.004030,0.14,-0.61,0.81,61.60,16.10,-9.55
0.004040,0.13,-0.58,0.84,60.88,13.90,-12.95
0.004060,0.13,-0.56,0.84,60.51,12.49,-15.11
0.004070,0.15,-0.56,0.85,61.26,8.75,-16.46
0.004080,0.17,-0.55,0.85,61.72,6.08,-17.47
0.004100,0.22,-0.54,0.84,61.04,9.56,-18.67
0.004110,0.24,-0.50,0.83,60.54,14.41,-17.98
0.004130,0.21,-0.47,0.83,60.21,12.85,-16.27
0.004140,0.19,-0.42,0.87,60.36,11.60,-16.16
0.004150,0.17,-0.41,0.87,60.68,8.09,-18.03
0.004170,0.19,-0.42,0.85,61.60,3.53,-20.07
0.004180,0.29,-0.44,0.83,63.53,9.04,-20.21
0.004190,0.28,-0.43,0.87,62.98,12.50,-17.08
0.004210,0.27,-0.43,0.92,61.10,19.26,-13.34
0.004220,0.18,-0.42,0.94,60.74,21.90,-11.54
0.004230,0.14,-0.42,0.94,61.51,17.95,-12.40
0.004250,0.12,-0.42,0.95,62.42,10.88,-13.90
0.004260,0.13,-0.42,0.92,65.63,10.45,-17.44
0.004270,0.19,-0.41,0.90,67.51,10.91,-18.85
0.004290,0.22,-0.38,0.88,69.27,19.11,-19.85
0.004300,0.19,-0.35,0.92,71.16,21.65,-18.76
0.004310,0.14,-0.32,0.98,73.32,16.08,-19.73
0.004330,0.11,-0.28,1.05,75.11,0.82,-18.13
0.004340,0.07,-0.24,1.11,75.44,-15.54,-19.91
0.004360,0.05,-0.20,1.12,71.34,-33.03,-25.70
0.004370,0.18,-0.20,1.08,65.92,-38.17,-32.66
0.004380,0.31,-0.19,0.99,65.60,-2.59,-34.63
0.004400,0.34,-0.18,0.92,61.73,2.67,-33.92
0.004410,0.37,-0.16,0.93,63.13,9.32,-25.82
0.004420,0.30,-0.16,0.96,65.44,7.73,-18.02
0.004440,0.22,-0.15,1.03,66.37,4.89,-14.00
0.004450,0.18,-0.14,1.03,67.50,2.05,-14.08
0.004460,0.18,-0.11,1.01,68.14,2.17,-17.89
0.004480,0.25,-0.09,0.98,66.54,5.73,-20.44
0.004490,0.31,-0.06,0.98,65.15,23.69,-18.82
0.004500,0.26,-0.06,1.00,64.15,29.18,-14.05
0.004520,0.16,-0.04,1.04,65.76,23.76,-11.33
0.004530,0.13,-0.01,1.02,67.29,11.88,-11.46
0.004540,0.14,0.02,1.00,67.45,5.09,-14.19
0.004560,0.21,0.03,0.94,66.44,9.24,-17.18
0.004570,0.26,0.05,0.92,66.61,13.09,-17.27
0.004580,0.25,0.08,0.95,67.41,15.44,-13.18
0.004600,0.23,0.10,1.01,68.39,18.02,-7.90
0.004610,0.17,0.09,1.04,67.27,26.69,-5.64
0.004620,0.10,0.10,1.08,64.50,25.64,-5.61
0.004640,0.08,0.13,1.04,63.52,29.40,-11.88
0.004650,0.14,0.16,0.95,63.78,26.37,-18.86
0.004660,0.21,0.20,0.90,65.98,26.74,-20.64
0.004680,0.27,0.22,0.94,69.10,31.10,-16.84
0.004690,0.21,0.21,1.05,72.81,28.11,-9.19
0.004710,0.11,0.24,1.24,71.97,19.32,-5.20
0.004720,0.10,0.27,1.33,62.95,11.72,-4.20
0.004730,0.12,0.29,1.30,53.11,19.37,-8.31
0.004750,0.17,0.30,1.22,45.19,14.00,-7.93
0.004760,0.23,0.31,1.16,42.90,17.92,-5.08
0.004770,0.27,0.32,1.12,41.77,28.31,0.11
0.004790,0.21,0.29,1.17,39.34,30.01,7.41
0.004800,0.11,0.33,1.42,27.61,15.26,21.15
0.004810,0.13,0.37,1.55,8.69,-6.02,32.24
0.004830,0.03,0.29,1.39,0.87,-3.39,31.21
0.004840,0.06,0.25,1.33,-9.50,-7.61,26.02
0.004850,0.10,0.22,1.19,-4.99,11.66,9.02
0.004870,0.17,0.18,1.16,1.50,15.76,5.36
0.004880,0.13,0.19,1.19,5.46,14.18,6.57
0.004890,0.10,0.19,1.21,10.06,10.93,6.96
0.004900,0.07,0.21,1.25,12.22,-1.03,6.49
0.004920,0.05,0.21,1.35,9.19,-15.17,6.04
0.004930,0.09,0.19,1.35,6.51,-20.53,3.59
0.004940,0.18,0.17,1.32,7.70,0.92,-1.39
0.004960,0.21,0.21,1.30,4.26,7.79,-2.66
0.004970,0.20,0.23,1.26,6.30,12.61,0.44
0.004980,0.19,0.23,1.29,7.30,7.65,3.97
0.005000,0.17,0.22,1.25,9.34,6.05,7.66
0.005010,0.09,0.19,1.26,10.07,0.06,11.89
0.005020,0.04,0.18,1.24,10.09,-2.57,9.40
0.005040,0.08,0.18,1.19,9.28,3.57,4.16
0.005050,0.10,0.19,1.17,7.74,8.61,2.95
0.005060,0.10,0.21,1.15,7.74,14.63,3.50
0.005080,0.11,0.22,1.17,8.52,16.60,5.34
0.005090,0.08,0.23,1.17,8.52,13.69,6.04
0.005100,0.04,0.22,1.20,8.89,6.78,6.44
0.005120,0.04,0.25,1.30,3.30,-1.78,5.60
0.005130,0.06,0.24,1.30,-2.94,-4.73,3.79
0.005140,0.13,0.23,1.19,-5.54,-0.89,3.22
0.005160,0.14,0.24,1.13,-6.60,8.11,2.67
0.005170,0.13,0.23,1.09,-3.56,12.11,-0.92
0.005180,0.11,0.25,1.07,-2.44,8.61,5.33
0.005200,0.08,0.23,1.07,-3.45,10.23,9.01
0.005210,0.03,0.20,1.03,-0.15,6.45,7.73
0.005220,0.02,0.22,1.06,1.13,3.40,6.76
0.005240,0.03,0.23,1.09,0.26,5.63,2.97
0.005250,0.05,0.23,1.08,0.10,-0.42,1.74
0.005260,0.04,0.19,1.06,4.77,-0.53,-3.71
0.005270,0.09,0.26,1.09,-4.42,-8.47,3.66
0.005290,0.08,0.23,1.03,-4.18,3.32,3.97
0.005300,0.08,0.23,0.99,-2.11,0.22,5.45
0.005310,0.06,0.24,1.02,-0.76,1.92,5.30
0.005330,0.06,0.23,1.00,0.24,-0.54,4.75
0.005340,0.06,0.24,0.99,2.00,-1.18,4.38
0.005350,0.07,0.24,1.01,3.19,3.07,3.93
0.005370,0.03,0.23,1.02,5.03,-0.92,1.58
0.005380,-0.00,0.23,1.05,7.70,-4.80,3.85
0.005390,0.05,0.24,1.07,2.99,-3.94,4.34
0.005410,0.04,0.25,1.06,1.69,0.13,2.03
0.005420,0.05,0.24,1.03,2.57,2.23,0.69
0.005430,0.08,0.24,1.02,2.86,1.05,0.92
0.005450,0.08,0.24,1.00,3.77,0.86,1.69
0.005460,0.05,0.23,1.01,5.53,-4.02,1.95
0.005470,0.04,0.23,1.03,10.10,-8.97,2.01
0.005490,0.02,0.25,1.07,12.32,-12.37,1.08
0.005500,0.02,0.29,1.12,9.61,-15.74,-3.32
0.005510,0.10,0.29,1.12,4.24,-17.42,-4.91
0.005530,0.17,0.28,1.06,-0.50,-15.40,-1.93
0.005540,0.20,0.27,1.01,-2.67,-9.18,3.60
0.005550,0.14,0.26,1.00,-4.31,-2.02,8.69
0.005570,0.06,0.24,1.02,-4.27,2.15,9.12
0.005580,0.00,0.23,1.02,-2.61,5.15,6.11
0.005590,-0.01,0.21,1.01,-0.18,6.17,2.44
0.005610,-0.01,0.22,1.02,1.98,0.08,1.27
0.005620,0.01,0.23,1.07,1.57,-4.33,-0.86
0.005630,0.05,0.24,1.03,1.03,-4.25,-2.89
0.005650,0.10,0.24,1.02,1.34,-0.85,-2.57
0.005660,0.11,0.25,1.03,2.45,1.19,-2.18
0.005670,0.13,0.27,1.04,3.60,0.44,-0.60
0.005680,0.13,0.28,1.07,5.04,5.45,-0.56
0.005700,0.12,0.28,1.07,3.53,4.61,-0.10
0.005710,0.12,0.28,1.06,3.30,2.98,2.34
0.005720,0.11,0.28,1.10,2.42,3.95,3.31
0.005740,0.10,0.29,1.10,0.34,1.16,3.37
0.005750,0.10,0.27,1.06,-0.02,-2.15,4.83
0.005760,0.10,0.27,1.06,-1.73,-4.37,5.93
0.005780,0.08,0.28,1.06,-3.63,0.43,5.48
0.005790,0.09,0.27,1.03,-4.81,-2.16,5.50
0.005800,0.08,0.26,1.01,-3.37,-3.21,6.02
0.005820,0.06,0.26,1.01,-2.50,2.49,6.02
0.005830,0.04,0.25,1.02,-3.31,-0.68,5.37
0.005840,0.01,0.23,1.01,-2.02,-5.97,5.22
0.005860,0.02,0.22,1.03,-2.48,-10.25,2.79
0.005870,0.03,0.22,1.02,-2.73,-7.22,1.37
0.005880,0.02,0.21,1.01,-1.20,-10.23,-0.34
0.005900,0.03,0.23,1.01,1.22,-16.13,-1.79
0.005910,0.10,0.24,1.03,2.27,-6.61,-3.63
0.005920,0.11,0.25,1.00,0.52,-5.31,-4.59
0.005940,0.13,0.24,0.99,2.80,-6.48,-2.91
0.005950,0.13,0.26,1.02,3.50,-11.43,0.66
0.005960,0.14,0.26,1.06,2.68,-3.41,2.52
0.005980,0.11,0.24,1.04,0.47,-4.31,2.85
0.005990,0.08,0.23,1.02,2.49,-6.11,2.92
0.006000,0.08,0.23,1.02,3.36,-10.37,1.78
0.006020,0.11,0.23,1.03,4.96,-3.04,0.88
0.006030,0.10,0.23,1.02,6.09,-5.72,-0.05
0.006040,0.10,0.24,1.04,7.01,-9.41,0.83
0.006060,0.15,0.25,1.08,6.66,2.88,1.31
0.006070,0.08,0.26,1.08,4.79,5.92,-0.34
0.006080,0.08,0.25,1.07,5.56,0.21,0.45
0.006100,0.09,0.27,1.11,3.53,-3.51,0.80
0.006110,0.11,0.27,1.09,0.82,-2.02,-0.21
0.006120,0.12,0.25,1.07,0.73,-5.44,0.47
0.006130,0.13,0.26,1.07,1.95,-6.65,1.92
0.006150,0.11,0.28,1.10,1.27,0.29,1.27
0.006160,0.11,0.27,1.09,-0.77,-1.18,1.73
0.006170,0.10,0.27,1.08,-0.92,-3.56,2.50
0.006190,0.12,0.26,1.07,-1.01,2.05,2.16
0.006200,0.10,0.27,1.08,-2.78,3.69,1.11
0.006210,0.10,0.26,1.07,-2.76,1.91,2.09
0.006230,0.10,0.26,1.10,-3.64,-3.18,2.76
0.006240,0.11,0.26,1.10,-3.75,0.12,2.66
0.006250,0.09,0.26,1.07,-4.31,-2.50,2.85
0.006270,0.08,0.26,1.05,-3.08,-5.98,3.12
0.006280,0.09,0.27,1.07,-3.53,-5.08,3.02
0.006290,0.10,0.26,1.05,-3.47,2.28,2.22
0.006310,0.08,0.26,1.02,-2.47,-0.95,1.69
0.006320,0.07,0.26,1.04,-1.89,-5.27,1.32
0.006330,0.09,0.27,1.04,-1.49,-4.15,0.43
0.006350,0.09,0.26,1.01,-1.25,-4.98,0.27
0.006360,0.10,0.28,1.03,-2.76,-5.85,1.23
0.006370,0.11,0.27,1.05,-3.72,4.89,-0.12
0.006390,0.09,0.25,1.03,-3.47,5.31,-1.05
0.006400,0.09,0.25,1.06,-3.49,2.28,0.31
0.006410,0.09,0.26,1.08,-2.22,13.25,-1.51
0.006430,0.09,0.27,1.06,-3.29,6.69,-2.53
0.006440,0.11,0.27,1.05,-2.89,3.97,-1.38
0.006450,0.13,0.26,1.03,-1.99,1.53,-0.62
0.006470,0.11,0.26,1.02,-1.30,-2.76,1.07
0.006480,0.12,0.25,1.06,-0.29,-0.35,1.78
0.006490,0.08,0.26,1.08,-0.29,1.85,0.98
0.006510,0.06,0.25,1.09,-0.91,-0.73,0.11
0.006520,0.08,0.27,1.11,-2.62,-2.50,-0.87
0.006530,0.10,0.27,1.08,-4.08,-4.42,-0.51
0.006550,0.13,0.27,1.06,-3.38,2.66,0.41
0.006560,0.11,0.26,1.04,-3.39,3.88,0.85
0.006570,0.09,0.26,1.04,-3.30,1.21,2.02
0.006590,0.08,0.27,1.07,-4.66,-1.93,1.82
0.006600,0.08,0.26,1.06,-5.05,-4.80,1.53
0.006610,0.09,0.26,1.04,-3.98,-7.53,1.60
0.006630,0.11,0.26,1.04,-1.76,2.38,1.21
0.006640,0.09,0.27,1.03,-2.63,-0.40,0.87
0.006650,0.08,0.27,1.04,-2.89,-1.95,2.22
0.006660,0.08,0.26,1.05,-4.31,-3.57,1.54
0.006680,0.07,0.26,1.04,-3.88,-6.02,1.28
0.006690,0.09,0.26,1.03,-2.74,-10.23,1.80
0.006700,0.12,0.26,1.04,-1.01,1.82,1.10
