Time,acce_x,acce_y,acce_z,gyro_x,gyro_y,gyro_z
0.000,0.176,-0.080,0.884,-1.389,-5.893,-2.687
0.000,0.171,-0.079,0.880,-1.267,-6.427,-2.580
0.010,0.170,-0.075,0.895,-1.160,-6.763,-2.595
0.010,0.176,-0.073,0.896,-1.008,-7.252,-2.443
0.010,0.181,-0.079,0.878,-1.405,-6.687,-2.137
0.020,0.182,-0.079,0.880,-1.313,-5.511,-1.969
0.020,0.190,-0.075,0.891,-1.496,-4.153,-1.695
0.020,0.183,-0.075,0.888,-1.603,-3.023,-1.237
0.030,0.182,-0.077,0.896,-1.908,-1.725,-0.672
0.030,0.182,-0.072,0.885,-2.153,-0.336,-0.244
0.030,0.183,-0.080,0.887,-2.061,0.351,0.275
0.040,0.183,-0.072,0.899,-2.214,1.710,0.580
0.040,0.182,-0.075,0.899,-2.107,3.328,0.931
0.040,0.184,-0.074,0.906,-1.573,4.595,1.282
0.050,0.187,-0.077,0.902,-1.191,6.153,1.802
0.050,0.177,-0.077,0.897,-1.008,6.382,1.985
0.060,0.173,-0.079,0.912,-0.611,5.664,2.336
0.060,0.180,-0.074,0.905,-0.687,4.763,2.275
0.060,0.178,-0.078,0.905,-0.489,4.198,2.122
0.070,0.186,-0.082,0.900,-0.260,3.863,1.817
0.070,0.189,-0.074,0.900,-0.305,3.053,1.496
0.080,0.196,-0.075,0.893,-0.443,2.351,0.962
0.080,0.189,-0.082,0.898,-0.321,1.328,0.305
0.080,0.192,-0.079,0.901,-0.229,0.107,-0.687
0.090,0.197,-0.075,0.897,-0.260,-1.099,-1.634
0.090,0.192,-0.073,0.901,-0.198,-1.863,-2.214
0.100,0.188,-0.076,0.894,-0.015,-2.183,-2.763
0.100,0.168,-0.072,0.904,0.198,-3.252,-3.023
0.100,0.166,-0.074,0.895,0.198,-4.473,-3.023
0.110,0.160,-0.072,0.892,0.718,-5.160,-2.931
0.110,0.162,-0.074,0.902,0.992,-4.336,-2.443
0.120,0.167,-0.072,0.905,0.809,-3.618,-1.985
0.120,0.159,-0.075,0.897,1.176,-3.756,-1.328
0.120,0.169,-0.078,0.894,1.099,-2.947,-0.855
0.130,0.176,-0.072,0.893,1.237,-1.389,-0.336
0.130,0.179,-0.072,0.882,0.901,0.229,0.260
0.130,0.169,-0.072,0.888,0.748,0.763,0.382
0.140,0.172,-0.072,0.890,0.519,0.931,0.656
0.140,0.174,-0.067,0.878,0.260,1.160,0.763
0.150,0.177,-0.069,0.880,0.031,0.992,0.656
0.150,0.177,-0.073,0.870,-0.214,0.504,0.519
0.150,0.167,-0.068,0.877,-0.595,0.153,0.458
0.160,0.166,-0.067,0.880,-0.534,-0.214,0.366
0.160,0.167,-0.074,0.884,-0.458,-0.214,0.565
0.170,0.169,-0.068,0.870,-0.595,0.061,0.672
0.170,0.163,-0.066,0.873,-0.412,0.122,0.748
0.170,0.164,-0.072,0.876,-0.351,-0.061,0.916
0.180,0.168,-0.077,0.871,-0.305,-0.046,0.779
0.180,0.158,-0.077,0.880,-0.107,0.473,1.160
0.190,0.164,-0.078,0.877,-0.153,0.947,1.298
0.190,0.170,-0.069,0.883,-0.244,1.435,1.496
0.190,0.166,-0.080,0.874,-0.290,2.198,1.588
0.200,0.163,-0.079,0.888,-0.336,2.336,1.786
0.200,0.169,-0.080,0.881,-0.168,2.443,1.908
0.210,0.168,-0.078,0.885,-0.504,1.771,2.076
0.210,0.175,-0.077,0.888,-0.443,1.466,1.939
0.210,0.185,-0.072,0.885,-0.718,1.985,2.061
0.220,0.180,-0.073,0.884,-0.840,2.382,2.046
0.220,0.174,-0.079,0.878,-0.779,2.305,2.153
0.220,0.178,-0.072,0.868,-0.733,2.244,2.305
0.230,0.179,-0.072,0.885,-0.656,1.573,2.458
0.230,0.184,-0.072,0.874,-0.748,0.779,2.214
0.240,0.190,-0.068,0.875,-0.947,0.321,2.244
0.240,0.200,-0.070,0.874,-0.885,0.382,1.817
0.240,0.206,-0.069,0.872,-0.931,0.321,1.237
0.250,0.197,-0.071,0.868,-0.992,-0.366,0.580
0.250,0.195,-0.074,0.875,-0.916,-0.870,0.046
0.260,0.187,-0.076,0.869,-0.870,-1.206,-0.489
0.260,0.195,-0.077,0.884,-0.763,-0.947,-0.641
0.260,0.185,-0.072,0.880,-0.504,-1.191,-0.656
0.270,0.184,-0.068,0.880,-0.443,-1.282,-0.870
0.270,0.180,-0.070,0.882,-0.336,-1.664,-0.855
0.280,0.183,-0.070,0.870,-0.412,-1.282,-0.519
0.280,0.184,-0.073,0.867,-0.580,-0.550,-0.397
0.280,0.186,-0.071,0.859,-0.733,0.489,-0.412
0.290,0.180,-0.070,0.864,-0.947,1.084,-0.031
0.290,0.185,-0.069,0.872,-1.313,1.359,-0.076
0.300,0.183,-0.067,0.875,-1.237,1.817,-0.107
0.300,0.176,-0.072,0.878,-1.756,1.939,0.015
0.300,0.184,-0.068,0.862,-2.046,1.664,-0.031
0.310,0.177,-0.067,0.869,-2.366,0.855,-0.092
0.310,0.177,-0.062,0.871,-2.733,0.565,-0.122
0.320,0.180,-0.067,0.879,-2.840,0.962,0.229
0.320,0.181,-0.064,0.884,-2.794,0.931,0.229
0.320,0.181,-0.070,0.880,-2.626,1.313,0.015
0.330,0.187,-0.066,0.879,-2.565,1.237,-0.046
0.330,0.181,-0.077,0.886,-2.076,1.420,-0.092
0.340,0.175,-0.068,0.900,-2.168,1.282,0.107
0.340,0.176,-0.073,0.896,-1.924,1.573,0.015
0.340,0.186,-0.076,0.891,-1.802,1.374,-0.092
0.350,0.181,-0.072,0.888,-1.817,1.328,-0.046
0.350,0.185,-0.073,0.884,-1.588,1.374,-0.092
0.360,0.167,-0.073,0.886,-1.710,1.176,-0.015
0.360,0.167,-0.072,0.884,-1.802,0.947,0.153
0.360,0.173,-0.073,0.885,-1.969,1.191,0.275
0.370,0.168,-0.077,0.886,-1.832,0.718,0.412
0.370,0.164,-0.069,0.878,-2.168,0.061,0.290
0.380,0.170,-0.071,0.881,-2.260,-0.305,0.351
0.380,0.177,-0.080,0.883,-2.321,-0.427,-0.092
0.380,0.183,-0.074,0.878,-2.290,-0.382,-0.260
0.390,0.185,-0.081,0.885,-2.382,-0.794,-0.656
0.390,0.177,-0.085,0.892,-2.183,-0.565,-0.718
0.400,0.168,-0.089,0.905,-1.771,-0.260,-0.718
0.400,0.176,-0.082,0.902,-1.527,-0.214,-0.595
0.400,0.167,-0.086,0.895,-1.267,0.229,-0.107
0.410,0.164,-0.079,0.899,-0.672,0.336,0.305
0.410,0.161,-0.085,0.895,-0.626,-0.427,0.412
0.420,0.170,-0.084,0.906,-0.656,-1.527,0.565
0.420,0.186,-0.070,0.893,-0.947,-0.763,0.534
0.420,0.185,-0.078,0.892,-1.115,0.748,0.656
0.430,0.185,-0.067,0.891,-1.206,1.191,0.595
0.430,0.181,-0.072,0.901,-1.450,0.931,0.443
0.440,0.186,-0.074,0.891,-1.496,0.885,0.550
0.440,0.184,-0.077,0.892,-1.328,1.435,0.214
0.440,0.189,-0.082,0.889,-1.359,1.863,0.183
0.450,0.183,-0.080,0.888,-1.344,1.435,0.000
0.450,0.189,-0.078,0.895,-1.145,1.420,-0.382
0.460,0.181,-0.075,0.901,-1.115,1.481,-0.580
0.460,0.183,-0.072,0.902,-0.580,1.115,-0.824
0.460,0.169,-0.073,0.906,-0.275,0.214,-0.748
0.470,0.167,-0.073,0.898,-0.336,-1.176,-0.595
0.470,0.164,-0.076,0.906,0.000,-1.267,-0.244
0.480,0.179,-0.074,0.890,0.061,-0.061,-0.229
0.480,0.172,-0.078,0.888,0.107,0.076,-0.244
0.480,0.173,-0.074,0.886,-0.031,0.092,-0.061
0.490,0.169,-0.067,0.882,-0.336,-0.321,-0.321
0.490,0.167,-0.072,0.891,-0.260,-0.412,-0.015
0.500,0.174,-0.068,0.885,-0.153,-0.427,-0.137
0.500,0.164,-0.070,0.890,-0.366,-1.038,-0.168
0.500,0.169,-0.070,0.883,-0.412,-1.282,0.168
0.510,0.167,-0.065,0.880,-0.458,-0.550,0.534
0.510,0.167,-0.069,0.875,-0.519,-0.168,0.641
0.520,0.167,-0.071,0.872,-0.275,-0.107,0.779
0.520,0.162,-0.071,0.870,-0.489,-0.412,0.733
0.520,0.172,-0.067,0.878,-0.733,-1.359,0.824
0.530,0.176,-0.072,0.877,-0.931,-1.710,0.809
0.530,0.183,-0.065,0.875,-1.237,-1.496,0.748
0.540,0.182,-0.070,0.880,-1.038,-1.252,0.550
0.540,0.190,-0.070,0.878,-1.313,-1.649,0.198
0.540,0.190,-0.076,0.879,-1.603,-2.229,0.046
0.550,0.190,-0.069,0.885,-1.847,-2.137,0.015
0.550,0.185,-0.076,0.877,-1.863,-1.435,0.015
0.560,0.185,-0.077,0.889,-1.832,-1.389,0.031
0.560,0.181,-0.073,0.889,-1.710,-1.145,0.168
0.560,0.189,-0.074,0.879,-1.679,-0.947,0.260
0.570,0.187,-0.071,0.891,-1.374,-0.565,0.321
0.570,0.195,-0.072,0.891,-1.389,-0.153,0.183
0.580,0.187,-0.070,0.885,-1.435,0.000,0.290
0.580,0.190,-0.064,0.883,-1.328,0.473,0.183
0.580,0.199,-0.066,0.884,-1.389,0.595,0.214
0.590,0.198,-0.065,0.873,-1.405,0.916,-0.122
0.590,0.188,-0.065,0.876,-1.496,0.473,-0.382
0.600,0.185,-0.068,0.865,-1.710,-0.550,-0.290
0.600,0.181,-0.066,0.859,-2.427,-1.481,-0.458
0.600,0.189,-0.067,0.881,-2.702,-1.756,-0.779
0.610,0.198,-0.068,0.874,-2.977,-1.969,-1.252
0.610,0.198,-0.076,0.879,-3.099,-2.260,-1.573
0.620,0.189,-0.071,0.883,-2.947,-2.779,-1.863
0.620,0.196,-0.074,0.896,-2.656,-3.099,-2.183
0.620,0.196,-0.075,0.906,-2.031,-3.115,-2.397
0.630,0.190,-0.074,0.903,-1.740,-3.206,-2.382
0.630,0.198,-0.083,0.906,-1.527,-2.840,-2.336
0.640,0.194,-0.077,0.902,-0.992,-2.107,-2.427
0.640,0.196,-0.084,0.903,-0.870,-1.786,-2.351
0.640,0.196,-0.077,0.897,-0.305,-1.847,-2.198
0.650,0.190,-0.076,0.892,-0.473,-1.389,-2.305
0.650,0.181,-0.077,0.896,-0.473,-0.870,-2.214
0.660,0.174,-0.079,0.891,-0.336,-1.160,-2.382
0.660,0.173,-0.079,0.890,-0.260,-1.740,-2.473
0.660,0.174,-0.082,0.889,-0.351,-1.908,-2.473
0.670,0.171,-0.075,0.886,-0.565,-2.214,-2.595
0.670,0.168,-0.073,0.891,-0.473,-2.824,-2.366
0.680,0.163,-0.073,0.895,-0.702,-2.855,-2.397
0.680,0.170,-0.074,0.899,-0.794,-2.046,-2.046
0.680,0.172,-0.081,0.891,-0.641,-1.191,-1.740
0.690,0.162,-0.082,0.889,-0.687,-0.611,-1.344
0.690,0.163,-0.080,0.896,-0.794,-0.107,-1.084
0.700,0.165,-0.076,0.892,-0.656,0.504,-0.809
0.700,0.159,-0.074,0.885,-0.412,1.282,-0.504
0.710,0.149,-0.077,0.888,-0.321,1.038,-0.366
0.710,0.148,-0.080,0.885,-0.122,0.687,-0.046
0.710,0.146,-0.083,0.894,-0.260,0.412,0.198
0.720,0.156,-0.072,0.883,-0.061,0.519,0.168
0.720,0.156,-0.072,0.882,-0.031,0.397,0.427
0.720,0.152,-0.077,0.881,0.046,-0.061,0.412
0.730,0.152,-0.070,0.884,0.458,-0.580,0.458
0.730,0.151,-0.071,0.870,0.443,-1.145,0.473
0.740,0.146,-0.073,0.887,0.458,-1.863,0.794
0.740,0.148,-0.057,0.863,0.153,-2.244,1.069
0.740,0.155,-0.060,0.863,0.046,-2.412,1.649
0.750,0.161,-0.060,0.871,-0.321,-2.076,1.847
0.750,0.171,-0.061,0.868,-0.412,-1.649,2.183
0.760,0.170,-0.062,0.861,-0.748,-1.374,2.595
0.760,0.175,-0.056,0.863,-1.252,-1.298,2.718
0.760,0.184,-0.059,0.872,-1.542,-0.931,2.931
0.770,0.187,-0.056,0.862,-1.832,-0.092,2.824
0.770,0.189,-0.060,0.870,-2.137,0.183,3.115
0.780,0.186,-0.059,0.868,-2.321,0.931,3.008
0.780,0.194,-0.059,0.871,-2.611,1.359,3.298
0.780,0.189,-0.050,0.877,-2.687,0.962,2.718
0.790,0.184,-0.057,0.887,-2.656,0.733,2.321
0.790,0.197,-0.059,0.876,-2.626,0.244,2.031
0.800,0.194,-0.055,0.877,-2.489,-0.427,1.389
0.800,0.195,-0.057,0.879,-2.366,-1.160,1.023
0.800,0.201,-0.059,0.883,-2.137,-2.275,0.244
0.810,0.199,-0.062,0.888,-1.908,-2.992,-0.275
0.810,0.199,-0.059,0.881,-1.817,-3.542,-0.809
0.820,0.194,-0.065,0.879,-1.618,-4.092,-1.237
0.820,0.193,-0.066,0.880,-1.344,-4.672,-1.450
0.820,0.192,-0.071,0.880,-1.130,-4.870,-1.420
0.830,0.185,-0.063,0.880,-1.023,-3.832,-1.282
0.830,0.187,-0.063,0.881,-1.008,-3.267,-1.023
0.840,0.189,-0.059,0.871,-0.885,-2.641,-0.718
0.840,0.195,-0.057,0.865,-1.115,-1.313,-0.092
0.840,0.196,-0.060,0.870,-1.496,0.321,-0.168
0.850,0.198,-0.054,0.860,-1.527,1.282,0.046
0.850,0.198,-0.056,0.862,-1.954,2.168,0.061
0.860,0.197,-0.064,0.864,-2.397,2.794,0.122
0.860,0.199,-0.053,0.854,-2.885,3.695,0.031
0.860,0.188,-0.056,0.849,-2.992,3.985,0.382
0.870,0.189,-0.053,0.853,-3.527,3.634,0.183
0.870,0.185,-0.057,0.847,-3.649,3.725,0.275
0.880,0.177,-0.052,0.844,-3.954,3.481,-0.046
0.880,0.173,-0.056,0.856,-4.229,3.008,-0.260
0.880,0.174,-0.059,0.854,-4.275,2.473,-0.076
0.890,0.169,-0.057,0.850,-4.214,2.076,-0.275
0.890,0.167,-0.054,0.851,-4.489,1.924,-0.336
0.900,0.161,-0.058,0.847,-4.489,1.115,-0.336
0.900,0.163,-0.053,0.849,-4.550,1.115,-0.061
0.900,0.164,-0.054,0.840,-4.702,1.435,0.168
0.910,0.156,-0.050,0.826,-4.901,1.053,0.366
0.910,0.155,-0.051,0.838,-5.374,0.672,0.885
0.920,0.152,-0.052,0.828,-5.847,0.504,1.145
0.920,0.155,-0.052,0.833,-6.473,0.718,1.771
0.920,0.163,-0.049,0.825,-7.344,1.511,2.061
0.930,0.170,-0.054,0.827,-7.832,1.985,2.565
0.930,0.162,-0.050,0.822,-8.473,1.664,2.595
0.930,0.163,-0.052,0.821,-9.038,0.885,2.595
0.940,0.169,-0.048,0.828,-9.267,0.198,2.748
0.940,0.179,-0.050,0.823,-9.573,0.198,2.565
0.950,0.172,-0.050,0.829,-9.725,-0.122,2.443
0.950,0.179,-0.058,0.839,-9.878,-0.824,2.260
0.950,0.185,-0.055,0.821,-9.985,-1.573,2.092
0.960,0.182,-0.052,0.820,-10.076,-2.260,1.710
0.960,0.189,-0.048,0.816,-10.015,-2.290,1.466
0.970,0.181,-0.048,0.812,-10.015,-2.397,1.328
0.970,0.185,-0.046,0.813,-10.076,-2.305,1.176
0.970,0.175,-0.042,0.816,-10.168,-1.985,1.481
0.980,0.177,-0.043,0.802,-10.443,-1.664,1.679
0.980,0.180,-0.032,0.798,-10.870,-0.947,2.290
0.990,0.177,-0.037,0.792,-11.237,0.061,2.290
0.990,0.179,-0.032,0.787,-11.649,0.672,2.962
1.000,0.177,-0.024,0.772,-12.260,1.878,3.084
1.000,0.182,-0.022,0.758,-13.053,2.534,3.420
1.000,0.180,-0.017,0.749,-13.985,3.832,3.802
1.010,0.182,-0.012,0.740,-14.885,4.931,4.000
1.010,0.186,-0.014,0.724,-15.710,5.740,4.061
1.020,0.182,-0.007,0.723,-17.176,6.168,4.122
1.020,0.181,-0.008,0.710,-18.321,6.305,4.076
1.020,0.186,-0.013,0.697,-19.802,6.275,3.725
1.030,0.181,-0.017,0.682,-21.481,5.267,2.916
1.030,0.178,-0.011,0.665,-23.282,2.626,1.878
1.040,0.189,-0.021,0.669,-25.389,0.595,0.855
1.040,0.194,-0.017,0.652,-27.664,-0.855,-0.626
1.040,0.179,-0.015,0.650,-29.756,-2.947,-2.122
1.050,0.173,-0.024,0.651,-31.847,-6.489,-4.015
1.050,0.175,-0.027,0.640,-33.893,-9.618,-6.107
1.060,0.170,-0.029,0.645,-35.527,-13.008,-8.092
1.060,0.161,-0.027,0.630,-37.206,-17.344,-10.412
1.060,0.146,-0.033,0.634,-38.748,-22.137,-12.275
1.070,0.141,-0.034,0.619,-40.611,-26.168,-13.939
1.070,0.132,-0.041,0.622,-42.000,-29.313,-15.344
1.080,0.111,-0.034,0.620,-43.176,-32.489,-16.153
1.080,0.105,-0.040,0.606,-44.443,-35.023,-16.672
1.090,0.099,-0.035,0.591,-45.344,-35.481,-16.183
1.090,0.095,-0.032,0.572,-47.344,-36.534,-15.863
1.090,0.076,-0.037,0.573,-48.748,-37.420,-14.809
1.100,0.088,-0.035,0.572,-49.710,-36.214,-12.702
1.100,0.090,-0.028,0.542,-52.244,-33.710,-10.137
1.110,0.113,-0.023,0.528,-54.824,-30.061,-7.542
1.110,0.138,-0.022,0.523,-57.557,-25.481,-4.977
1.120,0.159,-0.027,0.515,-60.779,-19.893,-2.198
1.120,0.183,-0.017,0.509,-64.107,-14.397,0.366
1.120,0.202,-0.019,0.510,-66.992,-9.282,2.504
1.130,0.220,-0.030,0.518,-69.298,-3.863,4.718
1.130,0.247,-0.023,0.521,-71.649,1.450,6.504
1.140,0.261,-0.024,0.526,-73.817,5.878,7.969
1.140,0.277,-0.017,0.532,-75.511,10.046,9.023
1.140,0.303,-0.026,0.518,-77.191,14.305,9.679
1.150,0.318,-0.040,0.507,-78.763,17.618,9.435
1.150,0.327,-0.045,0.491,-80.458,18.885,8.076
1.160,0.338,-0.053,0.477,-82.809,18.412,5.954
1.160,0.345,-0.069,0.480,-85.389,17.573,3.115
1.170,0.341,-0.079,0.467,-88.305,15.145,0.305
1.170,0.328,-0.096,0.462,-91.145,10.702,-3.099
1.170,0.334,-0.128,0.474,-94.550,5.740,-7.206
1.180,0.320,-0.160,0.473,-97.893,1.008,-10.229
1.180,0.321,-0.183,0.482,-101.206,-2.779,-13.267
1.190,0.293,-0.224,0.501,-105.084,-6.565,-14.977
1.190,0.277,-0.245,0.519,-108.366,-9.115,-15.863
1.190,0.247,-0.272,0.550,-111.573,-9.771,-15.695
1.200,0.227,-0.308,0.588,-113.939,-9.374,-14.947
1.200,0.221,-0.325,0.608,-115.481,-7.725,-13.878
1.210,0.212,-0.341,0.642,-116.672,-5.359,-11.878
1.210,0.208,-0.354,0.652,-117.160,-2.305,-9.664
1.220,0.203,-0.365,0.667,-117.481,1.695,-7.267
1.220,0.202,-0.369,0.679,-117.344,7.237,-4.916
1.220,0.200,-0.375,0.671,-116.794,12.336,-2.489
1.230,0.192,-0.370,0.670,-116.321,17.420,-0.336
1.230,0.185,-0.375,0.652,-115.588,21.130,1.420
1.240,0.181,-0.367,0.632,-115.603,22.962,2.779
1.240,0.174,-0.358,0.621,-115.588,24.122,3.786
1.250,0.176,-0.354,0.618,-115.450,23.679,4.550
1.250,0.178,-0.345,0.596,-115.679,22.504,5.221
1.250,0.191,-0.349,0.580,-116.046,21.893,5.573
1.260,0.207,-0.347,0.569,-116.473,21.389,6.015
1.260,0.229,-0.345,0.564,-116.916,20.260,6.336
1.270,0.242,-0.352,0.543,-117.557,19.649,6.122
1.270,0.285,-0.352,0.526,-118.763,20.137,5.557
1.270,0.297,-0.358,0.516,-120.321,20.748,4.595
1.280,0.311,-0.374,0.496,-121.954,21.237,3.557
1.280,0.334,-0.397,0.476,-124.733,22.290,1.893
1.290,0.360,-0.414,0.453,-127.786,23.282,-0.489
1.290,0.380,-0.441,0.435,-132.153,24.321,-4.000
1.300,0.393,-0.463,0.440,-136.504,24.183,-8.351
1.300,0.391,-0.488,0.435,-141.252,23.298,-12.763
1.300,0.368,-0.516,0.449,-145.954,21.374,-16.641
1.310,0.340,-0.537,0.451,-150.519,18.855,-19.603
1.310,0.302,-0.562,0.479,-154.107,17.053,-21.405
1.320,0.271,-0.586,0.493,-157.359,16.015,-22.107
1.320,0.248,-0.603,0.512,-159.496,15.389,-21.817
1.330,0.221,-0.625,0.535,-160.412,16.000,-21.298
1.330,0.201,-0.648,0.550,-159.908,17.664,-20.214
1.330,0.178,-0.661,0.573,-158.870,19.221,-18.641
1.340,0.172,-0.665,0.581,-158.611,22.580,-16.015
1.340,0.172,-0.690,0.566,-158.931,27.679,-13.908
1.350,0.172,-0.713,0.554,-158.015,31.221,-13.466
1.350,0.171,-0.746,0.545,-156.656,31.481,-14.489
1.360,0.153,-0.769,0.524,-156.458,30.275,-16.351
1.360,0.135,-0.782,0.500,-156.901,26.443,-17.496
1.370,0.124,-0.813,0.481,-157.710,21.420,-18.229
1.370,0.137,-0.837,0.474,-158.824,16.031,-19.420
1.370,0.156,-0.860,0.460,-160.382,10.061,-21.863
1.380,0.176,-0.888,0.456,-162.244,4.031,-25.023
1.380,0.195,-0.896,0.451,-164.565,-0.733,-28.519
1.390,0.191,-0.918,0.468,-166.275,-5.725,-32.931
1.390,0.183,-0.925,0.473,-168.229,-10.504,-37.252
1.400,0.168,-0.928,0.476,-169.832,-15.298,-41.099
1.400,0.121,-0.936,0.484,-170.855,-20.321,-44.061
1.400,0.083,-0.935,0.479,-170.763,-25.695,-45.756
1.410,0.048,-0.932,0.486,-170.534,-29.557,-46.489
1.410,0.030,-0.930,0.475,-169.603,-31.817,-45.878
1.420,-0.004,-0.924,0.444,-169.206,-33.893,-43.313
1.420,-0.022,-0.921,0.426,-169.618,-34.214,-38.534
1.430,-0.014,-0.915,0.418,-170.824,-31.832,-32.885
1.430,0.032,-0.920,0.401,-171.786,-27.389,-27.160
1.440,0.077,-0.913,0.386,-173.374,-20.504,-21.344
1.440,0.138,-0.911,0.381,-174.779,-11.832,-15.374
1.440,0.191,-0.914,0.382,-176.550,-1.405,-9.969
1.450,0.265,-0.914,0.370,-177.481,9.893,-5.969
1.450,0.312,-0.916,0.363,-177.893,21.053,-2.901
1.460,0.334,-0.925,0.358,-178.015,30.992,-0.214
1.460,0.358,-0.928,0.340,-177.863,40.366,2.412
1.470,0.387,-0.937,0.346,-176.779,48.321,3.954
1.470,0.414,-0.944,0.328,-175.237,54.458,4.198
1.470,0.423,-0.947,0.304,-173.618,58.977,3.557
1.480,0.428,-0.957,0.276,-171.634,62.550,2.687
1.480,0.440,-0.974,0.221,-169.618,63.939,1.298
1.490,0.440,-0.979,0.187,-168.427,63.038,-1.450
1.490,0.433,-1.003,0.173,-167.527,60.015,-4.046
1.500,0.440,-1.018,0.157,-165.939,56.870,-6.641
1.500,0.433,-1.033,0.118,-164.962,53.252,-9.740
1.500,0.441,-1.057,0.085,-164.687,49.664,-12.641
1.510,0.461,-1.094,0.047,-164.153,47.527,-16.443
1.510,0.456,-1.133,0.027,-164.427,44.290,-21.176
1.520,0.446,-1.153,-0.007,-165.771,39.878,-26.382
1.520,0.424,-1.182,-0.049,-168.031,34.092,-31.756
1.530,0.418,-1.212,-0.059,-170.947,27.985,-36.412
1.530,0.386,-1.239,-0.070,-173.786,20.885,-40.244
1.530,0.366,-1.261,-0.079,-176.321,14.641,-43.466
1.540,0.354,-1.285,-0.087,-178.794,10.000,-45.527
1.540,0.340,-1.309,-0.092,-180.840,6.397,-46.672
1.550,0.322,-1.324,-0.083,-183.038,4.534,-46.305
1.550,0.328,-1.340,-0.082,-184.748,4.809,-45.084
1.560,0.318,-1.353,-0.094,-186.656,6.977,-43.496
1.560,0.313,-1.371,-0.086,-188.076,10.702,-41.282
1.560,0.309,-1.384,-0.058,-189.313,16.000,-39.435
1.570,0.323,-1.397,-0.053,-190.153,21.344,-38.000
1.570,0.323,-1.403,-0.060,-191.206,25.603,-37.145
1.580,0.321,-1.419,-0.042,-191.496,29.298,-36.473
1.580,0.319,-1.435,-0.029,-191.664,30.626,-35.771
1.590,0.512,-1.514,0.040,-195.802,61.573,-28.840
1.590,0.344,-1.480,0.114,-182.519,88.916,-26.519
1.600,0.483,-1.566,0.120,-178.168,119.160,-27.740
1.600,0.228,-1.488,0.047,-174.794,106.351,-31.435
1.600,0.254,-1.515,0.007,-176.626,107.725,-33.969
1.610,0.229,-1.499,0.000,-178.153,106.443,-33.863
1.610,0.182,-1.491,0.042,-176.901,100.183,-32.656
1.620,0.177,-1.511,0.038,-176.885,87.496,-38.382
1.620,0.145,-1.506,-0.003,-177.725,64.092,-45.282
1.630,0.136,-1.482,-0.025,-178.672,39.221,-48.504
1.630,0.153,-1.468,-0.024,-180.031,24.031,-49.573
1.640,0.161,-1.466,-0.045,-181.038,13.328,-54.626
1.640,0.127,-1.474,-0.065,-183.069,-3.939,-57.725
1.640,0.085,-1.473,-0.065,-185.099,-18.626,-57.328
1.650,0.106,-1.486,-0.034,-188.382,-24.641,-53.924
1.650,0.093,-1.460,0.017,-190.916,-27.313,-48.763
1.660,0.113,-1.462,0.040,-192.046,-21.832,-43.527
1.660,0.084,-1.437,0.049,-194.305,-16.198,-36.550
1.670,0.066,-1.432,0.051,-193.557,-8.092,-29.481
1.670,0.074,-1.400,0.071,-192.550,1.893,-22.076
1.680,0.089,-1.415,0.112,-189.420,14.168,-16.427
1.680,0.111,-1.418,0.121,-185.191,27.771,-11.756
1.680,0.115,-1.414,0.135,-178.702,42.015,-6.962
1.690,0.115,-1.408,0.125,-172.519,52.366,-3.374
1.690,0.109,-1.396,0.120,-166.183,57.206,-2.015
1.700,0.102,-1.396,0.089,-161.573,56.641,-1.786
1.700,0.098,-1.376,0.074,-157.786,51.954,-1.924
1.710,0.096,-1.367,0.071,-154.168,43.145,-2.885
1.710,0.081,-1.366,0.074,-151.328,30.702,-3.985
1.710,0.094,-1.341,0.056,-148.168,18.244,-4.351
1.720,0.111,-1.341,0.042,-145.313,6.916,-4.809
1.720,0.133,-1.333,0.015,-143.008,-3.863,-5.328
1.730,0.161,-1.320,0.006,-141.008,-11.740,-5.786
1.730,0.202,-1.312,-0.013,-138.611,-17.389,-6.504
1.740,0.236,-1.307,-0.004,-136.183,-21.206,-8.000
1.740,0.257,-1.294,-0.026,-133.725,-23.527,-9.634
1.740,0.302,-1.288,-0.023,-131.664,-21.878,-11.344
1.750,0.348,-1.287,-0.004,-127.969,-14.702,-14.229
1.750,0.352,-1.301,-0.005,-122.397,-7.649,-17.939
1.760,0.312,-1.289,-0.021,-117.511,-8.031,-22.366
1.760,0.268,-1.270,-0.053,-114.977,-13.847,-26.412
1.770,0.249,-1.261,-0.069,-112.962,-20.641,-30.733
1.770,0.243,-1.253,-0.064,-109.679,-26.580,-34.519
1.780,0.216,-1.238,-0.077,-106.748,-33.908,-37.267
1.780,0.196,-1.215,-0.050,-103.328,-41.573,-38.672
1.780,0.190,-1.203,-0.050,-97.756,-49.740,-39.863
1.790,0.180,-1.185,-0.059,-91.740,-57.298,-41.008
1.790,0.168,-1.173,-0.081,-86.901,-64.718,-40.733
1.800,0.165,-1.151,-0.105,-81.679,-68.992,-39.328
1.800,0.154,-1.135,-0.116,-76.565,-68.061,-35.420
1.810,0.117,-1.131,-0.130,-69.740,-72.000,-31.191
1.810,0.147,-1.111,-0.176,-66.626,-73.221,-28.504
1.820,0.218,-1.075,-0.220,-65.298,-66.824,-25.695
1.820,0.244,-1.080,-0.212,-62.641,-57.206,-22.336
1.820,0.247,-1.079,-0.224,-59.420,-49.557,-19.435
1.830,0.250,-1.076,-0.238,-57.267,-38.840,-16.519
1.830,0.263,-1.078,-0.255,-54.214,-26.458,-13.695
1.840,0.271,-1.079,-0.294,-50.809,-19.252,-12.687
1.840,0.284,-1.060,-0.338,-51.237,-10.412,-12.443
1.850,0.285,-1.065,-0.345,-50.244,-1.206,-14.153
1.850,0.271,-1.052,-0.368,-47.481,-1.908,-16.687
1.860,0.249,-1.050,-0.414,-50.183,-18.153,-19.908
1.860,0.214,-1.046,-0.458,-54.290,-39.939,-24.244
1.860,0.281,-1.052,-0.443,-58.947,-53.466,-28.382
1.870,0.298,-1.043,-0.418,-61.405,-63.710,-33.206
1.870,0.312,-1.050,-0.398,-62.214,-74.595,-36.412
1.880,0.335,-1.046,-0.389,-62.901,-82.107,-39.130
1.880,0.375,-1.047,-0.379,-62.656,-83.405,-41.618
1.890,0.396,-1.050,-0.364,-61.664,-80.687,-43.710
1.890,0.396,-1.043,-0.346,-59.710,-75.466,-45.389
1.890,0.403,-1.047,-0.340,-56.718,-67.282,-46.595
1.900,0.387,-1.048,-0.352,-54.611,-56.870,-46.580
1.900,0.346,-1.037,-0.382,-53.405,-46.534,-45.679
1.910,0.317,-1.031,-0.405,-53.206,-36.794,-43.924
1.910,0.282,-1.024,-0.428,-53.954,-27.435,-41.710
1.920,0.246,-1.016,-0.414,-53.969,-20.580,-39.160
1.920,0.218,-1.015,-0.426,-53.817,-16.046,-36.840
1.930,0.190,-1.009,-0.439,-53.756,-12.855,-34.275
1.930,0.175,-1.006,-0.428,-53.145,-12.031,-32.351
1.930,0.157,-1.007,-0.446,-52.015,-14.794,-30.977
1.940,0.129,-1.005,-0.433,-51.405,-19.099,-28.687
1.940,0.118,-1.010,-0.433,-51.008,-22.916,-25.466
1.950,0.126,-1.012,-0.403,-48.763,-25.740,-22.260
1.950,0.143,-1.004,-0.375,-46.397,-26.382,-19.374
1.960,0.170,-1.005,-0.352,-43.557,-25.695,-16.382
1.960,0.181,-1.004,-0.343,-40.305,-22.931,-12.748
1.970,0.192,-1.004,-0.321,-36.183,-17.908,-9.389
1.970,0.206,-0.999,-0.319,-31.496,-10.992,-5.695
1.970,0.200,-0.994,-0.306,-27.038,-4.046,-2.489
1.980,0.201,-0.992,-0.311,-22.763,2.733,0.885
1.980,0.195,-0.987,-0.297,-18.626,9.069,4.550
1.990,0.199,-0.986,-0.274,-12.626,14.504,7.893
1.990,0.198,-0.979,-0.272,-6.107,18.275,10.718
2.000,0.183,-0.977,-0.287,0.351,18.870,12.901
2.000,0.186,-0.967,-0.336,4.840,18.641,15.496
2.000,0.185,-0.962,-0.363,8.046,17.634,17.786
2.010,0.204,-0.967,-0.374,11.557,16.656,19.817
2.010,0.221,-0.981,-0.393,15.771,14.351,20.076
2.020,0.243,-0.981,-0.438,18.000,9.099,19.221
2.020,0.256,-0.959,-0.481,17.695,3.725,18.458
2.020,0.280,-0.961,-0.499,17.603,-1.420,16.718
2.030,0.306,-0.954,-0.494,17.450,-6.748,14.031
2.030,0.336,-0.948,-0.503,17.695,-10.473,11.023
2.040,0.355,-0.937,-0.507,18.092,-13.771,7.527
2.040,0.350,-0.934,-0.538,17.771,-15.710,4.397
2.040,0.345,-0.931,-0.545,16.962,-16.779,2.153
2.050,0.336,-0.922,-0.556,16.595,-16.412,1.130
2.050,0.324,-0.925,-0.560,16.443,-15.481,0.672
2.060,0.312,-0.925,-0.585,16.229,-14.183,-0.153
2.060,0.298,-0.905,-0.596,14.580,-13.420,-0.427
2.070,0.301,-0.909,-0.604,12.366,-12.015,-0.305
2.070,0.289,-0.910,-0.613,10.458,-10.168,-0.336
2.070,0.282,-0.910,-0.615,7.878,-8.977,0.046
2.080,0.275,-0.900,-0.637,4.885,-8.244,0.244
2.080,0.279,-0.903,-0.649,1.313,-8.229,0.626
2.090,0.282,-0.908,-0.642,-2.260,-8.550,0.672
2.090,0.291,-0.914,-0.638,-5.313,-8.748,0.290
2.090,0.309,-0.919,-0.619,-8.015,-8.244,-0.397
2.100,0.319,-0.929,-0.596,-10.397,-7.802,-1.053
2.100,0.309,-0.936,-0.575,-12.489,-7.435,-1.115
2.110,0.316,-0.945,-0.545,-12.779,-6.580,-1.420
2.110,0.332,-0.957,-0.506,-12.427,-5.664,-2.168
2.120,0.329,-0.958,-0.486,-11.527,-4.260,-2.489
2.120,0.318,-0.959,-0.477,-10.229,-2.427,-2.198
2.120,0.304,-0.965,-0.458,-8.031,-0.916,-1.496
2.130,0.285,-0.958,-0.460,-5.832,0.198,-0.168
2.130,0.265,-0.949,-0.461,-4.198,-0.550,0.641
2.140,0.274,-0.946,-0.471,-3.145,-1.328,1.481
2.140,0.265,-0.934,-0.485,-2.427,-2.122,2.305
2.140,0.270,-0.934,-0.486,-1.344,-2.550,3.542
2.150,0.277,-0.930,-0.490,-0.122,-4.504,4.366
2.150,0.294,-0.933,-0.497,0.565,-6.061,4.443
2.160,0.317,-0.929,-0.508,0.595,-7.023,4.458
2.160,0.327,-0.939,-0.512,0.779,-7.878,4.275
2.160,0.334,-0.936,-0.512,0.458,-8.366,3.802
2.170,0.346,-0.935,-0.512,1.221,-9.298,3.328
2.170,0.359,-0.939,-0.497,2.153,-10.595,2.183
2.180,0.366,-0.937,-0.507,2.458,-12.397,0.260
2.180,0.375,-0.940,-0.511,2.550,-13.420,-1.115
2.190,0.372,-0.925,-0.530,2.382,-13.176,-2.366
2.190,0.380,-0.927,-0.518,2.504,-12.412,-2.977
2.190,0.365,-0.928,-0.525,3.298,-11.160,-3.527
2.200,0.355,-0.919,-0.516,4.382,-9.924,-4.061
2.200,0.339,-0.922,-0.528,4.656,-8.718,-4.137
2.210,0.327,-0.914,-0.552,4.656,-8.458,-4.061
2.210,0.321,-0.903,-0.558,4.061,-7.893,-3.710
2.210,0.315,-0.903,-0.568,3.328,-6.962,-3.771
2.220,0.308,-0.904,-0.561,2.336,-6.855,-3.863
2.220,0.310,-0.910,-0.557,1.588,-7.298,-3.969
2.230,0.314,-0.918,-0.547,0.992,-7.756,-4.305
2.230,0.326,-0.921,-0.541,0.565,-8.092,-4.901
2.230,0.325,-0.930,-0.529,0.229,-8.641,-5.588
2.240,0.329,-0.932,-0.520,0.137,-9.924,-6.366
2.240,0.334,-0.937,-0.488,0.534,-11.099,-7.405
2.250,0.333,-0.942,-0.468,1.542,-12.153,-8.473
2.250,0.337,-0.953,-0.458,3.282,-13.817,-9.542
2.250,0.349,-0.961,-0.438,5.298,-14.641,-10.580
2.260,0.354,-0.963,-0.433,6.931,-13.771,-11.496
2.260,0.355,-0.969,-0.416,8.687,-12.321,-12.275
2.270,0.350,-0.986,-0.390,11.237,-10.198,-12.824
2.270,0.377,-0.986,-0.376,13.695,-8.031,-13.771
2.280,0.386,-0.997,-0.359,16.504,-4.794,-15.603
2.280,0.423,-1.010,-0.334,19.542,-1.359,-17.466
2.280,0.445,-1.022,-0.290,22.885,1.710,-20.290
2.290,0.468,-1.043,-0.254,26.901,5.481,-23.496
2.290,0.461,-1.060,-0.195,32.000,8.183,-26.427
2.300,0.452,-1.086,-0.146,38.015,9.908,-29.282
2.300,0.449,-1.104,-0.108,44.137,11.771,-31.542
2.310,0.445,-1.114,-0.070,51.282,12.779,-33.527
2.310,0.429,-1.143,-0.040,59.008,13.634,-35.435
2.310,0.409,-1.162,-0.010,66.458,14.718,-36.855
2.320,0.388,-1.179,0.005,74.046,15.298,-37.481
2.320,0.343,-1.204,0.023,81.252,15.069,-36.931
2.330,0.300,-1.229,0.049,88.076,14.305,-35.527
2.330,0.267,-1.249,0.058,94.336,11.649,-33.008
2.340,0.251,-1.266,0.065,100.870,8.565,-29.817
2.340,0.251,-1.293,0.076,106.718,6.153,-26.321
2.340,0.275,-1.316,0.089,112.977,5.740,-23.084
2.350,0.288,-1.326,0.091,118.672,6.000,-20.183
2.350,0.292,-1.337,0.097,124.198,4.611,-17.359
2.360,0.301,-1.345,0.101,129.924,0.015,-14.840
2.360,0.347,-1.350,0.099,135.985,-5.115,-12.901
2.360,0.378,-1.367,0.098,142.656,-10.122,-12.275
2.370,0.409,-1.383,0.092,149.084,-15.802,-12.504
2.370,0.427,-1.384,0.083,154.794,-22.763,-13.145
2.380,0.449,-1.379,0.066,159.832,-28.702,-14.412
2.380,0.474,-1.380,0.047,164.931,-31.511,-16.992
2.390,0.484,-1.381,0.031,168.885,-34.565,-19.527
2.390,0.485,-1.373,0.000,171.023,-35.542,-22.046
2.390,0.504,-1.370,-0.012,174.046,-29.756,-24.504
2.400,0.492,-1.364,-0.031,176.168,-21.618,-26.275
2.400,0.484,-1.359,-0.042,176.763,-14.534,-26.977
2.410,0.470,-1.356,-0.070,175.527,-5.542,-27.527
2.410,0.469,-1.345,-0.103,173.664,4.092,-28.641
2.420,0.445,-1.336,-0.103,170.550,11.344,-29.756
2.420,0.422,-1.329,-0.104,166.183,16.824,-30.718
2.430,0.374,-1.333,-0.123,161.160,20.458,-30.687
2.430,0.325,-1.332,-0.132,155.069,21.038,-30.137
2.430,0.272,-1.325,-0.121,148.580,18.565,-29.069
2.440,0.230,-1.328,-0.107,142.840,13.771,-27.313
2.440,0.186,-1.335,-0.063,137.115,6.198,-25.282
2.450,0.173,-1.346,-0.052,133.298,-1.435,-23.420
2.450,0.151,-1.354,-0.014,129.664,-8.901,-20.992
2.460,0.158,-1.372,0.047,127.099,-14.519,-17.847
2.460,0.169,-1.396,0.087,127.145,-17.496,-14.992
2.460,0.188,-1.418,0.131,129.023,-19.328,-12.458
2.470,0.210,-1.456,0.192,132.061,-19.176,-9.756
2.470,0.242,-1.471,0.224,136.519,-16.336,-5.969
2.480,0.283,-1.500,0.262,142.580,-11.389,-3.847
2.480,0.304,-1.505,0.285,149.832,-5.939,-1.542
2.490,0.318,-1.519,0.310,157.878,-0.290,0.031
2.490,0.339,-1.523,0.321,166.076,5.313,1.939
2.490,0.333,-1.524,0.302,173.985,10.412,3.176
2.500,0.332,-1.521,0.281,181.176,14.107,4.183
2.500,0.314,-1.513,0.238,187.863,16.641,5.374
2.510,0.291,-1.500,0.199,193.191,18.534,7.130
2.510,0.274,-1.483,0.150,197.099,19.252,9.252
2.510,0.255,-1.474,0.111,200.931,17.450,10.855
2.520,0.231,-1.465,0.031,203.420,14.122,11.893
2.520,0.195,-1.441,-0.061,203.237,9.237,15.511
2.530,0.160,-1.428,-0.162,199.954,4.153,17.985
2.530,0.132,-1.391,-0.248,193.664,-0.427,21.969
2.530,0.113,-1.365,-0.343,182.916,-4.870,25.771
2.540,0.127,-1.331,-0.411,169.664,-9.099,28.626
2.540,0.139,-1.318,-0.410,157.481,-14.183,31.374
2.550,0.144,-1.320,-0.402,146.824,-19.252,33.359
2.550,0.156,-1.313,-0.353,137.817,-25.344,35.313
2.560,0.171,-1.317,-0.322,130.046,-30.580,37.420
2.560,0.220,-1.322,-0.250,124.473,-35.267,39.221
2.570,0.271,-1.359,-0.187,121.115,-37.817,40.092
2.570,0.337,-1.360,-0.098,119.466,-36.000,40.168
2.570,0.430,-1.368,0.002,119.969,-29.771,40.611
2.580,0.486,-1.379,0.093,123.237,-22.229,39.771
2.580,0.529,-1.391,0.179,129.313,-14.183,38.458
2.590,0.568,-1.411,0.284,137.771,-5.176,37.359
2.590,0.595,-1.429,0.341,149.252,4.397,35.420
2.590,0.594,-1.438,0.370,161.206,12.321,33.130
2.600,0.568,-1.435,0.381,173.603,18.443,30.580
2.600,0.545,-1.423,0.383,184.672,21.069,27.878
2.610,0.556,-1.423,0.344,196.076,23.450,23.847
2.610,0.573,-1.406,0.300,206.214,23.099,18.473
2.620,0.558,-1.394,0.247,213.267,18.870,12.046
2.620,0.526,-1.383,0.199,219.389,11.725,5.359
2.620,0.492,-1.379,0.175,225.557,1.863,-2.000
2.630,0.429,-1.377,0.098,230.840,-10.351,-8.137
2.630,0.388,-1.361,0.038,231.756,-24.092,-11.725
2.640,0.370,-1.360,-0.032,229.725,-34.870,-13.435
2.640,0.372,-1.343,-0.063,227.756,-42.489,-15.603
2.650,0.384,-1.334,-0.101,225.634,-47.954,-18.397
2.650,0.381,-1.320,-0.133,221.191,-50.992,-19.374
2.650,0.393,-1.307,-0.171,214.779,-49.374,-19.481
2.660,0.388,-1.284,-0.160,208.809,-43.802,-17.756
2.660,0.382,-1.278,-0.167,203.634,-35.328,-16.885
2.670,0.365,-1.252,-0.182,197.557,-25.924,-15.679
2.670,0.346,-1.210,-0.202,189.771,-16.992,-13.725
2.680,0.344,-1.186,-0.187,181.969,-8.687,-12.076
2.680,0.325,-1.165,-0.154,176.534,-1.496,-9.969
2.690,0.302,-1.138,-0.083,173.435,2.824,-7.221
2.690,0.304,-1.129,-0.034,171.542,6.275,-4.580
2.690,0.317,-1.115,0.006,170.534,9.863,-2.290
2.700,0.336,-1.106,0.045,171.496,13.191,-0.931
2.700,0.357,-1.097,0.080,172.870,15.863,-0.244
2.710,0.364,-1.084,0.088,174.122,16.672,-0.183
2.710,0.359,-1.068,0.094,175.649,16.870,-0.244
2.710,0.370,-1.052,0.100,176.611,17.359,-0.366
2.720,0.371,-1.042,0.129,177.267,16.412,-0.641
2.720,0.370,-1.026,0.128,177.878,15.405,-1.313
2.730,0.389,-1.017,0.134,177.115,15.145,-1.740
2.730,0.394,-0.993,0.135,175.908,15.985,-2.672
2.730,0.407,-0.977,0.144,174.397,17.542,-3.527
2.740,0.397,-0.954,0.170,173.115,18.809,-4.611
2.740,0.383,-0.942,0.180,172.412,19.466,-5.481
2.750,0.369,-0.926,0.188,172.321,19.588,-6.656
2.750,0.367,-0.911,0.200,171.267,19.160,-7.649
2.760,0.360,-0.878,0.205,169.969,18.168,-8.824
2.760,0.353,-0.856,0.220,168.931,17.344,-10.137
2.760,0.347,-0.827,0.244,168.962,16.443,-11.817
2.770,0.325,-0.810,0.252,169.420,14.977,-12.962
2.770,0.310,-0.783,0.277,169.496,13.252,-13.542
2.780,0.300,-0.762,0.286,168.992,11.359,-13.740
2.780,0.291,-0.759,0.287,168.763,9.969,-13.802
2.790,0.288,-0.745,0.292,168.168,9.145,-13.435
2.790,0.281,-0.730,0.294,166.641,8.687,-12.565
2.790,0.281,-0.722,0.317,165.405,9.023,-11.313
2.800,0.275,-0.696,0.341,164.824,9.710,-9.847
2.800,0.290,-0.674,0.358,164.901,11.237,-8.275
2.810,0.306,-0.656,0.380,165.603,13.389,-6.824
2.810,0.317,-0.646,0.394,166.122,15.191,-5.618
2.810,0.328,-0.631,0.395,166.412,16.229,-4.580
2.820,0.344,-0.617,0.405,166.489,17.847,-4.260
2.820,0.362,-0.602,0.395,166.122,19.832,-4.107
2.830,0.367,-0.584,0.397,166.031,20.611,-4.672
2.830,0.361,-0.582,0.401,165.191,20.000,-5.466
2.840,0.359,-0.554,0.393,163.893,19.344,-6.214
2.840,0.346,-0.537,0.392,162.443,17.969,-6.458
2.840,0.320,-0.521,0.387,160.183,15.847,-6.489
2.850,0.313,-0.499,0.385,157.725,13.069,-5.908
2.850,0.304,-0.488,0.386,155.115,11.588,-5.939
2.860,0.311,-0.469,0.373,151.679,11.252,-5.710
2.860,0.295,-0.460,0.386,147.924,11.496,-5.160
2.860,0.285,-0.441,0.376,143.985,11.557,-4.183
2.870,0.278,-0.438,0.393,139.878,12.244,-2.824
2.870,0.260,-0.439,0.411,135.817,12.916,-1.328
2.880,0.248,-0.429,0.425,131.878,13.756,0.412
2.880,0.249,-0.414,0.440,128.550,13.893,1.954
2.890,0.254,-0.403,0.455,124.947,14.000,3.847
2.890,0.256,-0.397,0.486,122.275,14.015,5.466
2.890,0.269,-0.383,0.507,119.985,13.939,6.046
2.900,0.291,-0.372,0.522,117.969,13.771,6.550
2.900,0.318,-0.348,0.529,116.092,13.221,5.847
2.910,0.316,-0.328,0.545,114.901,12.321,4.901
2.910,0.325,-0.321,0.556,114.397,11.023,4.458
2.910,0.313,-0.316,0.583,114.000,9.679,4.137
2.920,0.312,-0.302,0.583,113.908,8.366,4.031
2.920,0.303,-0.295,0.585,113.786,6.977,4.092
2.930,0.304,-0.286,0.598,113.298,6.000,4.489
2.930,0.311,-0.276,0.596,113.099,5.466,4.641
2.930,0.321,-0.262,0.611,113.160,5.710,4.824
2.940,0.327,-0.245,0.607,112.779,6.382,4.779
2.940,0.338,-0.242,0.607,112.779,8.092,4.901
2.950,0.340,-0.227,0.604,112.046,9.221,4.443
2.950,0.342,-0.219,0.585,110.473,9.527,3.359
2.950,0.340,-0.208,0.569,108.733,9.496,2.290
2.960,0.338,-0.204,0.566,106.397,9.740,1.527
2.960,0.331,-0.181,0.563,104.076,10.229,0.260
2.970,0.322,-0.174,0.566,102.137,9.740,-0.305
2.970,0.307,-0.170,0.559,99.634,8.947,-0.763
2.970,0.297,-0.174,0.557,96.244,7.969,-1.420
2.980,0.296,-0.168,0.547,94.321,7.573,-2.137
2.980,0.282,-0.159,0.543,90.611,6.733,-2.763
2.990,0.269,-0.156,0.555,87.878,6.183,-2.748
2.990,0.263,-0.143,0.573,85.450,5.679,-2.260
2.990,0.252,-0.129,0.593,83.634,6.046,-1.145
3.000,0.247,-0.128,0.613,82.321,6.580,0.412
3.000,0.242,-0.110,0.626,81.298,7.573,2.046
3.010,0.248,-0.108,0.617,80.351,8.321,3.313
3.010,0.251,-0.099,0.629,79.511,9.313,4.504
3.010,0.238,-0.093,0.636,78.718,10.275,5.878
3.020,0.248,-0.089,0.626,78.351,11.313,6.870
3.020,0.245,-0.084,0.640,77.878,12.031,8.275
3.030,0.246,-0.079,0.633,77.053,12.779,9.389
3.030,0.251,-0.069,0.627,76.168,14.122,10.489
3.030,0.242,-0.062,0.629,74.855,14.947,11.939
3.040,0.241,-0.055,0.634,73.634,15.359,13.496
3.040,0.249,-0.049,0.624,71.817,16.061,15.252
3.050,0.260,-0.030,0.614,70.336,16.885,16.687
3.050,0.272,-0.035,0.612,68.870,17.740,17.618
3.050,0.286,-0.026,0.606,66.885,18.092,18.046
3.060,0.310,-0.007,0.600,64.260,18.565,18.290
3.060,0.333,-0.004,0.594,61.328,19.725,16.977
3.070,0.331,0.002,0.606,59.099,19.740,17.740
3.070,0.359,0.001,0.601,56.519,20.779,16.565
3.070,0.378,0.006,0.593,53.618,21.740,14.656
3.080,0.377,0.013,0.603,51.115,21.466,14.046
3.080,0.382,0.013,0.605,48.321,20.656,12.519
3.090,0.376,0.012,0.608,45.511,19.740,10.611
3.090,0.374,0.009,0.619,42.641,18.565,8.687
3.090,0.364,0.020,0.621,40.275,17.634,7.328
3.100,0.358,0.020,0.640,38.183,16.763,6.046
3.100,0.332,0.030,0.658,36.244,15.374,4.870
3.110,0.329,0.030,0.659,34.962,14.489,4.214
3.110,0.315,0.046,0.666,33.893,13.603,3.389
3.110,0.301,0.049,0.664,33.099,12.382,2.947
3.120,0.286,0.049,0.670,32.260,10.931,2.931
3.120,0.284,0.047,0.667,31.115,10.656,3.160
3.130,0.290,0.049,0.677,30.076,11.924,3.405
3.130,0.278,0.044,0.673,28.947,13.069,4.031
3.130,0.285,0.042,0.670,27.298,13.969,4.427
3.140,0.282,0.043,0.672,25.542,15.328,5.038
3.140,0.286,0.040,0.680,24.153,17.084,5.267
3.140,0.285,0.046,0.692,23.084,18.916,5.847
3.150,0.282,0.044,0.695,21.985,20.962,6.382
3.150,0.273,0.047,0.701,21.023,21.359,7.115
3.160,0.249,0.039,0.705,20.595,20.137,7.802
3.160,0.252,0.036,0.724,19.634,19.084,8.534
3.160,0.261,0.053,0.720,18.947,19.710,7.435
3.170,0.259,0.057,0.736,19.099,18.901,9.160
3.170,0.255,0.047,0.742,19.511,18.534,9.069
3.180,0.262,0.044,0.732,19.450,17.771,8.565
3.180,0.258,0.053,0.737,19.527,16.885,7.939
3.180,0.258,0.048,0.717,18.977,15.359,7.328
3.190,0.245,0.061,0.711,18.718,13.466,6.947
3.190,0.246,0.065,0.721,17.969,12.626,6.473
3.200,0.251,0.067,0.716,17.466,12.641,6.412
3.200,0.250,0.069,0.716,16.809,12.718,6.290
3.200,0.246,0.072,0.708,16.000,12.870,6.565
3.210,0.229,0.069,0.706,14.809,12.611,6.916
3.210,0.223,0.069,0.698,13.282,12.901,7.832
3.210,0.222,0.069,0.694,12.031,13.786,8.489
3.220,0.217,0.072,0.694,11.008,14.718,9.557
3.220,0.208,0.069,0.701,9.710,15.069,10.687
3.230,0.210,0.075,0.689,8.214,14.519,11.939
3.230,0.221,0.060,0.689,6.947,14.427,13.038
3.230,0.219,0.058,0.692,5.542,15.099,13.802
3.240,0.229,0.062,0.701,4.519,15.832,14.763
3.240,0.226,0.055,0.714,3.649,15.939,16.366
3.250,0.227,0.058,0.716,2.977,16.656,17.588
3.250,0.227,0.051,0.726,2.595,17.435,19.145
3.250,0.227,0.049,0.714,2.489,18.015,20.626
3.260,0.227,0.052,0.715,2.137,18.168,22.214
3.260,0.241,0.045,0.717,1.786,18.504,23.618
3.270,0.251,0.044,0.707,0.931,19.847,24.809
3.270,0.266,0.040,0.707,0.076,21.099,25.939
3.270,0.270,0.038,0.698,-0.870,22.260,26.626
3.280,0.276,0.040,0.710,-1.969,22.473,27.069
3.280,0.280,0.045,0.700,-3.328,22.076,27.099
3.290,0.291,0.048,0.693,-5.130,21.664,26.656
3.290,0.298,0.040,0.703,-6.733,21.282,25.878
3.290,0.300,0.052,0.706,-8.397,19.527,24.779
3.300,0.301,0.051,0.708,-10.153,16.519,23.695
3.300,0.301,0.042,0.724,-11.908,13.573,22.412
3.310,0.305,0.045,0.732,-13.481,12.198,21.588
3.310,0.309,0.041,0.739,-15.053,11.313,20.977
3.310,0.309,0.027,0.750,-16.427,10.504,20.611
3.320,0.314,0.025,0.781,-17.344,10.275,20.397
3.320,0.314,0.027,0.787,-18.412,10.901,20.336
3.330,0.315,0.013,0.802,-18.718,11.924,20.366
3.330,0.313,0.014,0.816,-19.282,14.000,20.550
3.330,0.318,0.009,0.830,-19.237,16.275,20.794
3.340,0.325,-0.006,0.862,-18.916,19.359,20.580
3.340,0.319,-0.009,0.873,-18.244,22.122,20.260
3.350,0.321,-0.023,0.880,-17.344,23.649,19.328
3.350,0.312,-0.022,0.879,-17.023,23.191,17.985
3.350,0.312,-0.019,0.886,-16.977,22.061,16.763
3.360,0.316,-0.021,0.897,-16.779,21.740,14.840
3.360,0.316,-0.025,0.908,-16.244,20.107,12.412
3.370,0.309,-0.023,0.911,-15.695,17.099,9.710
3.370,0.295,-0.023,0.915,-15.466,13.084,6.885
3.380,0.285,-0.030,0.921,-15.557,9.237,4.046
3.380,0.287,-0.036,0.920,-15.084,5.710,1.679
3.380,0.273,-0.031,0.920,-14.672,2.214,-0.611
3.390,0.257,-0.029,0.929,-14.183,-1.573,-2.473
3.390,0.255,-0.041,0.922,-13.969,-5.313,-3.969
3.400,0.252,-0.026,0.931,-14.168,-7.969,-5.115
3.400,0.248,-0.033,0.930,-14.473,-8.443,-5.725
3.400,0.255,-0.035,0.944,-14.382,-7.939,-5.618
3.410,0.235,-0.028,0.940,-14.107,-6.870,-5.038
3.410,0.228,-0.028,0.949,-13.679,-5.420,-4.198
3.420,0.229,-0.028,0.957,-13.252,-3.634,-2.855
3.420,0.236,-0.026,0.952,-12.290,-0.550,-1.985
3.430,0.227,-0.026,0.953,-11.252,2.962,-0.855
3.430,0.233,-0.029,0.962,-9.969,5.191,-0.092
3.430,0.216,-0.029,0.949,-9.206,6.519,0.916
3.440,0.210,-0.026,0.943,-8.275,7.374,1.832
3.440,0.212,-0.028,0.944,-7.374,8.550,2.824
3.440,0.219,-0.030,0.932,-6.412,9.130,3.771
3.450,0.228,-0.039,0.927,-6.000,9.191,3.985
3.450,0.236,-0.036,0.907,-6.061,9.023,3.649
3.460,0.258,-0.037,0.901,-5.893,8.656,3.328
3.460,0.259,-0.045,0.899,-5.664,8.351,2.687
3.460,0.258,-0.054,0.900,-5.405,8.000,2.092
3.470,0.254,-0.058,0.895,-5.511,6.656,1.130
3.470,0.258,-0.073,0.885,-6.031,4.977,-0.198
3.480,0.261,-0.067,0.875,-6.855,3.649,-1.435
3.480,0.265,-0.068,0.871,-8.031,2.489,-2.962
3.480,0.261,-0.073,0.866,-8.885,0.595,-4.427
3.490,0.253,-0.069,0.881,-9.542,-1.634,-5.618
3.490,0.245,-0.076,0.887,-9.924,-3.832,-6.626
3.500,0.243,-0.065,0.901,-9.832,-5.099,-7.450
3.500,0.247,-0.075,0.912,-9.740,-5.450,-8.031
3.500,0.246,-0.074,0.904,-9.008,-6.611,-8.198
3.510,0.236,-0.070,0.904,-8.427,-6.840,-8.733
3.510,0.227,-0.074,0.916,-7.374,-6.412,-8.504
3.520,0.219,-0.081,0.906,-6.534,-6.046,-7.771
3.520,0.211,-0.075,0.905,-5.206,-5.069,-6.214
3.520,0.209,-0.072,0.911,-4.351,-3.511,-4.672
3.530,0.221,-0.071,0.899,-3.176,-1.145,-3.008
3.530,0.228,-0.076,0.888,-2.229,1.359,-1.603
3.540,0.235,-0.076,0.888,-2.061,3.603,-0.443
3.540,0.248,-0.075,0.881,-1.588,6.153,0.198
3.550,0.259,-0.077,0.877,-1.176,8.519,0.275
3.550,0.254,-0.070,0.877,-1.008,9.771,0.198
3.550,0.255,-0.073,0.873,-1.420,9.985,0.015
3.560,0.254,-0.066,0.860,-1.695,9.405,-0.458
3.560,0.258,-0.056,0.854,-2.061,9.267,-1.237
3.560,0.260,-0.056,0.846,-2.550,8.794,-2.260
3.570,0.246,-0.052,0.847,-2.885,7.863,-3.542
3.570,0.226,-0.050,0.852,-3.237,4.718,-4.397
3.580,0.218,-0.044,0.845,-3.939,0.977,-5.328
3.580,0.214,-0.048,0.847,-4.611,-2.137,-6.015
3.580,0.210,-0.048,0.849,-4.855,-3.603,-6.718
3.590,0.210,-0.049,0.854,-5.145,-4.611,-6.901
3.590,0.201,-0.051,0.854,-5.374,-5.298,-6.901
3.600,0.193,-0.054,0.846,-5.847,-6.061,-6.733
3.600,0.187,-0.050,0.842,-6.260,-6.840,-6.198
3.610,0.180,-0.058,0.853,-6.580,-7.481,-5.344
3.610,0.190,-0.053,0.862,-6.870,-6.824,-4.427
3.610,0.196,-0.058,0.863,-7.099,-4.397,-3.176
3.620,0.204,-0.053,0.856,-7.450,-1.710,-2.000
3.620,0.215,-0.052,0.861,-7.588,0.534,-0.870
3.630,0.216,-0.066,0.863,-7.924,2.015,-0.076
3.630,0.235,-0.057,0.869,-8.107,3.695,0.000
3.630,0.244,-0.058,0.882,-7.863,5.527,-0.046
3.640,0.248,-0.058,0.884,-7.786,6.824,-0.351
3.640,0.245,-0.053,0.898,-7.527,7.847,-0.687
3.650,0.242,-0.053,0.895,-7.191,8.626,-1.252
3.650,0.235,-0.057,0.903,-6.870,8.427,-1.664
3.650,0.232,-0.058,0.914,-6.504,7.588,-1.817
3.660,0.232,-0.053,0.923,-5.679,6.397,-2.473
3.660,0.227,-0.064,0.920,-5.115,5.221,-3.023
3.670,0.237,-0.058,0.925,-4.305,4.214,-3.481
3.670,0.236,-0.059,0.917,-3.939,3.588,-4.137
3.670,0.226,-0.058,0.919,-3.221,2.992,-4.336
3.680,0.230,-0.055,0.906,-3.008,2.992,-4.595
3.680,0.222,-0.052,0.895,-2.489,2.992,-4.977
3.690,0.219,-0.053,0.889,-2.672,1.893,-4.870
3.690,0.216,-0.060,0.892,-3.237,0.153,-4.962
3.690,0.222,-0.054,0.883,-3.130,1.099,-5.115
3.700,0.232,-0.045,0.890,-3.771,2.489,-5.038
3.700,0.229,-0.047,0.895,-3.695,3.511,-4.962
3.710,0.221,-0.040,0.894,-3.863,4.412,-5.481
3.710,0.205,-0.042,0.895,-4.122,4.458,-5.542
3.710,0.194,-0.041,0.889,-4.153,3.176,-6.214
3.720,0.187,-0.042,0.890,-4.321,0.779,-6.702
3.720,0.185,-0.034,0.886,-4.534,-1.374,-7.023
3.730,0.187,-0.036,0.896,-4.656,-2.534,-7.405
3.730,0.176,-0.034,0.894,-4.427,-3.985,-7.328
3.730,0.162,-0.037,0.893,-4.626,-5.847,-7.221
3.740,0.150,-0.037,0.903,-4.595,-7.725,-6.794
3.740,0.152,-0.040,0.900,-4.534,-8.351,-6.198
3.750,0.157,-0.039,0.896,-4.397,-7.634,-5.557
3.750,0.158,-0.042,0.891,-3.924,-6.763,-4.687
3.750,0.148,-0.044,0.881,-3.863,-6.885,-3.695
3.760,0.149,-0.047,0.896,-3.893,-7.053,-2.489
3.760,0.150,-0.051,0.890,-3.893,-5.924,-1.481
3.770,0.158,-0.059,0.890,-3.878,-4.031,-0.214
3.770,0.154,-0.055,0.891,-3.802,-2.351,1.267
3.770,0.165,-0.056,0.896,-4.153,-0.519,2.641
3.780,0.170,-0.062,0.896,-3.924,0.824,3.649
3.780,0.173,-0.062,0.895,-3.725,1.802,4.137
3.790,0.184,-0.061,0.887,-3.542,2.031,4.595
3.790,0.197,-0.062,0.898,-3.985,2.901,4.885
3.790,0.208,-0.064,0.904,-3.695,4.672,4.916
3.800,0.206,-0.065,0.900,-3.344,5.450,4.901
3.800,0.200,-0.055,0.896,-3.115,5.405,4.550
3.810,0.195,-0.060,0.895,-2.840,5.069,4.595
3.810,0.194,-0.055,0.903,-2.305,3.893,4.519
3.810,0.205,-0.055,0.901,-2.168,2.733,4.046
3.820,0.198,-0.050,0.897,-1.939,1.817,3.557
3.820,0.204,-0.056,0.899,-1.481,1.267,3.603
3.830,0.198,-0.062,0.896,-1.099,1.053,3.191
3.830,0.201,-0.058,0.891,-0.901,0.229,2.962
3.830,0.205,-0.058,0.884,-0.962,-0.168,2.687
3.840,0.206,-0.054,0.874,-0.763,-0.061,2.473
3.840,0.198,-0.058,0.890,-0.809,-0.290,2.687
3.840,0.193,-0.062,0.887,-0.458,-0.840,3.099
3.850,0.192,-0.059,0.879,-0.565,-0.565,3.832
3.850,0.204,-0.055,0.879,-0.611,0.672,4.611
3.860,0.214,-0.061,0.876,-0.412,2.489,5.237
3.860,0.217,-0.057,0.870,-0.626,3.588,5.756
3.860,0.218,-0.058,0.869,-0.855,4.137,6.427
3.870,0.221,-0.050,0.872,-0.947,4.977,6.550
3.870,0.229,-0.052,0.873,-1.191,5.511,6.611
3.880,0.242,-0.051,0.870,-1.588,5.588,6.153
3.880,0.244,-0.042,0.864,-2.000,5.420,5.557
3.880,0.249,-0.046,0.863,-2.397,5.557,4.916
3.890,0.243,-0.043,0.870,-3.023,5.160,4.519
3.890,0.247,-0.044,0.858,-3.221,4.275,3.817
3.900,0.237,-0.039,0.874,-3.221,3.527,3.420
3.900,0.243,-0.048,0.870,-3.313,2.473,2.947
3.900,0.241,-0.048,0.876,-3.130,1.649,2.748
3.910,0.240,-0.050,0.870,-2.977,1.160,2.504
3.910,0.244,-0.051,0.880,-2.947,0.733,2.305
3.920,0.248,-0.058,0.877,-2.992,1.817,1.664
3.920,0.241,-0.053,0.881,-2.824,2.626,2.611
3.920,0.231,-0.058,0.872,-2.870,4.260,2.931
3.930,0.229,-0.061,0.877,-2.580,6.427,3.420
3.930,0.224,-0.054,0.868,-2.702,8.168,3.832
3.930,0.212,-0.055,0.873,-2.794,9.374,4.412
3.940,0.217,-0.062,0.874,-2.733,11.099,5.374
3.940,0.200,-0.071,0.878,-2.397,13.053,6.427
3.950,0.192,-0.067,0.876,-2.061,14.443,7.985
3.950,0.181,-0.076,0.893,-1.511,16.122,9.588
3.950,0.167,-0.088,0.911,-0.260,17.588,12.061
3.960,0.154,-0.090,0.930,1.023,18.748,14.611
3.960,0.154,-0.090,0.932,2.550,20.198,17.374
3.970,0.151,-0.098,0.937,3.985,21.740,19.740
3.970,0.158,-0.093,0.933,5.802,23.511,21.939
3.970,0.181,-0.101,0.940,7.115,25.420,23.405
3.980,0.197,-0.096,0.930,8.305,26.931,23.863
3.980,0.215,-0.094,0.904,8.779,28.962,21.969
3.990,0.224,-0.084,0.906,9.053,28.427,21.252
3.990,0.244,-0.084,0.894,8.809,27.603,18.260
3.990,0.252,-0.082,0.888,8.305,25.573,14.809
4.000,0.245,-0.086,0.869,7.435,21.756,10.809
4.000,0.244,-0.087,0.873,6.061,16.473,6.733
4.010,0.225,-0.078,0.864,4.641,10.885,3.649
4.010,0.208,-0.079,0.866,3.557,4.947,0.748
4.010,0.193,-0.073,0.884,2.702,-1.786,-1.038
4.020,0.185,-0.063,0.889,1.725,-7.237,-2.885
4.020,0.192,-0.063,0.886,1.573,-10.718,-4.092
4.030,0.186,-0.063,0.888,1.069,-12.855,-4.366
4.030,0.190,-0.057,0.881,0.962,-13.145,-4.656
4.030,0.179,-0.060,0.887,0.885,-12.321,-4.153
4.040,0.181,-0.054,0.882,0.718,-11.221,-3.450
4.040,0.190,-0.051,0.883,0.687,-9.008,-2.687
4.050,0.190,-0.040,0.878,0.382,-5.603,-1.771
4.050,0.189,-0.048,0.872,-0.153,-2.031,-0.275
4.050,0.193,-0.035,0.877,-0.855,1.237,1.053
4.060,0.194,-0.035,0.879,-1.618,3.969,1.679
4.060,0.209,-0.033,0.875,-2.122,6.305,2.336
4.070,0.213,-0.031,0.874,-2.672,8.107,2.611
4.070,0.217,-0.026,0.876,-2.916,8.763,2.305
4.070,0.225,-0.028,0.881,-3.084,7.527,1.496
4.080,0.224,-0.036,0.898,-3.130,4.962,0.458
4.080,0.234,-0.031,0.888,-2.305,4.092,-0.656
4.090,0.230,-0.029,0.876,-2.137,4.504,-1.130
4.090,0.219,-0.026,0.875,-2.504,3.435,-1.817
4.090,0.205,-0.037,0.887,-2.092,0.366,-2.305
