Time,acce_x,acce_y,acce_z,gyro_x,gyro_y,gyro_z
0.000,0.269,0.212,0.831,3.511,0.046,-2.855
0.000,0.262,0.221,0.833,3.756,0.855,-2.809
0.010,0.261,0.221,0.836,3.832,1.710,-2.351
0.010,0.255,0.216,0.830,3.802,2.260,-2.122
0.010,0.257,0.219,0.828,3.939,2.198,-2.061
0.020,0.258,0.224,0.823,3.939,2.412,-2.153
0.020,0.270,0.228,0.811,3.756,1.695,-2.275
0.020,0.271,0.229,0.810,3.053,0.733,-2.565
0.030,0.271,0.229,0.817,3.008,0.458,-2.947
0.030,0.272,0.224,0.829,2.779,0.305,-3.023
0.030,0.267,0.230,0.821,2.519,-0.092,-3.160
0.040,0.272,0.228,0.815,2.214,-0.168,-3.328
0.040,0.273,0.226,0.803,2.015,0.275,-3.435
0.040,0.270,0.230,0.811,1.740,0.580,-3.313
0.050,0.271,0.235,0.814,1.542,0.626,-3.252
0.050,0.272,0.235,0.812,1.573,1.053,-3.389
0.050,0.265,0.235,0.795,1.176,1.221,-3.618
0.060,0.264,0.233,0.793,1.069,1.450,-3.634
0.060,0.263,0.230,0.800,0.748,1.557,-3.802
0.060,0.264,0.243,0.808,0.702,2.275,-3.802
0.070,0.253,0.238,0.809,0.595,2.672,-3.725
0.070,0.252,0.239,0.795,0.214,2.260,-3.221
0.080,0.249,0.239,0.791,-0.061,2.351,-3.191
0.080,0.254,0.229,0.787,-0.244,2.962,-3.908
0.080,0.243,0.241,0.798,-0.443,2.305,-3.053
0.090,0.241,0.237,0.802,-0.473,1.878,-2.901
0.090,0.236,0.232,0.805,-0.260,1.878,-2.718
0.100,0.234,0.229,0.808,-0.427,1.603,-2.031
0.100,0.237,0.233,0.808,-0.580,2.260,-1.557
0.100,0.233,0.228,0.812,-0.412,1.863,-1.099
0.110,0.240,0.227,0.830,-0.260,1.328,-0.870
0.110,0.241,0.227,0.820,-0.076,1.115,-0.595
0.110,0.252,0.229,0.839,0.061,1.115,-0.580
0.120,0.251,0.234,0.823,0.107,1.420,-0.611
0.120,0.251,0.234,0.826,0.443,1.695,-0.565
0.130,0.259,0.234,0.824,0.626,1.618,-0.840
0.130,0.255,0.234,0.829,0.641,1.176,-0.855
0.130,0.260,0.235,0.821,0.916,1.160,-1.023
0.140,0.261,0.239,0.818,1.160,1.450,-1.237
0.140,0.262,0.241,0.818,1.145,1.832,-1.313
0.150,0.261,0.240,0.806,0.947,1.939,-1.405
0.150,0.265,0.238,0.807,0.947,2.611,-1.435
0.150,0.258,0.243,0.807,0.855,3.008,-1.359
0.160,0.256,0.247,0.802,0.519,3.053,-1.298
0.160,0.254,0.246,0.802,0.260,2.840,-1.130
0.160,0.249,0.250,0.796,-0.046,2.824,-1.099
0.170,0.246,0.243,0.788,-0.366,3.008,-0.901
0.170,0.236,0.248,0.801,-0.687,2.947,-0.718
0.180,0.249,0.245,0.799,-1.069,3.130,-0.641
0.180,0.247,0.249,0.791,-1.389,3.099,-0.733
0.180,0.249,0.243,0.798,-1.771,2.626,-0.641
0.190,0.247,0.248,0.801,-2.229,2.122,-0.809
0.190,0.246,0.241,0.800,-2.580,1.496,-0.611
0.200,0.250,0.249,0.799,-3.115,1.527,-0.687
0.200,0.258,0.246,0.802,-3.496,2.076,-0.595
0.200,0.256,0.242,0.807,-3.466,2.504,-0.550
0.210,0.253,0.242,0.813,-3.924,2.626,-0.336
0.210,0.247,0.241,0.811,-4.046,2.901,-0.198
0.220,0.249,0.241,0.818,-4.061,3.450,0.031
0.220,0.250,0.236,0.816,-3.939,3.802,0.122
0.220,0.243,0.244,0.808,-4.092,4.107,0.366
0.230,0.243,0.252,0.815,-4.015,4.565,0.534
0.230,0.241,0.245,0.815,-3.893,4.427,0.840
0.230,0.248,0.248,0.810,-3.786,4.137,0.901
0.240,0.251,0.247,0.804,-3.863,4.977,0.733
0.240,0.244,0.247,0.808,-4.076,5.191,0.733
0.250,0.230,0.247,0.813,-4.489,4.840,1.053
0.250,0.233,0.245,0.806,-4.702,4.015,1.023
0.250,0.226,0.246,0.807,-4.794,2.992,1.176
0.260,0.233,0.239,0.808,-5.145,1.466,1.542
0.260,0.242,0.247,0.819,-5.603,0.840,1.756
0.260,0.249,0.241,0.827,-5.985,0.427,1.771
0.270,0.255,0.248,0.822,-6.305,-0.519,1.771
0.270,0.254,0.245,0.834,-6.779,-1.634,1.511
0.280,0.263,0.241,0.838,-7.176,-2.397,1.221
0.280,0.267,0.243,0.845,-6.977,-2.183,1.221
0.280,0.271,0.232,0.860,-6.947,-2.397,1.008
0.290,0.262,0.239,0.868,-6.794,-3.282,0.901
0.290,0.267,0.227,0.869,-6.534,-4.214,0.672
0.300,0.270,0.231,0.874,-6.000,-4.107,0.565
0.300,0.278,0.226,0.874,-5.466,-3.511,0.412
0.300,0.261,0.225,0.887,-4.824,-3.603,0.473
0.310,0.257,0.228,0.881,-4.397,-3.496,0.687
0.310,0.263,0.228,0.879,-3.847,-2.916,0.718
0.320,0.255,0.230,0.888,-2.962,-2.198,0.962
0.320,0.265,0.234,0.885,-2.412,-1.328,1.008
0.320,0.275,0.229,0.891,-1.710,-0.107,1.176
0.330,0.271,0.232,0.883,-1.038,0.626,1.145
0.330,0.265,0.236,0.865,-0.443,0.977,1.084
0.330,0.260,0.236,0.864,-0.458,0.550,1.069
0.340,0.270,0.240,0.862,-0.137,0.733,0.931
0.340,0.272,0.242,0.863,-0.198,0.992,1.115
0.350,0.269,0.248,0.866,0.061,1.023,0.824
0.350,0.267,0.246,0.855,-0.015,0.198,0.794
0.350,0.261,0.253,0.856,-0.076,-0.626,0.763
0.360,0.260,0.254,0.842,-0.168,-1.466,0.565
0.360,0.260,0.251,0.837,-0.397,-1.756,0.443
0.370,0.270,0.252,0.839,-0.290,-1.313,0.366
0.370,0.259,0.248,0.830,-0.198,-1.496,0.366
0.370,0.256,0.255,0.825,-0.427,-1.588,0.473
0.380,0.254,0.255,0.823,-0.718,-1.939,0.229
0.380,0.248,0.248,0.820,-0.916,-1.878,0.183
0.380,0.251,0.256,0.821,-1.053,-1.374,0.244
0.390,0.253,0.252,0.822,-1.099,-0.718,0.427
0.390,0.249,0.245,0.815,-1.344,-0.672,0.351
0.400,0.236,0.244,0.822,-1.939,-0.794,0.748
0.400,0.242,0.250,0.814,-2.183,-0.489,1.023
0.400,0.244,0.241,0.826,-1.832,0.260,1.145
0.410,0.259,0.236,0.826,-2.000,0.977,1.053
0.410,0.253,0.236,0.827,-2.321,0.840,1.115
0.420,0.248,0.238,0.831,-2.641,0.229,0.885
0.420,0.254,0.231,0.831,-2.626,0.366,0.748
0.420,0.243,0.232,0.840,-2.366,0.260,0.779
0.430,0.238,0.222,0.848,-2.183,-0.122,0.794
0.430,0.239,0.229,0.848,-1.802,-0.031,0.916
0.440,0.240,0.220,0.855,-1.557,0.046,1.008
0.440,0.245,0.226,0.854,-0.718,0.351,0.595
0.440,0.231,0.226,0.858,-0.382,0.061,0.626
0.450,0.233,0.223,0.857,0.275,0.198,0.641
0.450,0.227,0.223,0.844,0.305,0.443,0.977
0.450,0.234,0.224,0.845,0.870,0.595,0.931
0.460,0.226,0.228,0.838,0.962,-0.015,1.008
0.460,0.226,0.223,0.834,0.901,-0.580,1.359
0.470,0.233,0.226,0.827,0.534,-0.412,1.313
0.470,0.224,0.229,0.822,0.214,-0.519,1.481
0.470,0.224,0.218,0.822,-0.534,-0.947,1.725
0.480,0.231,0.220,0.830,-1.084,-1.389,2.015
0.480,0.241,0.223,0.844,-1.435,-1.374,1.985
0.480,0.246,0.216,0.857,-1.344,-1.298,2.122
0.490,0.244,0.213,0.859,-1.664,-1.740,2.000
0.490,0.261,0.212,0.879,-1.573,-1.328,1.924
0.500,0.273,0.219,0.878,-1.160,-0.305,1.710
0.500,0.270,0.210,0.886,-0.519,0.565,1.511
0.500,0.272,0.221,0.881,0.336,1.053,1.374
0.510,0.270,0.219,0.883,1.008,1.588,1.435
0.510,0.263,0.229,0.881,1.466,2.046,1.176
0.520,0.268,0.221,0.876,2.489,2.702,1.496
0.520,0.265,0.223,0.859,3.191,3.313,1.237
0.520,0.252,0.233,0.855,3.008,3.008,1.298
0.530,0.261,0.226,0.848,2.794,3.099,1.237
0.530,0.264,0.233,0.854,3.099,3.115,1.145
0.530,0.266,0.232,0.853,3.206,3.481,1.084
0.540,0.261,0.240,0.833,2.763,3.252,0.855
0.540,0.271,0.240,0.840,2.107,2.962,0.931
0.550,0.280,0.237,0.837,2.046,3.298,0.611
0.550,0.294,0.240,0.853,2.214,4.092,0.382
0.550,0.295,0.238,0.844,2.168,4.336,0.092
0.560,0.297,0.240,0.845,2.076,3.603,-0.321
0.560,0.293,0.234,0.848,2.000,2.947,-0.885
0.560,0.294,0.237,0.861,1.756,2.534,-1.466
0.570,0.293,0.233,0.864,2.198,2.382,-1.939
0.570,0.297,0.239,0.852,2.122,2.107,-2.321
0.580,0.297,0.239,0.863,2.229,1.618,-2.687
0.580,0.296,0.234,0.863,2.519,1.695,-3.176
0.580,0.288,0.225,0.858,2.763,2.153,-3.542
0.590,0.284,0.230,0.858,2.855,2.275,-3.710
0.590,0.280,0.232,0.858,3.328,2.565,-3.634
0.590,0.271,0.231,0.857,3.511,2.687,-3.847
0.600,0.259,0.232,0.853,3.695,2.901,-3.634
0.600,0.259,0.240,0.845,4.076,3.313,-3.679
0.610,0.260,0.228,0.844,4.214,3.679,-3.786
0.610,0.253,0.232,0.833,4.305,4.061,-3.511
0.610,0.247,0.233,0.834,3.939,4.458,-3.527
0.620,0.241,0.235,0.829,3.695,5.069,-3.176
0.620,0.236,0.233,0.815,3.328,5.282,-3.038
0.630,0.230,0.238,0.819,3.206,5.237,-2.824
0.630,0.225,0.234,0.815,3.069,5.115,-2.489
0.630,0.215,0.234,0.805,3.099,5.053,-2.275
0.640,0.205,0.241,0.813,2.916,4.489,-1.542
0.640,0.208,0.239,0.815,3.145,3.344,-1.344
0.640,0.225,0.237,0.822,3.267,2.382,-1.176
0.650,0.231,0.235,0.825,3.328,2.046,-1.191
0.650,0.246,0.239,0.838,3.496,2.137,-1.389
0.660,0.247,0.242,0.837,3.985,2.046,-1.481
0.660,0.243,0.235,0.829,4.153,2.000,-1.511
0.660,0.243,0.245,0.833,4.122,1.725,-1.542
0.670,0.243,0.243,0.817,4.107,1.282,-1.328
0.670,0.245,0.258,0.806,3.969,1.649,-1.405
0.670,0.242,0.254,0.796,3.420,1.573,-1.160
0.680,0.242,0.257,0.798,2.779,1.313,-1.053
0.680,0.245,0.264,0.788,2.244,1.221,-1.053
0.690,0.243,0.261,0.774,1.389,1.588,-1.069
0.690,0.243,0.265,0.787,0.550,1.557,-0.977
0.690,0.245,0.261,0.768,-0.076,1.481,-0.931
0.700,0.245,0.268,0.769,-0.763,1.298,-0.840
0.700,0.237,0.267,0.776,-1.328,0.870,-0.595
0.710,0.229,0.263,0.772,-1.908,0.763,-0.336
0.710,0.234,0.262,0.773,-2.198,1.145,0.000
0.710,0.236,0.263,0.776,-2.840,1.328,-0.031
0.720,0.235,0.262,0.767,-3.130,1.053,0.137
0.720,0.235,0.260,0.765,-3.634,0.550,0.305
0.730,0.224,0.255,0.768,-4.153,0.458,0.504
0.730,0.221,0.260,0.784,-4.107,-0.092,0.687
0.730,0.225,0.252,0.770,-4.397,-0.382,1.176
0.740,0.224,0.249,0.773,-4.870,-0.885,1.450
0.740,0.228,0.255,0.774,-5.237,-1.252,1.573
0.740,0.233,0.255,0.774,-5.527,-1.298,1.649
0.750,0.248,0.250,0.780,-5.725,-1.557,1.634
0.750,0.250,0.249,0.773,-5.786,-1.802,1.267
0.760,0.239,0.250,0.777,-6.198,-2.122,1.282
0.760,0.243,0.252,0.769,-6.626,-2.779,1.115
0.760,0.248,0.250,0.780,-6.855,-2.550,1.145
0.770,0.250,0.246,0.768,-6.885,-2.687,1.221
0.770,0.250,0.250,0.757,-7.008,-3.191,0.977
0.780,0.243,0.254,0.749,-7.634,-3.435,0.840
0.780,0.249,0.249,0.748,-7.771,-3.756,0.534
0.780,0.244,0.246,0.739,-8.580,-4.275,0.504
0.790,0.246,0.250,0.722,-9.466,-4.748,0.397
0.790,0.240,0.252,0.699,-10.870,-6.000,0.214
0.800,0.239,0.249,0.685,-12.534,-6.977,0.305
0.800,0.236,0.253,0.689,-14.565,-8.092,0.015
0.800,0.236,0.252,0.687,-15.939,-9.588,-0.092
0.810,0.238,0.244,0.695,-17.344,-11.603,-0.443
0.810,0.234,0.248,0.702,-18.397,-13.008,-0.656
0.820,0.226,0.240,0.701,-18.794,-14.916,-0.550
0.820,0.227,0.238,0.698,-19.344,-15.878,-0.489
0.820,0.230,0.235,0.688,-19.802,-16.107,-0.031
0.830,0.244,0.236,0.694,-20.076,-14.458,0.229
0.830,0.252,0.244,0.682,-20.656,-12.824,0.214
0.840,0.250,0.242,0.682,-21.252,-11.771,0.702
0.840,0.248,0.236,0.662,-22.061,-10.366,0.870
0.840,0.254,0.234,0.671,-22.672,-8.580,1.511
0.850,0.255,0.240,0.675,-22.962,-6.244,2.107
0.850,0.255,0.239,0.676,-23.756,-3.878,2.824
0.860,0.276,0.243,0.666,-24.763,-2.031,3.405
0.860,0.286,0.240,0.657,-25.679,-0.061,3.649
0.860,0.305,0.242,0.671,-26.626,1.863,3.435
0.870,0.319,0.243,0.662,-27.756,3.191,3.176
0.870,0.316,0.245,0.662,-29.252,4.137,2.611
0.880,0.321,0.245,0.653,-30.733,4.870,2.321
0.880,0.316,0.243,0.647,-32.351,4.962,1.786
0.880,0.302,0.247,0.640,-33.863,4.244,1.450
0.890,0.301,0.247,0.631,-36.046,3.191,1.069
0.890,0.292,0.242,0.611,-37.802,2.733,0.947
0.900,0.286,0.234,0.621,-39.664,1.969,0.733
0.900,0.275,0.223,0.635,-41.450,1.237,0.687
0.900,0.257,0.215,0.631,-43.221,-0.504,0.534
0.910,0.251,0.206,0.640,-44.931,-2.611,0.351
0.910,0.252,0.198,0.653,-46.000,-3.939,0.046
0.920,0.252,0.187,0.666,-46.626,-5.786,-0.122
0.920,0.250,0.184,0.692,-46.824,-6.947,-0.397
0.920,0.259,0.175,0.697,-46.916,-6.748,-0.611
0.930,0.257,0.165,0.707,-47.160,-6.031,-0.687
0.930,0.260,0.163,0.719,-47.466,-5.618,-0.855
0.940,0.253,0.150,0.740,-48.015,-5.145,-0.870
0.940,0.236,0.138,0.743,-48.198,-4.290,-0.214
0.940,0.232,0.133,0.754,-48.137,-3.069,0.763
0.950,0.238,0.137,0.755,-49.069,-1.634,1.435
0.950,0.239,0.124,0.767,-49.817,0.840,2.076
0.960,0.236,0.115,0.768,-50.290,3.176,3.206
0.960,0.227,0.110,0.778,-51.328,5.252,4.290
0.960,0.212,0.105,0.769,-52.305,7.618,5.389
0.970,0.198,0.096,0.773,-53.328,9.435,6.260
0.970,0.179,0.092,0.763,-54.321,10.458,7.878
0.980,0.171,0.085,0.767,-55.191,11.863,9.359
0.980,0.161,0.085,0.761,-56.443,13.069,10.840
0.980,0.156,0.074,0.751,-57.527,13.893,12.153
0.990,0.136,0.071,0.744,-58.504,13.679,13.313
0.990,0.142,0.074,0.720,-60.092,15.359,14.504
1.000,0.135,0.058,0.714,-62.244,16.336,15.527
1.000,0.127,0.043,0.704,-63.160,16.321,15.863
1.000,0.123,0.042,0.691,-65.099,14.809,15.573
1.010,0.102,0.029,0.663,-66.916,11.115,15.023
1.010,0.088,0.021,0.646,-68.794,6.672,14.412
1.020,0.065,0.011,0.615,-70.931,1.832,14.107
1.020,0.031,0.003,0.592,-73.481,-4.443,14.275
1.020,-0.000,-0.002,0.556,-76.779,-11.130,14.885
1.030,-0.023,-0.015,0.528,-80.794,-17.908,16.061
1.030,-0.024,-0.017,0.510,-84.397,-22.427,17.618
1.040,-0.023,-0.032,0.502,-87.725,-25.145,19.481
1.040,-0.031,-0.044,0.491,-90.840,-26.977,21.847
1.050,-0.035,-0.057,0.487,-93.374,-27.496,25.053
1.050,-0.019,-0.072,0.484,-95.481,-26.290,28.260
1.050,0.000,-0.078,0.489,-97.282,-25.542,31.756
1.060,0.032,-0.084,0.465,-99.710,-25.359,34.336
1.060,0.067,-0.085,0.473,-102.366,-24.489,36.565
1.070,0.103,-0.090,0.457,-104.794,-23.313,37.985
1.070,0.136,-0.097,0.455,-107.573,-23.679,39.115
1.080,0.163,-0.107,0.439,-110.641,-25.496,39.481
1.080,0.187,-0.114,0.391,-114.107,-28.901,39.237
1.080,0.196,-0.108,0.342,-118.748,-33.603,38.885
1.090,0.198,-0.112,0.297,-125.282,-38.031,38.733
1.090,0.227,-0.115,0.260,-131.832,-42.122,38.458
1.100,0.250,-0.131,0.245,-137.664,-45.679,37.756
1.100,0.286,-0.141,0.211,-144.046,-47.588,36.916
1.110,0.307,-0.153,0.176,-149.939,-49.282,35.649
1.110,0.323,-0.155,0.152,-155.496,-50.458,34.092
1.120,0.377,-0.155,0.124,-162.840,-49.008,32.046
1.120,0.388,-0.154,0.096,-169.802,-45.405,30.137
1.120,0.380,-0.167,0.071,-176.214,-41.588,28.916
1.130,0.373,-0.175,0.079,-181.969,-38.718,28.229
1.130,0.375,-0.189,0.073,-187.511,-35.099,28.595
1.140,0.377,-0.206,0.091,-192.962,-31.634,29.481
1.140,0.370,-0.220,0.116,-197.374,-28.580,31.252
1.150,0.369,-0.251,0.147,-200.916,-26.687,33.023
1.150,0.380,-0.275,0.167,-203.679,-24.641,34.779
1.150,0.405,-0.301,0.214,-205.221,-20.260,36.565
1.160,0.453,-0.326,0.246,-205.115,-9.847,37.679
1.160,0.442,-0.363,0.254,-206.092,-2.198,39.481
1.170,0.413,-0.390,0.249,-206.611,1.878,41.649
1.170,0.354,-0.423,0.278,-209.206,-5.115,43.817
1.180,0.315,-0.444,0.321,-209.511,-16.763,46.122
1.180,0.382,-0.499,0.368,-207.802,-16.656,46.718
1.180,0.474,-0.509,0.301,-211.588,-4.229,46.870
1.190,0.456,-0.542,0.278,-215.847,4.443,46.992
1.190,0.428,-0.576,0.305,-218.321,7.557,46.840
1.200,0.435,-0.612,0.314,-220.641,9.542,46.962
1.200,0.412,-0.660,0.365,-220.534,9.389,46.107
1.210,0.475,-0.645,0.327,-227.450,15.725,45.099
1.210,0.510,-0.667,0.281,-235.221,25.023,43.313
1.210,0.538,-0.717,0.380,-235.817,39.924,40.198
1.220,0.527,-0.770,0.444,-237.145,40.702,36.779
1.220,0.446,-0.753,0.434,-240.870,25.130,33.893
1.230,0.456,-0.809,0.464,-242.046,12.168,30.947
1.230,0.466,-0.840,0.495,-243.221,5.115,27.924
1.230,0.490,-0.853,0.506,-247.191,3.023,25.405
1.240,0.490,-0.890,0.534,-248.748,-0.366,22.992
1.240,0.468,-0.932,0.603,-247.115,-9.206,20.855
1.250,0.462,-0.970,0.664,-242.748,-19.237,19.160
1.250,0.505,-0.993,0.687,-240.107,-23.435,17.038
1.260,0.520,-1.009,0.705,-238.489,-25.374,15.634
1.260,0.509,-1.054,0.739,-234.336,-29.023,13.252
1.260,0.510,-1.081,0.781,-231.435,-28.076,12.687
1.270,0.517,-1.108,0.773,-228.046,-20.824,12.198
1.270,0.439,-1.153,0.814,-222.718,-17.038,12.519
1.280,0.423,-1.160,0.798,-221.924,-9.893,13.893
1.280,0.379,-1.200,0.774,-219.573,-0.153,15.893
1.290,0.313,-1.240,0.813,-217.084,5.420,18.061
1.290,0.290,-1.272,0.820,-213.511,11.023,19.420
1.290,0.251,-1.285,0.808,-210.000,15.298,20.443
1.300,0.191,-1.304,0.806,-207.130,15.084,21.985
1.300,0.167,-1.312,0.765,-205.298,13.160,23.466
1.310,0.160,-1.319,0.757,-203.374,11.176,24.656
1.310,0.160,-1.321,0.734,-202.015,9.221,25.298
1.320,0.162,-1.325,0.721,-200.260,5.160,25.053
1.320,0.174,-1.335,0.688,-198.290,-2.153,23.786
1.320,0.193,-1.328,0.676,-198.153,-8.702,22.855
1.330,0.230,-1.330,0.672,-197.954,-10.305,22.672
1.330,0.253,-1.341,0.713,-195.832,-10.885,21.603
1.340,0.281,-1.350,0.744,-192.489,-13.557,19.237
1.340,0.285,-1.357,0.758,-189.359,-17.237,17.084
1.350,0.295,-1.358,0.788,-185.557,-21.282,15.298
1.350,0.316,-1.354,0.798,-180.718,-22.153,14.031
1.350,0.331,-1.349,0.788,-176.626,-20.748,13.130
1.360,0.337,-1.335,0.775,-172.794,-18.458,12.336
1.360,0.344,-1.330,0.732,-169.084,-17.588,11.664
1.370,0.345,-1.319,0.698,-165.908,-17.450,11.115
1.370,0.349,-1.304,0.643,-163.588,-15.893,10.641
1.380,0.353,-1.294,0.613,-162.137,-14.290,9.481
1.380,0.344,-1.284,0.573,-160.824,-13.786,8.229
1.380,0.343,-1.276,0.524,-159.725,-13.847,6.885
1.390,0.313,-1.257,0.473,-158.824,-14.656,5.664
1.390,0.297,-1.249,0.432,-158.885,-16.244,4.412
1.400,0.282,-1.236,0.393,-158.885,-19.664,3.023
1.400,0.276,-1.238,0.355,-158.321,-24.641,1.160
1.410,0.260,-1.240,0.319,-158.000,-29.237,-0.260
1.410,0.235,-1.231,0.253,-159.145,-33.679,-0.931
1.410,0.219,-1.231,0.206,-161.420,-38.336,-1.160
1.420,0.214,-1.228,0.188,-163.496,-43.695,-1.359
1.420,0.216,-1.232,0.185,-165.344,-48.931,-1.206
1.430,0.233,-1.231,0.179,-167.115,-52.336,-0.870
1.430,0.245,-1.232,0.165,-169.420,-53.634,-0.580
1.440,0.247,-1.225,0.160,-170.702,-54.565,0.382
1.440,0.235,-1.223,0.171,-171.252,-54.855,1.679
1.450,0.229,-1.224,0.153,-171.511,-53.069,3.206
1.450,0.220,-1.229,0.138,-171.191,-49.282,5.908
1.450,0.205,-1.226,0.119,-170.916,-44.244,8.992
1.460,0.211,-1.233,0.125,-170.687,-39.450,12.412
1.460,0.233,-1.229,0.112,-170.351,-32.672,15.435
1.470,0.264,-1.229,0.114,-170.107,-23.420,18.397
1.470,0.279,-1.222,0.121,-169.420,-14.427,21.023
1.480,0.294,-1.226,0.111,-169.328,-6.718,22.992
1.480,0.319,-1.208,0.104,-169.618,-0.473,24.122
1.480,0.321,-1.267,0.137,-167.374,-1.069,23.756
1.490,0.309,-1.189,0.122,-167.832,6.840,25.710
1.490,0.376,-1.238,0.177,-164.366,23.435,26.427
1.500,0.382,-1.241,0.188,-159.496,27.084,24.672
1.500,0.323,-1.220,0.175,-155.679,23.924,22.763
1.500,0.289,-1.232,0.195,-151.588,24.626,22.840
1.510,0.253,-1.223,0.199,-145.969,24.473,22.855
1.510,0.224,-1.217,0.191,-141.466,21.115,22.901
1.520,0.205,-1.218,0.194,-136.611,14.473,23.023
1.520,0.202,-1.214,0.205,-131.435,7.389,23.176
1.530,0.206,-1.218,0.210,-125.954,1.099,22.931
1.530,0.206,-1.222,0.188,-120.779,-6.656,22.611
1.530,0.211,-1.219,0.180,-116.275,-14.565,22.000
1.540,0.224,-1.219,0.157,-112.229,-21.710,21.618
1.540,0.241,-1.212,0.147,-108.962,-27.435,21.206
1.550,0.259,-1.209,0.134,-105.893,-29.099,21.237
1.550,0.266,-1.200,0.129,-103.878,-26.885,21.939
1.560,0.300,-1.187,0.107,-102.244,-20.840,22.595
1.560,0.293,-1.179,0.103,-100.702,-14.092,23.756
1.560,0.285,-1.180,0.102,-98.718,-4.779,25.176
1.570,0.280,-1.174,0.084,-97.191,5.389,27.099
1.570,0.263,-1.168,0.066,-96.076,15.023,29.023
1.580,0.252,-1.161,0.039,-95.069,24.260,30.885
1.580,0.234,-1.150,0.019,-93.802,31.053,31.939
1.590,0.224,-1.153,0.015,-92.305,36.489,32.565
1.590,0.216,-1.146,0.003,-90.885,40.947,32.809
1.590,0.215,-1.141,-0.025,-90.061,43.405,32.519
1.600,0.194,-1.133,-0.036,-89.542,43.634,32.046
1.600,0.186,-1.145,-0.037,-89.282,41.908,31.176
1.610,0.173,-1.148,-0.043,-88.198,37.847,30.046
1.610,0.167,-1.147,-0.055,-87.664,32.168,28.687
1.620,0.171,-1.143,-0.033,-87.802,24.840,26.840
1.620,0.187,-1.151,-0.038,-87.237,16.015,24.443
1.620,0.202,-1.153,-0.009,-86.168,6.443,21.145
1.630,0.223,-1.156,0.029,-83.618,-1.695,17.817
1.630,0.241,-1.162,0.053,-80.244,-8.672,14.260
1.640,0.240,-1.164,0.074,-77.191,-14.779,11.145
1.640,0.234,-1.164,0.096,-73.053,-19.573,9.038
1.640,0.216,-1.160,0.122,-67.924,-24.351,7.710
1.650,0.213,-1.158,0.123,-63.802,-26.977,6.947
1.650,0.205,-1.153,0.111,-59.542,-27.115,6.977
1.660,0.201,-1.154,0.110,-55.206,-26.672,7.618
1.660,0.202,-1.152,0.107,-51.802,-24.198,9.053
1.670,0.207,-1.142,0.103,-48.763,-19.710,10.809
1.670,0.212,-1.138,0.090,-45.969,-14.458,12.168
1.670,0.208,-1.142,0.094,-43.084,-9.786,13.328
1.680,0.206,-1.138,0.087,-40.076,-4.687,14.458
1.680,0.207,-1.132,0.071,-36.962,1.618,15.679
1.690,0.199,-1.130,0.049,-34.794,6.916,17.252
1.690,0.173,-1.130,0.025,-32.137,10.458,18.504
1.690,0.167,-1.124,0.004,-30.061,12.687,19.649
1.700,0.156,-1.117,-0.006,-28.504,14.779,21.038
1.700,0.158,-1.124,-0.015,-27.221,16.794,22.153
1.710,0.163,-1.114,-0.031,-26.061,17.710,22.702
1.710,0.181,-1.123,-0.040,-25.084,17.344,22.565
1.720,0.187,-1.116,-0.041,-23.389,16.092,21.695
1.720,0.192,-1.116,-0.030,-21.405,13.847,20.351
1.720,0.194,-1.116,-0.049,-19.450,9.771,18.809
1.730,0.190,-1.111,-0.077,-18.229,3.969,16.565
1.730,0.210,-1.111,-0.092,-17.634,-2.183,13.969
1.740,0.221,-1.102,-0.100,-16.779,-7.618,11.191
1.740,0.226,-1.104,-0.095,-16.031,-12.137,8.687
1.750,0.225,-1.093,-0.100,-15.221,-16.290,6.489
1.750,0.208,-1.094,-0.105,-14.427,-20.534,4.687
1.750,0.206,-1.087,-0.114,-14.153,-24.137,3.099
1.760,0.220,-1.075,-0.116,-13.664,-25.832,1.832
1.760,0.224,-1.074,-0.128,-13.130,-26.198,0.992
1.770,0.208,-1.077,-0.118,-11.374,-25.237,0.687
1.770,0.188,-1.070,-0.138,-9.878,-23.496,1.023
1.780,0.174,-1.070,-0.165,-9.542,-21.206,2.260
1.780,0.175,-1.068,-0.189,-10.168,-18.366,3.725
1.780,0.184,-1.057,-0.202,-10.565,-13.740,4.870
1.790,0.198,-1.051,-0.192,-11.145,-9.221,6.015
1.790,0.203,-1.049,-0.193,-11.374,-5.420,6.565
1.800,0.210,-1.051,-0.202,-10.931,-1.939,7.115
1.800,0.206,-1.049,-0.198,-10.885,1.481,7.420
1.800,0.206,-1.050,-0.206,-10.214,3.756,7.817
1.810,0.213,-1.053,-0.203,-9.420,4.962,7.985
1.810,0.216,-1.050,-0.219,-8.290,4.504,7.374
1.820,0.214,-1.047,-0.214,-7.664,1.924,6.183
1.820,0.221,-1.048,-0.208,-6.779,-2.336,4.748
1.820,0.230,-1.046,-0.218,-5.527,-6.611,3.130
1.830,0.229,-1.051,-0.227,-4.092,-10.321,1.542
1.830,0.216,-1.038,-0.244,-3.573,-14.901,0.229
1.840,0.219,-1.041,-0.255,-3.634,-17.924,-0.718
1.840,0.214,-1.035,-0.259,-3.115,-20.580,-1.679
1.850,0.212,-1.031,-0.264,-2.702,-22.107,-2.534
1.850,0.206,-1.024,-0.274,-2.427,-23.893,-2.885
1.850,0.193,-1.021,-0.273,-2.412,-26.076,-3.313
1.860,0.195,-1.032,-0.281,-2.443,-28.412,-3.725
1.860,0.202,-1.034,-0.274,-2.565,-30.046,-3.985
1.870,0.212,-1.027,-0.279,-3.832,-31.145,-4.168
1.870,0.224,-1.029,-0.269,-4.977,-33.237,-4.916
1.880,0.237,-1.038,-0.247,-5.634,-34.672,-5.573
1.880,0.257,-1.033,-0.231,-5.939,-35.130,-6.397
1.880,0.271,-1.049,-0.211,-6.489,-34.977,-6.580
1.890,0.272,-1.056,-0.178,-6.336,-34.244,-6.504
1.890,0.282,-1.057,-0.172,-6.000,-32.809,-6.458
1.900,0.302,-1.053,-0.141,-5.710,-31.496,-6.870
1.900,0.322,-1.065,-0.094,-3.634,-30.321,-7.679
1.900,0.320,-1.071,-0.077,-0.519,-29.313,-8.931
1.910,0.306,-1.072,-0.053,2.779,-28.626,-10.107
1.910,0.302,-1.075,-0.065,7.145,-27.847,-11.191
1.920,0.290,-1.070,-0.065,11.160,-30.076,-12.641
1.920,0.272,-1.071,-0.074,14.947,-32.733,-14.443
1.930,0.268,-1.072,-0.110,18.458,-34.534,-15.740
1.930,0.247,-1.074,-0.119,21.328,-36.244,-17.084
1.940,0.216,-1.073,-0.154,23.695,-38.656,-17.710
1.940,0.185,-1.073,-0.168,26.244,-41.328,-17.756
1.940,0.192,-1.070,-0.197,25.695,-40.748,-17.130
1.950,0.165,-1.076,-0.188,26.351,-41.756,-16.336
1.950,0.162,-1.084,-0.185,26.870,-44.092,-15.573
1.960,0.201,-1.083,-0.179,25.725,-44.305,-15.221
1.960,0.226,-1.093,-0.166,25.053,-42.183,-15.053
1.970,0.247,-1.093,-0.151,23.695,-37.771,-15.313
1.970,0.261,-1.097,-0.129,23.405,-34.595,-14.122
1.970,0.250,-1.138,-0.073,27.679,-36.626,-16.718
1.980,0.294,-1.126,-0.031,28.931,-36.534,-17.756
1.980,0.329,-1.125,-0.048,29.954,-31.298,-18.702
1.990,0.313,-1.145,0.013,33.634,-29.069,-19.863
1.990,0.333,-1.138,0.054,36.840,-23.725,-20.519
2.000,0.335,-1.149,0.042,40.870,-15.359,-20.824
2.000,0.308,-1.157,0.053,45.221,-11.847,-21.206
2.000,0.281,-1.162,0.077,48.458,-10.107,-21.099
2.010,0.272,-1.176,0.098,52.229,-7.527,-20.565
2.010,0.279,-1.178,0.113,55.038,-5.115,-20.779
2.020,0.286,-1.189,0.139,58.580,-4.550,-21.725
2.020,0.298,-1.192,0.164,62.519,-6.107,-23.710
2.030,0.305,-1.211,0.169,66.718,-8.504,-25.786
2.030,0.327,-1.220,0.190,70.580,-10.366,-28.351
2.030,0.352,-1.233,0.195,74.092,-13.069,-31.313
2.040,0.372,-1.226,0.223,78.137,-16.290,-34.855
2.040,0.388,-1.236,0.254,82.061,-20.153,-38.305
2.050,0.396,-1.239,0.278,87.542,-22.931,-42.290
2.050,0.392,-1.252,0.299,93.939,-23.908,-46.000
2.050,0.363,-1.262,0.305,100.122,-25.084,-49.038
2.060,0.309,-1.281,0.282,107.557,-28.351,-50.809
2.060,0.296,-1.284,0.274,113.481,-31.160,-51.832
2.070,0.286,-1.293,0.266,118.489,-33.038,-51.985
2.070,0.285,-1.300,0.258,122.595,-32.534,-51.191
2.080,0.304,-1.310,0.263,125.756,-31.664,-50.275
2.080,0.290,-1.331,0.279,127.130,-37.756,-48.748
2.090,0.337,-1.327,0.298,127.664,-39.435,-48.183
2.090,0.445,-1.369,0.312,130.824,-22.015,-48.153
2.090,0.489,-1.372,0.385,132.687,-9.420,-47.359
2.100,0.515,-1.402,0.418,137.573,-1.924,-48.550
2.100,0.576,-1.419,0.428,141.985,8.443,-50.626
2.110,0.608,-1.415,0.440,145.649,19.954,-53.053
2.110,0.595,-1.437,0.494,150.412,27.496,-55.924
2.120,0.591,-1.409,0.510,156.122,34.031,-60.153
2.120,0.595,-1.406,0.506,162.840,39.557,-66.885
2.120,0.532,-1.438,0.483,173.710,43.924,-75.618
2.130,0.400,-1.450,0.446,181.893,40.550,-80.840
2.130,0.227,-1.486,0.383,193.908,28.580,-85.221
2.140,0.109,-1.475,0.315,202.779,9.725,-87.069
2.140,0.039,-1.461,0.200,205.832,-9.160,-86.092
2.140,-0.056,-1.425,0.065,202.153,-35.298,-84.901
2.150,0.005,-1.425,0.033,198.641,-44.198,-82.351
2.150,0.055,-1.422,0.053,197.344,-46.214,-77.389
2.160,0.060,-1.432,0.122,195.969,-54.550,-71.863
2.160,0.140,-1.415,0.096,188.855,-57.008,-65.481
2.170,0.294,-1.413,0.123,180.458,-47.679,-60.107
2.170,0.395,-1.436,0.229,176.305,-34.275,-55.206
2.180,0.520,-1.446,0.317,175.053,-16.244,-50.000
2.180,0.654,-1.464,0.387,175.145,7.878,-49.878
2.180,0.712,-1.458,0.433,176.901,33.160,-48.015
2.190,0.729,-1.464,0.484,181.313,55.466,-47.160
2.190,0.757,-1.475,0.541,187.573,74.412,-47.527
2.200,0.763,-1.482,0.562,194.260,86.779,-49.603
2.200,0.733,-1.488,0.564,202.137,92.015,-53.725
2.200,0.701,-1.506,0.570,211.664,90.962,-58.382
2.210,0.660,-1.503,0.554,219.817,84.840,-63.344
2.210,0.636,-1.492,0.538,227.160,78.198,-68.870
2.220,0.583,-1.474,0.507,234.214,67.908,-75.038
2.220,0.524,-1.466,0.487,241.221,53.542,-81.450
2.230,0.449,-1.463,0.464,247.710,39.802,-85.267
2.230,0.364,-1.449,0.397,252.672,27.496,-86.779
2.230,0.316,-1.432,0.359,255.832,17.115,-86.626
2.240,0.290,-1.406,0.313,257.389,6.427,-85.985
2.240,0.274,-1.378,0.276,257.023,-3.130,-84.305
2.250,0.293,-1.350,0.241,255.267,-8.641,-82.489
2.250,0.344,-1.334,0.200,251.267,-8.626,-80.824
2.260,0.372,-1.310,0.173,246.198,-8.947,-79.588
2.260,0.319,-1.292,0.142,236.443,-21.985,-78.015
2.260,0.354,-1.260,0.120,230.427,-18.122,-75.130
2.270,0.492,-1.232,0.180,223.038,2.870,-70.748
2.270,0.508,-1.229,0.217,218.824,15.008,-68.321
2.280,0.512,-1.224,0.240,216.107,20.870,-67.374
2.280,0.562,-1.202,0.250,214.015,31.389,-66.931
2.290,0.579,-1.190,0.265,212.718,45.221,-66.229
2.290,0.569,-1.161,0.291,211.954,58.687,-64.977
2.290,0.551,-1.145,0.294,210.992,66.840,-64.519
2.300,0.509,-1.120,0.305,209.725,70.290,-63.954
2.300,0.481,-1.104,0.314,208.290,71.756,-63.344
2.310,0.476,-1.088,0.325,206.229,73.939,-63.099
2.310,0.443,-1.062,0.356,204.840,74.198,-61.985
2.320,0.422,-1.051,0.390,204.504,71.740,-61.023
2.320,0.409,-1.037,0.416,203.420,68.672,-59.298
2.320,0.395,-1.025,0.448,203.359,67.618,-57.786
2.330,0.381,-1.016,0.496,205.344,65.511,-55.954
2.330,0.340,-1.024,0.499,207.206,53.832,-54.000
2.340,0.349,-0.970,0.496,203.603,46.397,-54.183
2.340,0.464,-0.983,0.432,203.069,61.191,-52.290
2.350,0.386,-0.993,0.542,205.649,61.771,-52.504
2.350,0.364,-0.975,0.537,206.382,58.748,-52.351
2.350,0.368,-0.942,0.484,206.076,58.626,-51.542
2.360,0.341,-0.944,0.515,207.344,58.901,-50.947
2.360,0.343,-0.921,0.493,209.099,61.817,-49.328
2.370,0.306,-0.912,0.509,210.794,57.954,-46.947
2.370,0.314,-0.888,0.523,212.061,50.656,-45.466
2.380,0.397,-0.832,0.457,209.389,49.588,-43.985
2.380,0.428,-0.811,0.467,207.008,48.458,-44.473
2.380,0.450,-0.790,0.503,206.244,43.817,-45.649
2.390,0.506,-0.766,0.485,205.511,42.382,-48.687
2.390,0.515,-0.741,0.483,203.511,41.023,-51.573
2.400,0.507,-0.717,0.497,201.863,38.443,-54.504
2.400,0.494,-0.700,0.507,200.962,35.511,-57.237
2.400,0.497,-0.680,0.536,200.885,32.901,-60.351
2.410,0.486,-0.667,0.542,201.084,29.679,-63.557
2.410,0.445,-0.651,0.522,200.824,25.511,-65.313
2.420,0.385,-0.630,0.530,200.214,20.229,-65.511
2.420,0.352,-0.615,0.543,200.061,14.977,-64.641
2.430,0.346,-0.595,0.547,200.458,9.588,-63.985
2.430,0.336,-0.573,0.544,199.603,5.649,-63.511
2.430,0.336,-0.548,0.537,197.679,3.374,-62.977
2.440,0.334,-0.531,0.538,195.634,2.031,-62.046
2.440,0.316,-0.511,0.529,193.740,1.084,-61.069
2.450,0.301,-0.486,0.525,191.878,0.427,-59.481
2.450,0.302,-0.474,0.526,189.863,2.000,-57.573
2.460,0.304,-0.456,0.510,187.740,4.336,-55.634
2.460,0.299,-0.425,0.492,185.160,6.489,-53.099
2.460,0.286,-0.401,0.470,181.359,8.916,-50.122
2.470,0.287,-0.371,0.450,177.527,12.137,-47.191
2.470,0.281,-0.352,0.446,173.130,15.252,-43.802
2.480,0.286,-0.330,0.460,169.740,17.710,-40.824
2.480,0.317,-0.304,0.449,165.985,20.198,-38.672
2.480,0.325,-0.293,0.468,163.191,21.115,-37.511
2.490,0.334,-0.282,0.461,160.992,22.229,-36.931
2.490,0.333,-0.249,0.462,158.947,21.664,-36.076
2.500,0.333,-0.238,0.460,156.840,20.290,-35.328
2.500,0.337,-0.221,0.465,154.290,18.916,-34.351
2.510,0.340,-0.185,0.457,151.863,18.229,-33.786
2.510,0.338,-0.167,0.453,149.130,17.832,-33.267
2.510,0.334,-0.150,0.448,146.290,16.931,-32.672
2.520,0.332,-0.133,0.443,143.450,17.237,-32.000
2.520,0.327,-0.121,0.444,140.015,18.458,-30.656
2.530,0.315,-0.106,0.439,136.519,19.450,-29.069
2.530,0.313,-0.087,0.437,133.313,20.061,-27.740
2.540,0.321,-0.077,0.459,130.794,20.519,-26.794
2.540,0.318,-0.068,0.454,128.290,21.802,-25.954
2.540,0.318,-0.056,0.448,125.511,22.519,-24.733
2.550,0.311,-0.045,0.478,123.038,22.656,-23.618
2.550,0.323,-0.045,0.497,121.908,22.641,-23.023
2.560,0.322,-0.030,0.521,120.672,22.290,-22.641
2.560,0.318,-0.019,0.542,119.496,21.298,-22.290
2.570,0.320,-0.009,0.541,118.702,20.275,-22.183
2.570,0.327,0.002,0.542,118.153,19.664,-22.412
2.570,0.318,0.025,0.547,118.046,19.344,-22.336
2.580,0.305,0.036,0.516,118.046,18.351,-22.046
2.580,0.299,0.053,0.509,117.008,16.718,-21.511
2.590,0.280,0.070,0.468,115.115,14.962,-20.992
2.590,0.270,0.094,0.439,112.229,12.916,-20.840
2.590,0.253,0.112,0.433,109.115,9.924,-20.473
2.600,0.250,0.122,0.430,105.939,7.023,-19.878
2.600,0.252,0.139,0.423,102.718,5.786,-18.870
2.610,0.244,0.142,0.418,99.084,5.511,-17.557
2.610,0.239,0.157,0.405,94.824,4.061,-16.168
2.620,0.238,0.165,0.385,90.489,2.550,-14.962
2.620,0.248,0.180,0.400,85.847,1.649,-14.153
2.620,0.252,0.184,0.402,81.679,1.710,-12.824
2.630,0.243,0.187,0.418,77.573,2.656,-11.130
2.630,0.250,0.201,0.426,73.740,3.893,-9.160
2.630,0.264,0.206,0.436,70.412,4.855,-7.466
2.640,0.266,0.213,0.460,67.374,6.580,-6.153
2.640,0.280,0.217,0.464,64.702,8.992,-4.672
2.650,0.295,0.222,0.471,62.580,12.229,-3.176
2.650,0.300,0.233,0.488,60.763,15.435,-1.908
2.650,0.304,0.235,0.487,59.313,19.221,-1.008
2.660,0.302,0.250,0.486,57.756,22.947,0.580
2.660,0.306,0.257,0.488,56.565,26.977,2.015
2.670,0.289,0.269,0.492,55.908,30.168,3.359
2.670,0.300,0.267,0.507,55.053,32.687,4.489
2.670,0.299,0.274,0.492,53.618,35.237,5.359
2.680,0.301,0.280,0.480,52.076,36.901,5.786
2.680,0.301,0.284,0.473,50.443,37.023,5.588
2.690,0.279,0.292,0.471,48.626,35.466,4.229
2.690,0.250,0.301,0.474,47.466,31.573,5.176
2.690,0.248,0.299,0.456,45.420,27.786,5.435
2.700,0.233,0.306,0.455,42.366,23.573,5.939
2.700,0.226,0.313,0.445,39.282,19.237,5.893
2.710,0.227,0.320,0.448,35.832,13.267,5.924
2.710,0.225,0.323,0.458,32.779,7.130,5.496
2.710,0.233,0.321,0.460,30.214,2.382,5.359
2.720,0.221,0.327,0.483,27.695,-2.397,6.198
2.720,0.213,0.332,0.499,25.603,-5.649,7.145
2.720,0.223,0.332,0.503,23.649,-7.557,7.985
2.730,0.237,0.333,0.509,21.374,-8.458,8.992
2.730,0.247,0.331,0.520,19.084,-8.947,9.725
2.740,0.253,0.334,0.531,17.176,-8.397,10.763
2.740,0.260,0.340,0.531,15.481,-6.794,11.771
2.740,0.262,0.335,0.557,14.092,-4.718,13.099
2.750,0.270,0.337,0.570,12.580,-1.893,14.397
2.750,0.280,0.338,0.562,11.725,1.466,15.802
2.760,0.300,0.337,0.580,11.206,5.099,17.176
2.760,0.313,0.337,0.585,10.763,8.824,17.969
2.760,0.325,0.339,0.602,10.718,12.534,18.763
2.770,0.333,0.343,0.596,10.229,16.519,19.557
2.770,0.341,0.344,0.606,9.435,19.832,19.786
2.780,0.346,0.340,0.603,9.282,22.855,19.908
2.780,0.337,0.347,0.615,9.588,25.053,19.954
2.780,0.327,0.350,0.609,9.435,26.382,19.954
2.790,0.324,0.349,0.598,8.565,27.084,20.153
2.790,0.319,0.360,0.582,7.038,26.626,20.107
2.800,0.316,0.361,0.587,5.145,25.420,20.107
2.800,0.316,0.357,0.592,2.901,23.511,19.847
2.800,0.323,0.361,0.580,0.580,20.580,19.435
2.810,0.314,0.361,0.588,-1.664,17.603,18.931
2.810,0.319,0.360,0.610,-3.389,14.733,18.290
2.820,0.306,0.356,0.610,-5.038,12.229,18.183
2.820,0.300,0.356,0.600,-6.718,9.588,18.290
2.820,0.307,0.348,0.622,-8.153,7.527,18.092
2.830,0.320,0.347,0.631,-9.206,5.939,17.878
2.830,0.345,0.347,0.650,-9.710,5.878,17.756
2.840,0.355,0.351,0.668,-9.878,7.206,17.191
2.840,0.356,0.350,0.669,-10.244,8.412,17.008
2.840,0.358,0.353,0.686,-10.916,9.985,16.962
2.850,0.367,0.352,0.685,-11.008,13.145,16.916
2.850,0.361,0.350,0.696,-10.611,16.626,16.595
2.860,0.358,0.345,0.687,-10.015,20.351,16.504
2.860,0.348,0.355,0.670,-10.183,23.069,16.550
2.860,0.343,0.357,0.666,-10.626,26.015,16.748
2.870,0.326,0.361,0.641,-10.565,28.855,17.115
2.870,0.317,0.366,0.618,-10.916,31.664,17.847
2.880,0.306,0.373,0.608,-12.137,34.046,18.550
2.880,0.298,0.375,0.581,-14.107,36.382,19.573
2.880,0.293,0.364,0.577,-15.573,38.275,20.565
2.890,0.294,0.358,0.563,-17.466,39.191,21.511
2.890,0.307,0.363,0.569,-20.779,41.130,21.985
2.900,0.324,0.364,0.572,-24.534,44.076,22.092
2.900,0.333,0.354,0.583,-27.496,46.107,22.153
2.900,0.328,0.348,0.602,-30.916,47.160,21.939
2.910,0.330,0.342,0.615,-34.153,48.076,21.679
2.910,0.319,0.336,0.643,-36.947,48.458,21.298
2.920,0.320,0.325,0.671,-39.817,48.046,20.855
2.920,0.319,0.320,0.688,-41.985,47.664,20.458
2.920,0.305,0.309,0.701,-43.847,47.221,20.382
2.930,0.290,0.306,0.740,-44.977,45.328,20.443
2.930,0.295,0.300,0.772,-45.649,44.061,21.053
2.940,0.291,0.295,0.797,-45.847,42.672,21.359
2.940,0.293,0.284,0.817,-45.695,40.565,21.573
2.940,0.297,0.276,0.857,-44.473,38.061,21.695
2.950,0.299,0.269,0.889,-42.550,35.267,21.237
2.950,0.312,0.258,0.910,-40.473,32.183,20.519
2.960,0.323,0.256,0.920,-38.382,29.313,19.527
2.960,0.335,0.251,0.944,-35.832,26.763,18.168
2.970,0.339,0.245,0.959,-33.328,24.534,16.809
2.970,0.337,0.240,0.972,-30.550,22.733,15.481
2.970,0.326,0.240,0.978,-27.771,20.550,14.458
2.980,0.323,0.240,0.980,-24.748,18.244,13.160
2.980,0.311,0.234,0.972,-22.137,14.702,12.412
2.990,0.298,0.230,0.984,-19.298,10.244,11.313
2.990,0.300,0.229,0.986,-16.321,5.573,9.985
2.990,0.297,0.228,0.982,-13.664,2.794,9.038
3.000,0.302,0.238,0.971,-11.389,-0.107,8.046
3.000,0.296,0.240,0.958,-9.588,-2.382,7.160
3.010,0.288,0.243,0.939,-7.893,-5.481,6.214
3.010,0.303,0.241,0.935,-7.038,-8.015,5.527
3.010,0.314,0.247,0.916,-6.198,-8.519,4.870
3.020,0.317,0.246,0.897,-6.031,-7.939,4.260
3.020,0.317,0.250,0.896,-5.924,-7.160,3.725
3.020,0.310,0.250,0.876,-6.061,-6.031,3.282
3.030,0.309,0.252,0.861,-6.198,-5.130,2.626
3.030,0.300,0.254,0.850,-6.748,-3.771,2.519
3.040,0.305,0.250,0.852,-7.374,-2.229,2.305
3.040,0.292,0.256,0.844,-7.878,-0.977,2.107
3.040,0.283,0.250,0.837,-8.702,0.382,2.107
3.050,0.277,0.251,0.843,-8.840,1.221,2.275
3.050,0.266,0.244,0.836,-9.115,2.046,2.153
3.060,0.262,0.243,0.836,-9.023,2.595,2.305
3.060,0.259,0.248,0.832,-9.038,2.672,2.336
3.060,0.235,0.247,0.828,-8.916,1.954,2.656
3.070,0.238,0.247,0.847,-8.595,1.603,3.069
3.070,0.233,0.249,0.836,-8.092,1.466,3.435
3.080,0.222,0.245,0.835,-7.756,0.718,3.618
3.080,0.229,0.244,0.830,-7.725,-0.046,4.092
3.080,0.236,0.247,0.831,-7.573,-0.580,4.275
3.090,0.240,0.245,0.828,-7.481,-0.351,4.580
3.090,0.234,0.243,0.824,-7.237,-0.290,4.656
3.090,0.227,0.242,0.829,-7.863,-0.458,5.267
3.100,0.228,0.245,0.819,-7.832,-0.504,5.618
3.100,0.222,0.241,0.820,-7.863,-1.221,5.985
3.110,0.223,0.240,0.825,-7.939,-2.000,6.550
3.110,0.235,0.242,0.838,-7.618,-1.832,6.855
3.110,0.248,0.240,0.824,-7.069,-1.496,7.053
3.120,0.255,0.242,0.831,-7.008,-1.695,7.298
3.120,0.263,0.244,0.826,-7.023,-1.603,7.359
3.130,0.269,0.244,0.831,-6.779,-0.641,7.359
3.130,0.262,0.246,0.839,-6.397,-0.565,7.725
3.130,0.262,0.245,0.837,-6.260,-1.191,8.076
3.140,0.263,0.242,0.829,-5.924,-1.649,8.305
3.140,0.267,0.238,0.826,-5.725,-2.153,8.565
3.150,0.274,0.250,0.829,-5.603,-2.992,8.534
3.150,0.284,0.238,0.835,-5.588,-3.344,8.687
3.150,0.293,0.252,0.824,-5.786,-3.267,8.656
3.160,0.300,0.252,0.821,-5.756,-3.252,8.611
3.160,0.315,0.254,0.817,-5.939,-2.824,8.351
3.160,0.318,0.249,0.811,-6.290,-2.321,7.847
3.170,0.313,0.251,0.821,-6.275,-1.527,7.481
3.170,0.314,0.256,0.816,-6.290,-0.702,7.191
3.180,0.306,0.254,0.799,-6.305,-0.168,7.008
3.180,0.298,0.256,0.799,-7.053,-0.656,6.870
3.180,0.284,0.253,0.797,-7.176,-1.374,6.901
3.190,0.284,0.255,0.809,-7.160,-1.496,6.763
3.190,0.295,0.250,0.812,-7.023,-1.252,6.931
3.200,0.289,0.248,0.809,-6.977,-1.740,7.130
3.200,0.291,0.243,0.819,-7.053,-2.275,6.947
3.200,0.299,0.241,0.812,-7.191,-2.580,7.069
3.210,0.301,0.240,0.819,-7.206,-3.252,6.702
3.210,0.317,0.237,0.833,-7.298,-3.786,6.305
3.220,0.314,0.239,0.825,-7.191,-3.893,5.695
3.220,0.314,0.231,0.842,-7.115,-4.779,5.481
3.220,0.306,0.229,0.846,-7.237,-4.718,5.130
3.230,0.310,0.232,0.839,-7.084,-4.260,4.885
3.230,0.316,0.234,0.847,-7.237,-3.954,5.008
3.240,0.306,0.228,0.850,-6.718,-3.695,5.023
3.240,0.300,0.232,0.840,-6.824,-3.573,5.176
3.240,0.301,0.232,0.840,-6.947,-3.420,5.084
3.250,0.314,0.234,0.843,-6.779,-2.626,5.267
3.250,0.317,0.226,0.843,-6.092,-1.405,5.130
3.250,0.319,0.228,0.840,-6.107,-0.580,5.099
3.260,0.301,0.228,0.833,-6.137,-0.260,5.191
3.260,0.313,0.228,0.830,-6.397,-0.397,5.099
3.270,0.314,0.228,0.824,-6.626,-0.443,5.069
3.270,0.324,0.231,0.822,-6.779,-0.275,4.687
3.270,0.335,0.241,0.836,-6.702,0.473,4.473
3.280,0.324,0.231,0.839,-6.611,1.374,4.168
3.280,0.327,0.223,0.835,-6.611,1.618,4.107
3.290,0.332,0.223,0.836,-6.702,2.397,3.939
3.290,0.338,0.224,0.845,-6.656,3.023,3.420
3.290,0.348,0.222,0.857,-6.153,2.962,2.489
3.300,0.336,0.222,0.856,-5.817,2.763,1.756
3.300,0.334,0.218,0.849,-5.496,2.641,1.206
3.300,0.329,0.222,0.849,-5.069,2.397,0.550
3.310,0.319,0.216,0.840,-4.870,2.153,0.076
3.310,0.309,0.218,0.840,-4.458,1.908,-0.427
3.320,0.307,0.217,0.837,-4.534,1.389,-0.550
3.320,0.306,0.221,0.828,-4.947,1.023,-0.931
3.320,0.298,0.219,0.823,-4.733,1.038,-1.237
3.330,0.285,0.217,0.811,-4.733,0.168,-1.557
3.330,0.269,0.221,0.814,-5.344,-1.313,-1.618
3.340,0.270,0.217,0.817,-5.679,-1.679,-1.695
3.340,0.267,0.212,0.824,-5.649,-1.374,-1.344
3.340,0.252,0.208,0.825,-6.153,-1.924,-0.824
3.350,0.245,0.205,0.837,-5.878,-2.611,-0.275
3.350,0.241,0.203,0.837,-5.969,-3.191,0.244
3.360,0.246,0.198,0.843,-5.847,-3.786,1.069
3.360,0.258,0.203,0.854,-5.679,-3.328,1.481
3.360,0.276,0.202,0.854,-5.481,-2.229,1.863
3.370,0.280,0.202,0.855,-5.115,-0.580,1.954
3.370,0.290,0.210,0.847,-5.053,1.206,2.275
3.380,0.282,0.202,0.845,-4.733,2.397,2.214
3.380,0.276,0.205,0.838,-4.290,2.489,2.412
3.380,0.279,0.208,0.825,-4.718,1.863,2.382
3.390,0.279,0.205,0.837,-4.672,2.107,2.412
3.390,0.285,0.209,0.843,-4.137,3.130,2.550
3.390,0.281,0.208,0.833,-3.756,3.802,2.489
3.400,0.263,0.215,0.838,-3.710,3.740,2.947
3.400,0.261,0.211,0.845,-3.740,3.481,3.282
3.410,0.257,0.208,0.829,-3.359,3.374,3.664
3.410,0.260,0.216,0.827,-3.176,3.802,3.786
3.410,0.263,0.213,0.821,-3.206,4.443,4.107
3.420,0.260,0.222,0.809,-3.405,4.656,4.443
3.420,0.256,0.219,0.806,-3.557,4.656,4.519
3.420,0.257,0.215,0.806,-4.015,5.145,4.901
3.430,0.259,0.215,0.793,-4.397,5.420,5.328
3.430,0.252,0.212,0.794,-5.267,5.786,5.893
3.440,0.255,0.217,0.786,-5.618,5.740,6.427
3.440,0.256,0.219,0.792,-6.397,5.771,6.718
3.440,0.256,0.216,0.786,-7.069,5.466,7.145
3.450,0.258,0.215,0.790,-8.275,5.115,7.237
3.450,0.270,0.212,0.785,-9.466,4.397,7.405
3.460,0.268,0.213,0.785,-10.550,2.931,7.695
3.460,0.271,0.210,0.806,-11.466,1.237,7.878
3.460,0.278,0.205,0.827,-11.771,0.382,7.786
3.470,0.296,0.198,0.841,-11.115,0.198,7.695
3.470,0.301,0.201,0.859,-10.321,0.000,7.542
3.470,0.302,0.195,0.878,-9.954,-0.916,7.374
3.480,0.326,0.190,0.878,-9.145,-0.519,7.084
3.480,0.331,0.203,0.876,-8.198,-0.046,6.702
3.490,0.335,0.197,0.865,-6.718,0.504,6.076
3.490,0.331,0.198,0.880,-5.786,0.168,5.359
3.490,0.332,0.205,0.865,-5.344,-0.122,4.947
3.500,0.337,0.206,0.861,-5.130,0.718,4.580
3.500,0.334,0.208,0.859,-4.931,1.145,4.275
3.510,0.328,0.218,0.847,-4.794,1.282,4.290
3.510,0.331,0.218,0.831,-5.176,1.160,4.000
3.510,0.324,0.214,0.823,-5.435,0.763,3.939
3.520,0.320,0.212,0.830,-5.924,0.519,3.664
3.520,0.328,0.216,0.827,-6.321,1.710,3.710
3.520,0.324,0.212,0.824,-6.489,2.931,3.405
3.530,0.334,0.224,0.817,-6.733,3.618,3.359
3.530,0.326,0.212,0.820,-7.282,3.359,2.885
3.540,0.329,0.218,0.809,-7.481,3.267,2.748
3.540,0.324,0.214,0.819,-7.710,3.634,2.794
3.540,0.321,0.208,0.830,-7.588,4.153,2.565
3.550,0.324,0.203,0.832,-7.771,3.817,2.351
3.550,0.323,0.206,0.838,-7.588,3.542,2.000
3.560,0.333,0.200,0.841,-7.649,3.359,1.756
3.560,0.325,0.199,0.844,-7.603,3.573,1.344
3.560,0.331,0.199,0.857,-7.481,3.634,0.809
3.570,0.324,0.198,0.853,-6.977,3.176,0.489
3.570,0.327,0.196,0.857,-6.427,2.489,-0.214
3.570,0.320,0.193,0.873,-5.695,1.847,-0.473
3.580,0.319,0.186,0.867,-5.023,1.145,-1.023
3.580,0.318,0.193,0.864,-4.153,0.870,-1.450
3.590,0.311,0.191,0.854,-3.679,0.763,-1.924
3.590,0.300,0.191,0.848,-3.878,0.519,-1.878
3.590,0.299,0.193,0.844,-4.061,0.534,-2.015
3.600,0.300,0.190,0.845,-3.725,1.435,-2.076
3.600,0.284,0.196,0.827,-4.046,1.603,-1.908
3.610,0.281,0.195,0.819,-4.229,1.710,-1.878
3.610,0.276,0.195,0.818,-4.641,1.771,-1.725
3.610,0.269,0.192,0.828,-5.053,1.695,-1.603
3.620,0.277,0.199,0.830,-5.588,1.618,-1.389
3.620,0.271,0.191,0.827,-5.832,2.107,-1.206
3.630,0.271,0.189,0.825,-6.214,2.153,-0.992
3.630,0.262,0.189,0.835,-6.290,2.092,-1.008
3.630,0.261,0.191,0.819,-6.687,1.573,-0.748
3.640,0.260,0.185,0.834,-7.023,0.626,-0.458
3.640,0.261,0.185,0.832,-7.099,0.244,-0.382
3.640,0.265,0.181,0.839,-7.038,-0.229,-0.137
3.650,0.269,0.188,0.846,-7.099,-0.351,-0.046
3.650,0.278,0.187,0.840,-7.115,-0.534,-0.092
3.660,0.274,0.178,0.848,-7.130,-0.656,0.000
3.660,0.278,0.176,0.856,-6.885,-0.580,0.107
3.660,0.280,0.179,0.862,-6.718,0.168,0.229
3.670,0.279,0.173,0.860,-6.351,0.870,0.229
3.670,0.284,0.175,0.862,-5.588,0.748,0.092
3.680,0.278,0.169,0.865,-4.931,-0.137,0.244
3.680,0.282,0.176,0.866,-4.656,0.214,0.198
3.680,0.291,0.179,0.863,-4.153,1.160,0.351
3.690,0.279,0.177,0.865,-3.908,1.863,0.718
3.690,0.289,0.179,0.860,-3.481,2.275,0.672
3.700,0.283,0.184,0.849,-3.573,2.305,0.534
3.700,0.285,0.187,0.840,-3.588,2.427,0.779
3.700,0.291,0.180,0.854,-3.450,2.947,0.840
3.710,0.298,0.187,0.854,-3.466,3.344,0.718
3.710,0.291,0.189,0.858,-3.023,3.740,0.870
3.710,0.293,0.186,0.846,-3.191,3.679,0.809
3.720,0.287,0.193,0.846,-3.053,2.855,0.870
3.720,0.284,0.189,0.851,-3.038,1.771,1.084
3.730,0.292,0.189,0.841,-3.008,0.885,0.931
3.730,0.293,0.196,0.843,-3.359,0.824,0.748
3.730,0.299,0.198,0.831,-3.313,0.885,0.519
3.740,0.295,0.193,0.831,-3.817,0.687,0.534
3.740,0.296,0.198,0.824,-3.908,0.382,0.550
3.740,0.295,0.200,0.830,-4.275,0.443,0.489
3.750,0.305,0.198,0.831,-4.504,0.305,0.351
3.750,0.314,0.198,0.840,-4.794,-0.076,-0.092
3.760,0.314,0.198,0.832,-4.992,-0.580,-0.626
3.760,0.311,0.191,0.836,-4.931,-0.885,-0.931
3.760,0.314,0.193,0.848,-5.115,-1.023,-1.344
3.770,0.305,0.187,0.855,-5.038,-1.282,-1.420
3.770,0.306,0.190,0.853,-4.733,-1.374,-1.618
3.780,0.307,0.191,0.855,-4.626,-1.466,-1.649
3.780,0.303,0.192,0.848,-4.718,-1.618,-1.863
3.780,0.295,0.188,0.849,-5.069,-2.168,-1.802
3.790,0.298,0.187,0.841,-5.450,-2.244,-2.046
3.790,0.297,0.189,0.844,-5.450,-2.321,-2.260
3.800,0.294,0.179,0.852,-5.328,-2.794,-2.244
3.800,0.293,0.187,0.863,-4.977,-3.695,-2.260
3.800,0.291,0.182,0.870,-4.397,-4.137,-2.198
3.810,0.300,0.178,0.879,-3.588,-3.344,-1.924
3.810,0.292,0.181,0.881,-2.779,-1.924,-2.000
3.820,0.286,0.177,0.875,-2.015,-0.458,-1.695
3.820,0.293,0.177,0.870,-1.282,0.641,-1.695
3.820,0.282,0.178,0.861,-0.840,2.336,-1.573
3.830,0.277,0.178,0.854,-0.427,4.031,-1.099
3.830,0.278,0.188,0.842,-0.183,5.145,-1.099
3.840,0.270,0.182,0.846,-0.275,5.450,-0.916
3.840,0.273,0.195,0.838,-0.794,5.237,-0.733
3.840,0.275,0.185,0.831,-1.053,5.191,-0.931
3.850,0.277,0.182,0.826,-1.359,4.000,-0.962
3.850,0.274,0.193,0.832,-1.710,2.168,-1.160
3.860,0.276,0.188,0.830,-2.351,1.084,-1.328
3.860,0.276,0.191,0.838,-2.763,0.107,-1.466
3.860,0.277,0.189,0.849,-3.008,-0.565,-1.802
3.870,0.274,0.183,0.844,-3.542,-1.511,-1.954
3.870,0.271,0.187,0.844,-3.969,-2.092,-1.954
3.880,0.264,0.188,0.851,-4.427,-2.718,-1.649
3.880,0.269,0.185,0.851,-4.443,-2.962,-1.298
3.880,0.272,0.186,0.860,-4.458,-3.023,-1.023
3.890,0.272,0.187,0.857,-4.687,-2.656,-0.550
3.890,0.281,0.188,0.867,-4.046,-1.725,-0.595
3.900,0.279,0.185,0.875,-3.420,-1.191,-0.107
3.900,0.281,0.187,0.887,-2.458,0.031,-0.122
3.900,0.274,0.187,0.873,-1.191,1.603,0.107
3.910,0.277,0.193,0.869,-0.427,2.046,0.321
3.910,0.278,0.195,0.867,-0.031,1.649,0.305
3.910,0.279,0.198,0.863,0.718,1.802,0.183
3.920,0.278,0.200,0.861,1.038,1.237,0.321
3.920,0.280,0.204,0.846,0.931,1.450,0.427
3.930,0.286,0.199,0.835,0.840,1.679,0.580
3.930,0.280,0.208,0.819,0.260,0.947,0.443
3.930,0.281,0.211,0.818,-0.305,0.321,0.580
3.940,0.289,0.210,0.819,-1.267,0.015,0.366
3.940,0.294,0.213,0.829,-1.740,0.076,0.382
3.940,0.294,0.203,0.822,-2.153,-0.458,0.183
3.950,0.292,0.204,0.830,-2.779,-0.763,0.168
3.950,0.285,0.205,0.833,-2.763,-1.939,-0.122
3.960,0.289,0.204,0.839,-2.565,-3.710,-0.580
3.960,0.308,0.202,0.851,-2.397,-5.053,-1.023
3.960,0.316,0.195,0.869,-1.802,-4.489,-1.832
3.970,0.318,0.190,0.872,-0.824,-4.458,-2.305
3.970,0.312,0.188,0.877,-0.076,-4.260,-2.779
3.980,0.308,0.186,0.884,0.611,-3.649,-2.916
3.980,0.305,0.193,0.869,1.267,-3.450,-3.145
3.980,0.293,0.189,0.877,1.802,-3.099,-2.947
3.990,0.286,0.186,0.874,2.153,-2.794,-2.687
3.990,0.281,0.193,0.862,2.153,-2.336,-2.351
4.000,0.277,0.199,0.855,2.290,-1.313,-2.076
4.000,0.286,0.195,0.861,1.939,-0.397,-1.817
4.000,0.286,0.198,0.849,1.481,0.672,-1.740
4.010,0.289,0.195,0.852,0.870,1.511,-1.740
4.010,0.285,0.186,0.845,0.672,2.656,-1.328
4.020,0.278,0.189,0.852,0.824,3.069,-1.374
4.020,0.264,0.182,0.854,0.809,3.130,-1.267
