Time,acce_x,acce_y,acce_z,gyro_x,gyro_y,gyro_z
0.000,0.265,0.197,0.834,0.031,1.267,1.542
0.000,0.271,0.203,0.843,0.000,1.328,1.664
0.010,0.280,0.202,0.839,-0.076,1.710,1.450
0.010,0.281,0.205,0.842,-0.076,1.664,1.527
0.010,0.285,0.208,0.845,0.061,1.756,1.145
0.020,0.286,0.206,0.839,0.366,1.863,1.130
0.020,0.287,0.206,0.845,0.321,2.122,0.885
0.020,0.289,0.205,0.838,0.275,2.076,0.885
0.030,0.283,0.205,0.835,0.595,2.214,0.672
0.030,0.275,0.204,0.834,0.992,2.107,0.565
0.030,0.278,0.209,0.824,0.870,1.954,0.473
0.040,0.272,0.218,0.826,0.840,1.511,0.489
0.040,0.274,0.216,0.829,0.779,1.588,0.641
0.040,0.273,0.209,0.828,0.824,1.542,0.550
0.050,0.271,0.205,0.827,0.656,1.344,0.534
0.050,0.264,0.211,0.826,0.534,0.702,0.519
0.050,0.266,0.212,0.812,0.061,0.305,0.702
0.060,0.267,0.209,0.821,-0.229,-0.214,0.656
0.060,0.261,0.213,0.821,-0.321,0.031,0.794
0.060,0.262,0.208,0.844,-0.473,0.244,0.763
0.070,0.256,0.201,0.842,-0.458,0.214,1.145
0.070,0.253,0.200,0.839,-0.366,0.321,1.496
0.070,0.251,0.198,0.840,-0.137,0.702,1.817
0.080,0.261,0.197,0.851,-0.214,0.809,2.214
0.080,0.264,0.197,0.842,0.031,1.191,2.427
0.090,0.267,0.198,0.842,0.198,1.573,2.534
0.090,0.270,0.192,0.852,0.229,1.282,2.305
0.090,0.277,0.200,0.849,0.107,0.473,2.382
0.100,0.285,0.198,0.852,-0.061,0.443,1.969
0.100,0.279,0.200,0.852,0.107,0.718,1.817
0.100,0.284,0.192,0.853,0.061,1.115,1.802
0.110,0.277,0.190,0.854,0.214,1.130,1.542
0.110,0.279,0.193,0.844,0.382,1.282,1.664
0.120,0.275,0.194,0.838,0.473,1.802,1.802
0.120,0.277,0.197,0.845,0.336,2.092,1.924
0.120,0.274,0.207,0.832,0.626,2.122,2.000
0.130,0.270,0.201,0.825,0.580,2.214,2.107
0.130,0.275,0.207,0.836,0.321,2.519,2.214
0.130,0.270,0.205,0.831,-0.031,3.130,2.198
0.140,0.281,0.200,0.825,-0.183,3.649,2.504
0.140,0.279,0.205,0.821,-0.412,3.756,2.641
0.150,0.274,0.207,0.817,-0.748,3.496,2.672
0.150,0.279,0.205,0.828,-1.008,3.282,2.504
0.150,0.270,0.203,0.823,-0.947,3.130,2.534
0.160,0.273,0.207,0.818,-0.947,2.687,2.687
0.160,0.276,0.206,0.826,-1.038,1.863,2.458
0.160,0.286,0.204,0.824,-1.115,1.099,2.290
0.170,0.284,0.204,0.838,-1.298,0.901,2.336
0.170,0.290,0.197,0.831,-1.450,1.053,2.000
0.180,0.288,0.197,0.834,-1.084,0.809,1.908
0.180,0.291,0.198,0.828,-1.160,0.794,1.817
0.180,0.289,0.198,0.836,-1.099,0.290,1.985
0.190,0.281,0.204,0.829,-1.206,-0.397,1.817
0.190,0.289,0.203,0.836,-1.084,-0.687,1.740
0.200,0.297,0.194,0.837,-1.435,-0.198,1.634
0.200,0.306,0.197,0.843,-1.420,0.473,1.588
0.200,0.311,0.199,0.836,-1.450,0.763,1.527
0.210,0.300,0.193,0.834,-1.603,1.023,1.282
0.210,0.296,0.192,0.836,-1.664,1.160,1.008
0.210,0.292,0.188,0.837,-1.786,1.206,0.840
0.220,0.299,0.193,0.844,-1.527,0.840,0.794
0.220,0.295,0.195,0.835,-1.634,0.351,0.702
0.230,0.293,0.198,0.853,-1.710,0.198,0.443
0.230,0.293,0.191,0.852,-1.282,0.931,0.412
0.230,0.292,0.195,0.848,-0.824,1.115,0.336
0.240,0.287,0.190,0.854,-0.718,0.733,0.229
0.240,0.282,0.195,0.841,-0.519,0.336,0.351
0.250,0.282,0.197,0.838,-0.351,0.336,0.183
0.250,0.296,0.196,0.839,-0.412,0.473,0.168
0.250,0.294,0.193,0.849,-0.412,1.023,-0.046
0.260,0.292,0.194,0.847,-0.473,0.916,-0.015
0.260,0.290,0.193,0.845,-0.565,0.718,-0.321
0.260,0.297,0.190,0.845,-0.702,0.718,-0.153
0.270,0.293,0.196,0.856,-0.427,0.870,-0.565
0.270,0.294,0.195,0.847,-0.412,1.344,-0.534
0.280,0.291,0.199,0.850,-0.351,1.450,-0.641
0.280,0.287,0.200,0.846,-0.290,1.664,-0.763
0.280,0.283,0.197,0.838,-0.290,1.282,-0.916
0.290,0.291,0.209,0.837,-0.244,1.573,-0.885
0.290,0.289,0.205,0.833,-0.260,2.061,-0.794
0.300,0.283,0.208,0.834,-0.137,2.244,-0.763
0.300,0.276,0.211,0.833,-0.137,2.275,-0.580
0.300,0.279,0.204,0.824,-0.198,1.878,-0.916
0.310,0.282,0.212,0.824,-0.473,1.450,-0.779
0.310,0.280,0.208,0.822,-0.763,1.695,-0.824
0.320,0.278,0.209,0.827,-1.130,1.786,-0.870
0.320,0.277,0.216,0.821,-1.328,1.420,-0.656
0.320,0.274,0.209,0.819,-1.511,1.038,-0.718
0.330,0.271,0.205,0.818,-1.740,0.092,-0.519
0.330,0.274,0.207,0.818,-1.817,-0.794,-0.656
0.330,0.267,0.209,0.823,-1.954,-1.450,-0.443
0.340,0.275,0.207,0.827,-2.168,-1.588,-0.626
0.340,0.283,0.204,0.846,-1.863,-1.206,-0.534
0.350,0.284,0.210,0.837,-1.389,-0.672,-0.718
0.350,0.280,0.206,0.834,-1.374,-1.221,-0.840
0.350,0.284,0.208,0.821,-1.420,-1.344,-0.794
0.360,0.288,0.207,0.827,-1.878,-1.145,-0.962
0.360,0.290,0.201,0.823,-1.893,-0.550,-1.344
0.370,0.284,0.210,0.824,-1.863,-0.489,-1.420
0.370,0.280,0.206,0.817,-2.519,-0.733,-1.466
0.370,0.281,0.210,0.828,-2.641,-0.824,-1.389
0.380,0.274,0.209,0.819,-2.809,-1.008,-1.313
0.380,0.268,0.208,0.821,-2.809,-1.084,-1.237
0.390,0.265,0.212,0.822,-3.191,-0.870,-1.282
0.390,0.267,0.211,0.829,-3.130,-0.641,-0.992
0.390,0.276,0.210,0.826,-3.038,-0.534,-0.901
0.400,0.270,0.215,0.821,-3.038,0.122,-0.656
0.400,0.270,0.211,0.821,-3.084,0.443,-0.504
0.410,0.265,0.211,0.824,-3.176,0.611,-0.198
0.410,0.261,0.213,0.812,-3.298,0.382,-0.031
0.410,0.262,0.217,0.806,-3.695,0.198,0.214
0.420,0.273,0.212,0.812,-3.985,0.168,0.366
0.420,0.275,0.218,0.811,-4.382,0.076,0.458
0.430,0.271,0.216,0.801,-4.870,-0.061,0.519
0.430,0.273,0.217,0.803,-5.160,-0.489,0.641
0.430,0.272,0.211,0.796,-5.603,-1.069,0.550
0.440,0.273,0.217,0.807,-5.893,-0.977,0.748
0.440,0.275,0.211,0.813,-6.046,-0.748,1.023
0.450,0.286,0.213,0.791,-6.305,-0.550,0.931
0.450,0.288,0.215,0.794,-6.443,-0.687,0.855
0.450,0.282,0.208,0.798,-6.534,-0.672,0.779
0.460,0.292,0.216,0.801,-6.641,-0.733,0.443
0.460,0.298,0.220,0.795,-6.794,-0.290,0.275
0.460,0.293,0.219,0.796,-7.008,-0.443,-0.031
0.470,0.293,0.210,0.787,-7.481,-1.038,-0.092
0.470,0.298,0.212,0.792,-7.725,-0.901,-0.229
0.480,0.301,0.207,0.787,-7.969,-0.565,-0.534
0.480,0.295,0.212,0.787,-8.305,-0.977,-0.641
0.480,0.285,0.211,0.789,-8.641,-1.466,-0.702
0.490,0.288,0.206,0.777,-9.084,-1.573,-0.931
0.490,0.296,0.211,0.779,-9.328,-1.328,-1.115
0.500,0.295,0.202,0.777,-9.649,-0.931,-1.282
0.500,0.297,0.206,0.777,-10.244,-0.427,-1.420
0.500,0.293,0.207,0.773,-10.489,-0.214,-1.420
0.510,0.281,0.205,0.757,-11.008,-0.366,-1.679
0.510,0.281,0.206,0.750,-11.435,-0.733,-1.725
0.520,0.280,0.213,0.745,-11.908,-1.374,-1.679
0.520,0.284,0.209,0.732,-12.595,-1.145,-1.557
0.530,0.275,0.210,0.718,-13.008,-0.763,-1.557
0.530,0.276,0.205,0.718,-13.588,-0.580,-1.450
0.530,0.282,0.205,0.703,-14.229,-0.809,-1.282
0.540,0.284,0.209,0.702,-14.840,-0.290,-1.145
0.540,0.286,0.212,0.692,-15.420,0.473,-1.282
0.550,0.291,0.210,0.689,-15.954,0.763,-1.053
0.550,0.293,0.213,0.688,-16.702,1.420,-0.992
0.550,0.299,0.219,0.672,-17.405,2.076,-0.947
0.560,0.303,0.217,0.651,-18.702,2.947,-0.687
0.560,0.305,0.221,0.639,-19.679,4.000,-0.901
0.570,0.302,0.220,0.629,-20.733,4.840,-1.191
0.570,0.313,0.224,0.610,-22.107,5.115,-1.282
0.570,0.291,0.228,0.580,-23.878,3.878,-1.664
0.580,0.274,0.228,0.558,-26.351,0.931,-2.214
0.580,0.255,0.224,0.533,-28.397,-3.939,-3.069
0.590,0.243,0.221,0.531,-30.504,-9.893,-3.863
0.590,0.214,0.216,0.529,-32.290,-17.298,-4.611
0.590,0.194,0.208,0.530,-33.725,-26.931,-5.145
0.600,0.198,0.202,0.545,-34.305,-36.458,-5.664
0.600,0.208,0.195,0.547,-34.229,-44.061,-5.954
0.610,0.229,0.182,0.535,-34.321,-49.099,-5.969
0.610,0.232,0.179,0.532,-34.107,-54.168,-6.153
0.610,0.253,0.175,0.531,-33.847,-59.603,-6.137
0.620,0.274,0.174,0.522,-33.969,-63.298,-6.443
0.620,0.301,0.172,0.513,-34.763,-65.160,-6.885
0.630,0.330,0.173,0.503,-36.260,-65.282,-6.947
0.630,0.349,0.162,0.495,-38.748,-62.931,-7.008
0.640,0.365,0.173,0.506,-42.321,-57.573,-5.511
0.640,0.357,0.170,0.511,-45.679,-49.939,-3.756
0.640,0.366,0.156,0.521,-48.885,-41.771,-1.710
0.650,0.384,0.151,0.521,-51.725,-34.015,-0.107
0.650,0.383,0.144,0.520,-55.695,-25.817,1.374
0.660,0.391,0.147,0.521,-59.802,-18.198,2.992
0.660,0.394,0.139,0.523,-64.198,-10.382,3.389
0.660,0.405,0.126,0.554,-68.107,-3.832,4.031
0.670,0.399,0.119,0.561,-71.847,0.962,4.595
0.670,0.391,0.104,0.565,-75.466,4.137,3.847
0.680,0.381,0.096,0.607,-78.412,4.626,3.160
0.680,0.363,0.081,0.619,-80.595,2.885,2.229
0.680,0.342,0.070,0.650,-81.847,0.275,1.924
0.690,0.335,0.042,0.693,-82.015,-2.244,0.443
0.690,0.319,0.026,0.719,-81.466,-6.366,0.458
0.700,0.279,0.006,0.765,-79.969,-11.084,-0.122
0.700,0.237,-0.006,0.783,-77.802,-16.947,0.748
0.700,0.239,-0.021,0.802,-75.359,-21.618,0.702
0.710,0.228,-0.026,0.812,-72.305,-25.740,1.267
0.710,0.225,-0.034,0.801,-69.603,-29.695,1.374
0.720,0.238,-0.035,0.776,-67.634,-31.679,1.298
0.720,0.230,-0.039,0.758,-66.748,-32.901,1.328
0.730,0.200,-0.053,0.745,-65.802,-35.344,1.527
0.730,0.179,-0.059,0.728,-65.985,-38.427,2.122
0.730,0.142,-0.066,0.697,-66.580,-41.221,4.489
0.740,0.122,-0.074,0.666,-69.374,-41.527,5.221
0.740,0.099,-0.081,0.649,-72.137,-41.420,7.588
0.750,0.084,-0.087,0.641,-75.817,-40.015,10.641
0.750,0.076,-0.104,0.635,-79.237,-36.656,13.069
0.750,0.050,-0.115,0.640,-82.779,-33.710,16.260
0.760,0.024,-0.116,0.661,-85.511,-30.916,20.122
0.760,-0.004,-0.147,0.668,-87.908,-29.267,23.771
0.770,-0.032,-0.161,0.681,-90.092,-29.603,28.061
0.770,-0.033,-0.169,0.700,-91.588,-32.198,31.679
0.780,-0.030,-0.189,0.728,-92.260,-35.679,34.992
0.780,-0.017,-0.197,0.730,-92.656,-39.786,38.229
0.780,0.006,-0.199,0.757,-93.176,-44.168,42.031
0.790,0.046,-0.204,0.781,-92.824,-47.649,46.015
0.790,0.099,-0.206,0.794,-92.244,-48.809,50.183
0.800,0.201,-0.200,0.819,-92.183,-48.153,53.069
0.800,0.289,-0.199,0.824,-91.664,-45.985,55.023
0.810,0.380,-0.195,0.831,-91.130,-42.916,55.466
0.810,0.501,-0.183,0.822,-91.389,-37.191,54.061
0.810,0.563,-0.168,0.783,-92.046,-29.023,51.832
0.820,0.587,-0.168,0.765,-91.878,-25.725,48.427
0.820,0.646,-0.143,0.731,-94.519,-20.733,44.702
0.830,0.659,-0.138,0.684,-96.947,-13.267,41.252
0.830,0.657,-0.142,0.676,-99.298,-9.221,37.481
0.840,0.656,-0.139,0.667,-101.847,-6.458,33.298
0.840,0.642,-0.136,0.634,-104.489,-4.779,28.947
0.840,0.613,-0.141,0.625,-107.115,-6.107,24.763
0.850,0.578,-0.149,0.617,-109.221,-9.817,21.176
0.850,0.542,-0.162,0.607,-109.924,-13.008,18.168
0.860,0.506,-0.188,0.622,-110.321,-16.626,15.176
0.860,0.448,-0.196,0.610,-110.779,-20.962,13.481
0.870,0.393,-0.222,0.619,-109.282,-28.611,12.443
0.870,0.375,-0.236,0.603,-109.267,-32.244,12.595
0.870,0.336,-0.240,0.591,-109.450,-32.412,14.290
0.880,0.303,-0.259,0.580,-108.977,-32.290,17.145
0.880,0.264,-0.272,0.555,-108.977,-31.130,21.389
0.890,0.270,-0.279,0.545,-110.076,-27.985,26.168
0.890,0.303,-0.278,0.516,-112.458,-22.153,30.916
0.900,0.355,-0.280,0.489,-115.832,-15.237,35.145
0.900,0.400,-0.279,0.489,-119.939,-7.740,38.748
0.900,0.465,-0.281,0.471,-124.947,1.405,42.427
0.910,0.514,-0.285,0.449,-130.412,10.031,44.748
0.910,0.569,-0.293,0.445,-136.275,17.847,45.863
0.920,0.630,-0.305,0.447,-142.000,24.076,44.947
0.920,0.694,-0.316,0.467,-146.550,28.504,42.733
0.930,0.747,-0.332,0.489,-150.565,33.237,39.099
0.930,0.790,-0.343,0.500,-153.740,37.939,34.107
0.930,0.814,-0.362,0.515,-155.649,40.595,27.573
0.940,0.796,-0.380,0.537,-156.473,40.382,21.496
0.940,0.770,-0.395,0.527,-156.733,38.779,15.420
0.950,0.725,-0.417,0.526,-156.519,34.214,9.466
0.950,0.689,-0.440,0.529,-157.359,31.359,4.779
0.960,0.651,-0.436,0.515,-159.985,31.023,2.168
0.960,0.547,-0.475,0.525,-158.931,25.679,0.702
0.960,0.447,-0.502,0.568,-157.023,15.267,1.023
0.970,0.433,-0.523,0.572,-153.389,6.794,0.901
0.970,0.465,-0.520,0.521,-155.527,7.313,1.664
0.980,0.473,-0.531,0.449,-158.351,12.901,2.519
0.980,0.427,-0.561,0.471,-159.924,15.160,3.573
0.980,0.383,-0.601,0.477,-160.885,16.504,5.145
0.990,0.364,-0.620,0.462,-162.824,19.618,6.809
0.990,0.338,-0.640,0.442,-166.061,23.176,8.870
1.000,0.301,-0.668,0.443,-169.511,27.252,11.740
1.000,0.258,-0.707,0.477,-172.427,32.763,15.710
1.010,0.236,-0.727,0.490,-175.130,38.595,20.046
1.010,0.227,-0.752,0.496,-177.206,42.992,23.450
1.010,0.232,-0.777,0.514,-178.733,46.580,26.076
1.020,0.240,-0.797,0.519,-180.153,52.107,28.504
1.020,0.249,-0.808,0.523,-182.122,58.595,31.450
1.030,0.262,-0.832,0.524,-184.382,66.412,33.008
1.030,0.279,-0.843,0.531,-185.939,72.611,34.260
1.040,0.303,-0.861,0.560,-186.198,78.427,34.107
1.040,0.323,-0.873,0.576,-185.389,81.695,32.809
1.040,0.316,-0.885,0.588,-183.817,81.588,31.267
1.050,0.332,-0.914,0.591,-182.382,81.282,27.954
1.050,0.365,-0.898,0.553,-183.939,83.008,25.603
1.060,0.368,-0.926,0.519,-184.260,80.641,21.252
1.060,0.376,-0.918,0.520,-186.427,76.672,16.718
1.060,0.383,-0.935,0.497,-187.221,74.290,12.260
1.070,0.369,-0.948,0.521,-187.221,70.626,7.420
1.070,0.386,-0.955,0.516,-185.634,69.756,3.573
1.080,0.262,-1.002,0.511,-186.443,55.786,0.611
1.080,0.120,-1.019,0.499,-187.084,34.000,0.550
1.090,0.109,-1.053,0.551,-185.908,22.565,3.359
1.090,0.108,-1.078,0.610,-182.794,16.977,7.160
1.090,0.097,-1.097,0.650,-179.176,9.527,11.847
1.100,0.100,-1.111,0.659,-176.366,3.832,16.092
1.100,0.163,-1.120,0.676,-174.092,2.046,20.137
1.110,0.237,-1.129,0.693,-171.084,4.122,22.931
1.110,0.310,-1.145,0.700,-168.031,8.992,22.992
1.120,0.364,-1.143,0.692,-165.954,16.626,22.183
1.120,0.418,-1.138,0.686,-164.031,25.344,19.985
1.120,0.431,-1.150,0.685,-161.695,34.962,17.206
1.130,0.425,-1.165,0.674,-159.038,43.115,14.000
1.130,0.390,-1.170,0.653,-156.947,49.679,10.840
1.140,0.354,-1.181,0.637,-154.840,54.153,8.519
1.140,0.314,-1.185,0.617,-152.718,57.450,6.534
1.140,0.278,-1.189,0.594,-150.427,59.481,4.702
1.150,0.239,-1.195,0.572,-148.656,59.725,3.435
1.150,0.209,-1.198,0.527,-147.389,58.534,2.137
1.160,0.188,-1.198,0.510,-146.458,56.504,0.763
1.160,0.156,-1.199,0.485,-145.756,51.618,-0.580
1.170,0.115,-1.192,0.448,-146.122,45.313,-1.344
1.170,0.107,-1.187,0.429,-147.313,38.611,-1.847
1.170,0.104,-1.187,0.408,-148.366,31.527,-3.237
1.180,0.108,-1.196,0.398,-149.344,23.969,-5.115
1.180,0.085,-1.197,0.408,-149.069,15.405,-6.641
1.190,0.043,-1.212,0.423,-145.786,0.107,-8.244
1.190,0.095,-1.201,0.401,-147.252,-1.878,-9.771
1.200,0.068,-1.173,0.331,-148.153,-6.397,-9.573
1.200,-0.004,-1.196,0.390,-146.107,-21.099,-9.939
1.200,0.007,-1.198,0.363,-144.321,-32.321,-9.282
1.210,0.006,-1.195,0.327,-143.786,-38.168,-7.359
1.210,-0.007,-1.198,0.321,-142.794,-47.603,-5.542
1.220,0.012,-1.207,0.355,-141.542,-57.313,-3.542
1.220,0.052,-1.206,0.371,-139.649,-63.176,-1.450
1.230,0.096,-1.205,0.383,-138.489,-66.122,1.618
1.230,0.132,-1.200,0.409,-138.061,-67.710,4.901
1.230,0.199,-1.204,0.434,-137.252,-66.916,7.252
1.240,0.300,-1.212,0.480,-135.084,-63.603,8.168
1.240,0.370,-1.207,0.526,-131.038,-59.664,8.550
1.250,0.410,-1.228,0.605,-125.053,-53.328,6.076
1.250,0.496,-1.167,0.520,-123.588,-38.702,6.000
1.260,0.441,-1.170,0.543,-119.405,-31.405,4.733
1.260,0.427,-1.167,0.547,-114.290,-26.031,3.969
1.260,0.418,-1.147,0.474,-110.443,-16.885,3.802
1.270,0.382,-1.135,0.418,-107.969,-9.145,3.634
1.270,0.321,-1.122,0.373,-106.092,-5.008,4.092
1.280,0.296,-1.119,0.330,-104.321,-1.511,5.008
1.280,0.253,-1.106,0.281,-104.153,1.634,6.031
1.280,0.243,-1.095,0.229,-104.870,3.511,6.687
1.290,0.232,-1.088,0.206,-105.588,3.863,6.351
1.290,0.209,-1.096,0.165,-106.489,2.351,6.122
1.300,0.182,-1.092,0.131,-107.832,-0.656,6.031
1.300,0.157,-1.095,0.094,-110.046,-5.221,6.290
1.310,0.143,-1.090,0.068,-112.366,-10.214,6.168
1.310,0.145,-1.089,0.054,-114.687,-17.817,5.573
1.310,0.115,-1.094,0.051,-114.260,-31.863,4.534
1.320,0.161,-1.093,0.011,-117.725,-37.115,3.481
1.320,0.151,-1.089,-0.038,-122.122,-42.565,3.237
1.330,0.127,-1.112,0.031,-123.802,-55.786,2.534
1.330,0.177,-1.112,0.049,-124.611,-62.351,2.046
1.340,0.210,-1.116,0.058,-125.145,-64.718,1.405
1.340,0.210,-1.124,0.095,-124.076,-68.534,0.672
1.340,0.227,-1.135,0.142,-121.206,-72.290,-0.107
1.350,0.249,-1.142,0.171,-117.527,-73.634,-0.840
1.350,0.263,-1.139,0.182,-112.824,-73.069,-1.313
1.360,0.252,-1.143,0.215,-107.908,-72.076,-1.038
1.360,0.244,-1.143,0.216,-102.366,-70.992,-0.412
1.370,0.234,-1.141,0.215,-97.817,-69.481,1.099
1.370,0.222,-1.128,0.182,-93.908,-66.901,2.870
1.370,0.220,-1.125,0.156,-90.565,-64.076,4.748
1.380,0.215,-1.126,0.134,-88.321,-62.366,7.023
1.380,0.201,-1.118,0.110,-86.107,-61.603,8.870
1.390,0.246,-1.108,0.071,-86.275,-57.115,10.183
1.390,0.266,-1.111,0.028,-87.420,-52.534,11.786
1.390,0.276,-1.100,0.069,-87.282,-49.542,12.794
1.400,0.281,-1.108,0.077,-85.359,-43.344,13.908
1.400,0.279,-1.109,0.074,-83.542,-39.267,14.916
1.410,0.273,-1.113,0.065,-81.939,-37.847,15.817
1.410,0.267,-1.105,0.052,-80.580,-36.656,16.198
1.420,0.276,-1.110,0.050,-79.298,-34.718,16.611
1.420,0.276,-1.112,0.054,-77.786,-33.053,16.977
1.420,0.273,-1.101,0.038,-76.656,-33.206,16.550
1.430,0.273,-1.106,0.019,-76.229,-34.763,16.489
1.430,0.280,-1.102,0.025,-75.634,-35.466,16.351
1.440,0.308,-1.097,0.047,-74.412,-34.427,15.908
1.440,0.313,-1.105,0.060,-72.321,-33.649,15.145
1.450,0.302,-1.102,0.052,-70.214,-34.962,14.382
1.450,0.291,-1.105,0.056,-67.939,-35.695,14.015
1.450,0.288,-1.095,0.049,-65.908,-35.084,14.672
1.460,0.285,-1.103,0.031,-64.031,-34.351,15.344
1.460,0.302,-1.093,0.050,-61.985,-32.000,16.351
1.470,0.329,-1.083,0.059,-59.802,-27.298,16.977
1.470,0.339,-1.089,0.066,-56.855,-22.076,16.916
1.480,0.359,-1.086,0.073,-53.939,-18.366,16.595
1.480,0.347,-1.083,0.068,-50.748,-14.519,16.366
1.480,0.343,-1.086,0.057,-47.802,-9.603,16.229
1.490,0.333,-1.079,0.021,-45.405,-6.504,16.076
1.490,0.309,-1.068,-0.011,-43.511,-6.305,15.786
1.500,0.305,-1.073,-0.030,-42.260,-7.511,15.038
1.500,0.326,-1.061,-0.041,-41.832,-6.901,14.092
1.510,0.328,-1.068,-0.044,-40.382,-5.634,12.962
1.510,0.315,-1.073,-0.049,-39.344,-5.160,12.198
1.510,0.317,-1.066,-0.065,-38.244,-5.282,11.237
1.520,0.289,-1.069,-0.086,-37.221,-8.733,10.214
1.520,0.281,-1.065,-0.098,-37.527,-10.840,9.573
1.530,0.308,-1.069,-0.098,-37.130,-8.931,9.008
1.530,0.311,-1.071,-0.085,-35.023,-9.130,7.573
1.530,0.283,-1.075,-0.083,-34.229,-12.321,6.351
1.540,0.300,-1.073,-0.082,-34.275,-11.038,5.725
1.540,0.291,-1.079,-0.079,-31.481,-10.901,4.611
1.550,0.262,-1.070,-0.074,-30.489,-13.527,4.015
1.550,0.249,-1.071,-0.113,-29.924,-14.305,3.985
1.560,0.235,-1.069,-0.128,-29.252,-14.122,4.015
1.560,0.230,-1.073,-0.124,-29.496,-16.061,4.321
1.560,0.242,-1.062,-0.133,-29.099,-17.053,3.954
1.570,0.246,-1.064,-0.131,-28.901,-16.275,3.924
1.570,0.243,-1.067,-0.128,-27.939,-14.397,3.832
1.580,0.230,-1.066,-0.120,-26.519,-12.916,4.214
1.580,0.210,-1.061,-0.118,-24.672,-12.840,5.008
1.590,0.195,-1.062,-0.132,-23.511,-12.565,6.092
1.590,0.191,-1.061,-0.135,-22.656,-12.473,7.420
1.590,0.210,-1.055,-0.150,-20.992,-11.405,8.214
1.600,0.213,-1.052,-0.160,-20.397,-11.740,8.718
1.600,0.226,-1.050,-0.170,-19.756,-10.794,9.008
1.610,0.233,-1.051,-0.171,-19.435,-9.359,9.069
1.610,0.245,-1.058,-0.174,-19.237,-8.534,8.931
1.620,0.262,-1.052,-0.178,-19.069,-7.038,8.550
1.620,0.257,-1.047,-0.164,-18.275,-5.832,8.244
1.620,0.245,-1.049,-0.170,-17.053,-6.489,7.817
1.630,0.245,-1.047,-0.169,-16.229,-7.695,7.267
1.630,0.256,-1.052,-0.177,-15.511,-6.885,6.794
1.640,0.256,-1.044,-0.186,-14.229,-7.069,6.366
1.640,0.248,-1.039,-0.188,-14.321,-8.290,5.985
1.640,0.253,-1.034,-0.201,-14.366,-8.046,5.298
1.650,0.253,-1.041,-0.199,-14.198,-8.153,4.656
1.650,0.248,-1.042,-0.199,-13.664,-8.962,4.137
1.660,0.240,-1.031,-0.203,-14.031,-9.450,3.725
1.660,0.243,-1.034,-0.204,-13.863,-9.954,3.191
1.670,0.237,-1.039,-0.190,-13.038,-10.183,2.824
1.670,0.235,-1.040,-0.199,-12.626,-10.763,2.656
1.670,0.224,-1.029,-0.210,-13.160,-11.756,2.702
1.680,0.227,-1.028,-0.212,-13.267,-12.076,2.534
1.680,0.242,-1.032,-0.195,-12.779,-11.115,2.412
1.690,0.253,-1.030,-0.185,-11.695,-10.061,2.031
1.690,0.233,-1.029,-0.177,-10.672,-9.939,1.985
1.700,0.237,-1.030,-0.175,-10.061,-10.076,1.924
1.700,0.240,-1.032,-0.178,-8.824,-9.588,1.954
1.700,0.237,-1.038,-0.181,-7.939,-9.542,1.954
1.710,0.229,-1.030,-0.193,-7.374,-9.313,2.229
1.710,0.232,-1.034,-0.203,-6.947,-9.191,2.565
1.720,0.247,-1.035,-0.192,-6.336,-8.366,2.244
1.720,0.256,-1.031,-0.171,-5.817,-7.298,1.802
1.720,0.265,-1.032,-0.172,-5.038,-6.504,1.053
1.730,0.259,-1.034,-0.176,-3.802,-6.321,0.427
1.730,0.245,-1.034,-0.185,-2.870,-6.489,-0.031
1.740,0.239,-1.032,-0.183,-2.580,-6.137,-0.092
1.740,0.244,-1.030,-0.188,-2.595,-4.885,-0.107
1.740,0.246,-1.032,-0.174,-1.817,-3.863,-0.229
1.750,0.250,-1.042,-0.156,-0.702,-2.458,-0.382
1.750,0.256,-1.043,-0.143,0.901,-1.359,-0.870
1.760,0.253,-1.043,-0.136,2.489,-0.015,-1.160
1.760,0.238,-1.051,-0.136,4.260,0.229,-1.435
1.760,0.238,-1.046,-0.135,5.710,-0.458,-1.603
1.770,0.245,-1.032,-0.138,6.382,-1.130,-2.366
1.770,0.248,-1.041,-0.137,7.893,-1.344,-3.267
1.780,0.249,-1.042,-0.129,9.695,-2.168,-4.229
1.780,0.235,-1.036,-0.146,11.008,-3.939,-5.267
1.790,0.226,-1.035,-0.144,12.153,-5.695,-6.137
1.790,0.216,-1.036,-0.169,12.763,-7.176,-6.366
1.790,0.214,-1.043,-0.164,13.802,-8.382,-7.008
1.800,0.220,-1.039,-0.155,14.489,-8.809,-7.176
1.800,0.228,-1.049,-0.151,15.511,-8.809,-7.481
1.810,0.223,-1.039,-0.148,16.641,-9.053,-7.649
1.810,0.229,-1.039,-0.139,17.817,-9.191,-8.168
1.810,0.239,-1.041,-0.138,19.053,-8.748,-8.427
1.820,0.236,-1.038,-0.140,20.092,-8.046,-8.885
1.820,0.241,-1.043,-0.122,21.359,-5.863,-8.962
1.830,0.258,-1.039,-0.120,23.298,-2.824,-9.267
1.830,0.265,-1.045,-0.107,25.450,-0.992,-9.863
1.840,0.252,-1.044,-0.116,27.130,-1.206,-10.198
1.840,0.261,-1.045,-0.117,28.290,-0.565,-9.908
1.840,0.284,-1.060,-0.079,29.527,1.359,-9.634
1.850,0.320,-1.078,-0.049,30.550,4.168,-9.511
1.850,0.364,-1.084,-0.004,31.771,7.313,-10.397
1.860,0.400,-1.097,0.043,34.046,9.099,-12.153
1.860,0.439,-1.109,0.101,36.992,11.542,-13.893
1.860,0.481,-1.112,0.155,40.351,15.679,-15.924
1.870,0.521,-1.094,0.176,43.466,20.489,-18.336
1.870,0.550,-1.101,0.212,49.115,25.618,-24.366
1.880,0.526,-1.126,0.233,57.771,30.168,-29.450
1.880,0.461,-1.144,0.234,67.130,34.122,-33.420
1.890,0.383,-1.154,0.189,75.328,36.962,-35.496
1.890,0.306,-1.164,0.141,81.573,36.977,-35.786
1.890,0.252,-1.174,0.102,86.092,36.443,-34.870
1.900,0.216,-1.195,0.073,91.496,32.122,-34.458
1.900,0.172,-1.197,-0.010,91.725,24.870,-33.679
1.910,0.150,-1.199,-0.051,88.061,16.794,-31.969
1.910,0.145,-1.215,-0.070,83.145,11.481,-29.603
1.910,0.200,-1.241,0.024,77.328,5.908,-27.191
1.920,0.254,-1.271,0.108,74.779,-2.412,-26.534
1.920,0.320,-1.304,0.227,73.481,-8.718,-26.214
1.930,0.415,-1.333,0.324,75.649,-11.924,-26.519
1.930,0.503,-1.351,0.438,78.305,-12.321,-27.282
1.940,0.560,-1.348,0.490,84.550,-10.733,-28.031
1.940,0.668,-1.348,0.539,94.443,6.992,-31.328
1.940,0.787,-1.325,0.588,100.977,35.038,-34.076
1.950,0.715,-1.370,0.614,118.947,49.786,-41.176
1.950,0.622,-1.366,0.610,135.069,52.290,-46.336
1.960,0.557,-1.366,0.540,148.305,53.237,-50.947
1.960,0.485,-1.355,0.413,158.992,52.641,-55.511
1.970,0.423,-1.335,0.341,165.084,46.962,-60.336
1.970,0.363,-1.337,0.285,169.389,37.893,-64.840
1.970,0.292,-1.342,0.228,171.832,26.840,-68.458
1.980,0.229,-1.340,0.207,172.382,12.855,-70.489
1.980,0.191,-1.350,0.234,174.397,-4.504,-72.214
1.990,0.187,-1.370,0.267,175.710,-20.565,-72.885
1.990,0.200,-1.378,0.261,175.939,-30.672,-71.954
2.000,0.250,-1.363,0.245,174.198,-36.473,-68.046
2.000,0.317,-1.400,0.337,176.244,-38.580,-66.931
2.000,0.418,-1.397,0.344,178.305,-31.206,-65.695
2.010,0.475,-1.400,0.336,179.802,-27.099,-65.466
2.010,0.472,-1.363,0.351,176.489,-27.130,-67.908
2.020,0.603,-1.363,0.286,178.992,-2.901,-70.794
2.020,0.588,-1.354,0.362,184.153,18.290,-74.489
2.030,0.513,-1.351,0.376,190.931,31.435,-75.863
2.030,0.427,-1.347,0.342,195.954,41.786,-77.298
2.030,0.330,-1.333,0.312,199.450,48.580,-78.137
2.040,0.239,-1.307,0.241,201.176,52.366,-77.786
2.040,0.145,-1.324,0.282,204.840,44.519,-77.191
2.050,0.053,-1.322,0.295,208.489,28.809,-74.931
2.050,-0.001,-1.316,0.279,211.847,11.237,-72.504
2.060,0.000,-1.295,0.256,212.000,-5.573,-69.038
2.060,-0.001,-1.276,0.231,210.611,-21.267,-65.725
2.060,0.022,-1.273,0.247,209.710,-37.115,-60.824
2.070,0.098,-1.256,0.271,207.634,-47.099,-54.977
2.070,0.187,-1.246,0.260,205.374,-49.527,-50.305
2.080,0.289,-1.220,0.286,203.191,-47.985,-47.664
2.080,0.412,-1.202,0.321,202.137,-42.672,-47.374
2.090,0.498,-1.184,0.339,202.504,-31.771,-48.626
2.090,0.577,-1.169,0.397,202.702,-17.374,-51.634
2.090,0.593,-1.144,0.400,204.718,-6.534,-54.443
2.100,0.551,-1.159,0.516,211.786,-3.649,-58.672
2.100,0.600,-1.146,0.488,217.649,3.588,-63.817
2.110,0.578,-1.108,0.500,223.191,10.244,-67.145
2.110,0.573,-1.120,0.535,231.832,11.176,-72.458
2.120,0.556,-1.106,0.580,240.473,8.351,-77.405
2.120,0.548,-1.097,0.561,247.221,4.977,-81.878
2.120,0.515,-1.093,0.549,253.313,0.855,-85.252
2.130,0.464,-1.074,0.519,254.916,-1.817,-85.771
2.130,0.367,-1.072,0.440,255.847,-7.954,-83.115
2.140,0.323,-1.054,0.420,255.802,-15.359,-79.771
2.140,0.322,-1.009,0.357,251.908,-19.542,-73.634
2.150,0.340,-0.979,0.312,245.389,-21.282,-66.641
2.150,0.355,-0.958,0.276,237.374,-21.802,-59.145
2.150,0.403,-0.911,0.267,226.840,-19.863,-52.382
2.160,0.464,-0.886,0.265,216.626,-15.710,-46.855
2.160,0.534,-0.867,0.272,206.809,-7.466,-42.962
2.170,0.604,-0.843,0.296,197.374,2.687,-40.534
2.170,0.650,-0.827,0.287,187.969,14.519,-39.252
2.180,0.691,-0.801,0.285,175.206,34.092,-38.153
2.180,0.603,-0.784,0.375,167.695,33.313,-37.740
2.180,0.622,-0.822,0.486,168.947,32.107,-40.321
2.190,0.646,-0.818,0.532,170.198,39.359,-42.183
2.190,0.647,-0.789,0.457,166.519,49.160,-42.290
2.200,0.580,-0.778,0.479,161.832,48.718,-42.763
2.200,0.533,-0.779,0.533,159.389,43.649,-42.718
2.200,0.529,-0.771,0.561,157.710,42.885,-41.389
2.210,0.528,-0.768,0.582,155.588,43.664,-39.618
2.210,0.509,-0.765,0.594,153.893,42.015,-37.710
2.220,0.494,-0.769,0.626,152.229,38.855,-36.015
2.220,0.491,-0.757,0.655,151.573,37.099,-34.107
2.230,0.509,-0.761,0.670,152.336,37.008,-32.641
2.230,0.520,-0.755,0.673,152.687,38.641,-31.557
2.230,0.513,-0.739,0.643,151.740,40.840,-29.985
2.240,0.505,-0.730,0.612,150.092,42.504,-28.443
2.240,0.501,-0.715,0.607,147.802,45.344,-27.160
2.250,0.504,-0.689,0.579,144.702,48.504,-25.802
2.250,0.484,-0.669,0.559,140.855,50.947,-24.672
2.260,0.469,-0.651,0.556,136.321,51.374,-23.756
2.260,0.434,-0.649,0.587,133.832,47.557,-23.084
2.260,0.457,-0.633,0.608,130.458,45.206,-22.504
2.270,0.460,-0.620,0.603,128.168,45.160,-22.366
2.270,0.449,-0.613,0.619,126.656,42.611,-22.122
2.280,0.448,-0.603,0.634,125.267,39.282,-22.000
2.280,0.458,-0.594,0.647,124.626,37.725,-21.924
2.290,0.469,-0.591,0.666,123.939,36.641,-21.908
2.290,0.485,-0.575,0.666,122.122,39.786,-22.000
2.290,0.473,-0.573,0.662,122.916,38.198,-21.389
2.300,0.470,-0.589,0.740,126.336,34.198,-22.214
2.300,0.509,-0.553,0.692,125.878,38.198,-22.229
2.310,0.488,-0.554,0.676,126.168,39.267,-21.924
2.310,0.457,-0.559,0.698,126.824,36.687,-22.076
2.320,0.480,-0.542,0.690,126.870,37.176,-22.229
2.320,0.483,-0.532,0.662,126.382,39.420,-21.954
2.320,0.466,-0.510,0.656,125.588,40.397,-21.557
2.330,0.460,-0.505,0.639,124.458,41.206,-20.733
2.330,0.462,-0.485,0.626,122.962,43.023,-19.924
2.340,0.448,-0.482,0.629,121.160,44.855,-19.389
2.340,0.446,-0.475,0.612,119.481,46.504,-18.870
2.350,0.443,-0.461,0.618,117.435,47.206,-18.687
2.350,0.433,-0.459,0.640,115.618,48.122,-18.321
2.350,0.432,-0.448,0.652,115.099,50.885,-17.252
2.360,0.421,-0.445,0.664,115.053,52.672,-16.473
2.360,0.404,-0.444,0.672,114.443,53.740,-15.130
2.370,0.381,-0.429,0.666,113.573,54.840,-13.359
2.370,0.400,-0.416,0.664,112.901,56.000,-12.580
2.380,0.398,-0.408,0.685,113.008,55.969,-12.397
2.380,0.406,-0.393,0.688,113.603,55.115,-12.382
2.380,0.398,-0.384,0.676,113.481,53.496,-12.443
2.390,0.389,-0.375,0.669,112.977,51.237,-12.641
2.390,0.377,-0.361,0.656,112.412,48.595,-12.687
2.400,0.363,-0.349,0.641,111.924,45.710,-12.718
2.400,0.337,-0.332,0.630,110.947,42.641,-12.198
2.400,0.324,-0.306,0.606,109.069,39.359,-11.069
2.410,0.328,-0.294,0.619,107.481,37.832,-9.649
2.410,0.336,-0.280,0.608,106.382,37.130,-8.611
2.420,0.327,-0.276,0.611,105.618,36.794,-7.313
2.420,0.327,-0.264,0.604,104.641,36.947,-5.756
2.430,0.316,-0.258,0.592,102.992,37.206,-4.122
2.430,0.328,-0.246,0.582,100.107,38.107,-2.153
2.430,0.341,-0.236,0.598,98.214,39.908,-0.992
2.440,0.350,-0.228,0.600,95.023,41.832,-0.473
2.440,0.365,-0.216,0.615,93.573,44.382,0.137
2.450,0.367,-0.199,0.608,90.626,47.282,0.656
2.450,0.364,-0.191,0.603,87.985,49.725,1.237
2.450,0.339,-0.173,0.597,85.695,51.588,1.756
2.460,0.342,-0.166,0.586,82.977,52.931,2.183
2.460,0.332,-0.161,0.607,80.565,54.595,2.916
2.470,0.316,-0.157,0.627,79.435,56.046,3.924
2.470,0.307,-0.154,0.652,79.496,56.855,5.267
2.470,0.315,-0.158,0.677,79.481,57.374,6.168
2.480,0.314,-0.147,0.683,79.832,57.969,6.611
2.480,0.329,-0.141,0.704,80.458,58.458,6.840
2.490,0.344,-0.130,0.721,80.748,59.176,6.718
2.490,0.360,-0.122,0.725,81.374,60.840,6.183
2.490,0.368,-0.115,0.716,81.679,62.458,5.252
2.500,0.357,-0.107,0.716,81.863,62.718,4.275
2.500,0.338,-0.094,0.716,81.893,62.153,3.557
2.510,0.306,-0.085,0.699,81.985,60.916,3.527
2.510,0.289,-0.080,0.695,81.053,59.084,3.206
2.510,0.276,-0.070,0.677,80.229,57.771,3.038
2.520,0.261,-0.068,0.662,79.221,55.878,2.947
2.520,0.245,-0.050,0.650,78.290,52.336,2.794
2.530,0.224,-0.044,0.638,76.489,47.160,2.473
2.530,0.212,-0.032,0.623,74.031,41.908,2.366
2.530,0.212,-0.018,0.603,71.634,38.153,2.550
2.540,0.208,-0.010,0.596,68.824,33.679,2.885
2.540,0.198,0.003,0.602,66.076,29.176,2.947
2.550,0.206,0.018,0.587,63.557,25.420,3.069
2.550,0.211,0.024,0.604,61.008,22.550,3.160
2.550,0.211,0.031,0.600,58.550,20.504,3.359
2.560,0.213,0.043,0.594,56.595,18.748,3.969
2.560,0.223,0.041,0.593,53.908,17.847,4.412
2.570,0.231,0.050,0.609,52.580,17.924,5.221
2.570,0.231,0.050,0.615,51.405,18.962,5.985
2.570,0.240,0.056,0.625,50.321,20.733,6.412
2.580,0.240,0.067,0.615,48.916,22.412,6.901
2.580,0.233,0.077,0.623,48.122,24.061,7.832
2.590,0.237,0.076,0.613,47.313,25.740,8.748
2.590,0.243,0.079,0.603,45.954,28.656,9.252
2.590,0.275,0.103,0.572,40.641,35.786,9.893
2.600,0.208,0.109,0.589,39.527,32.260,11.481
2.600,0.205,0.084,0.658,41.664,25.664,10.183
2.600,0.276,0.119,0.600,39.878,28.198,10.427
2.610,0.286,0.132,0.565,36.290,32.458,10.504
2.610,0.283,0.134,0.569,32.489,34.901,9.679
2.620,0.278,0.163,0.547,27.664,34.580,10.550
2.620,0.246,0.138,0.599,26.397,30.733,9.771
2.620,0.253,0.136,0.622,26.397,27.160,8.794
2.630,0.264,0.161,0.600,23.328,26.260,8.763
2.630,0.266,0.140,0.578,21.664,26.992,7.634
2.640,0.259,0.165,0.581,20.214,25.237,7.389
2.640,0.249,0.155,0.605,19.099,21.969,6.382
2.640,0.249,0.154,0.624,19.130,18.489,5.206
2.650,0.265,0.152,0.616,19.191,16.504,3.985
2.650,0.277,0.154,0.626,18.031,14.321,2.382
2.660,0.270,0.153,0.620,16.458,11.420,0.824
2.660,0.263,0.164,0.639,15.084,8.855,-0.595
2.660,0.272,0.161,0.641,14.489,8.397,-1.603
2.670,0.267,0.156,0.658,14.840,9.359,-2.595
2.670,0.249,0.157,0.672,14.565,8.626,-3.099
2.680,0.212,0.151,0.685,14.947,6.305,-3.435
2.680,0.209,0.161,0.688,14.824,5.664,-3.496
2.680,0.205,0.158,0.678,15.069,6.687,-3.176
2.690,0.197,0.164,0.704,15.466,7.389,-2.977
2.690,0.194,0.167,0.698,16.122,8.168,-2.580
2.690,0.182,0.174,0.705,16.809,8.641,-1.939
2.700,0.177,0.185,0.684,16.977,8.489,-0.977
2.700,0.158,0.192,0.679,17.389,8.305,0.244
2.710,0.154,0.193,0.666,17.527,8.412,2.092
2.710,0.152,0.197,0.660,17.099,8.580,3.496
2.710,0.178,0.209,0.642,16.290,9.450,4.595
2.720,0.187,0.202,0.647,15.328,10.840,5.511
2.720,0.194,0.205,0.647,14.153,11.664,5.908
2.730,0.214,0.207,0.640,12.458,12.443,6.214
2.730,0.220,0.217,0.645,10.962,13.649,6.336
2.730,0.218,0.215,0.631,9.008,14.977,6.153
2.740,0.221,0.216,0.629,6.718,16.733,6.000
2.740,0.235,0.236,0.603,1.588,21.878,6.183
2.750,0.193,0.232,0.617,0.305,18.733,7.008
2.750,0.184,0.212,0.659,-0.626,15.466,6.275
2.750,0.214,0.233,0.636,-3.038,16.061,6.275
2.760,0.209,0.229,0.627,-5.298,15.908,5.908
2.760,0.196,0.228,0.617,-6.687,13.099,5.099
2.760,0.188,0.237,0.625,-8.611,10.092,4.427
2.770,0.191,0.231,0.631,-10.534,8.473,4.260
2.770,0.187,0.232,0.647,-11.573,7.221,4.061
2.780,0.178,0.224,0.655,-12.366,6.198,4.031
2.780,0.176,0.210,0.677,-13.542,4.916,4.137
2.780,0.185,0.221,0.694,-14.656,3.450,4.015
2.790,0.175,0.202,0.720,-14.718,2.947,4.153
2.790,0.183,0.203,0.731,-14.855,2.336,4.244
2.800,0.175,0.193,0.745,-14.519,2.122,4.473
2.800,0.169,0.193,0.761,-13.969,2.168,4.992
2.800,0.164,0.184,0.779,-13.099,2.229,5.527
2.810,0.167,0.186,0.782,-12.397,2.443,6.092
2.810,0.159,0.190,0.780,-11.618,2.198,6.809
2.820,0.154,0.191,0.786,-10.809,1.725,7.542
2.820,0.148,0.196,0.781,-9.603,1.344,8.229
2.820,0.148,0.188,0.783,-8.260,0.489,9.053
2.830,0.150,0.194,0.797,-7.771,-0.519,10.122
2.830,0.167,0.190,0.785,-7.298,-0.870,10.824
2.830,0.179,0.190,0.789,-6.824,-1.252,11.466
2.840,0.188,0.188,0.789,-6.901,-2.947,11.924
2.840,0.206,0.186,0.787,-7.069,-4.214,11.832
2.850,0.231,0.189,0.795,-7.176,-4.153,11.664
2.850,0.254,0.187,0.805,-7.557,-3.710,11.496
2.850,0.259,0.185,0.804,-7.954,-3.649,10.718
2.860,0.265,0.179,0.800,-8.336,-4.565,9.969
2.860,0.279,0.176,0.803,-8.855,-5.282,8.565
2.870,0.280,0.173,0.803,-9.573,-5.893,7.344
2.870,0.280,0.171,0.811,-9.664,-6.901,5.649
2.870,0.265,0.154,0.828,-9.863,-8.733,4.260
2.880,0.257,0.163,0.817,-10.260,-11.023,3.038
2.880,0.252,0.157,0.826,-10.672,-13.069,2.229
2.890,0.248,0.155,0.855,-10.336,-14.733,1.618
2.890,0.242,0.146,0.863,-9.756,-16.061,1.252
2.890,0.246,0.153,0.861,-9.527,-16.916,1.008
2.900,0.243,0.160,0.859,-9.374,-17.023,0.779
2.900,0.241,0.153,0.865,-9.359,-17.206,0.718
2.910,0.243,0.152,0.885,-8.977,-16.397,0.427
2.910,0.254,0.156,0.877,-8.473,-14.840,0.702
2.910,0.241,0.155,0.866,-7.695,-13.802,0.916
2.920,0.246,0.155,0.873,-7.053,-13.206,0.992
2.920,0.244,0.160,0.873,-6.305,-12.015,1.221
2.930,0.239,0.150,0.875,-5.679,-10.885,1.542
2.930,0.247,0.152,0.867,-5.191,-9.344,2.015
2.930,0.261,0.156,0.863,-5.191,-7.496,2.443
2.940,0.263,0.156,0.861,-4.718,-5.191,2.290
2.940,0.263,0.156,0.850,-4.565,-3.985,2.153
2.950,0.264,0.151,0.843,-5.298,-3.832,1.893
2.950,0.263,0.155,0.828,-6.214,-3.008,1.496
2.950,0.271,0.156,0.830,-7.069,-1.725,0.947
2.960,0.271,0.158,0.832,-7.878,-0.733,0.550
2.960,0.265,0.153,0.826,-8.656,-0.382,0.382
2.970,0.254,0.167,0.814,-9.313,-1.053,-0.137
2.970,0.257,0.151,0.819,-10.718,-1.893,-0.351
2.970,0.253,0.158,0.831,-11.573,-2.275,-0.580
2.980,0.256,0.149,0.841,-12.015,-3.710,-1.069
2.980,0.258,0.151,0.833,-12.473,-5.176,-1.725
2.990,0.261,0.152,0.837,-12.962,-5.618,-2.198
2.990,0.274,0.147,0.857,-13.145,-4.260,-2.489
2.990,0.264,0.146,0.862,-12.733,-2.855,-2.885
3.000,0.261,0.144,0.859,-12.061,-1.695,-3.053
3.000,0.248,0.140,0.861,-11.221,-1.450,-3.481
3.010,0.240,0.140,0.871,-10.840,-1.420,-3.725
3.010,0.238,0.135,0.867,-9.954,-0.962,-3.771
3.010,0.220,0.139,0.880,-9.053,-0.840,-3.710
3.020,0.210,0.129,0.887,-8.092,-0.565,-3.145
3.020,0.199,0.137,0.880,-7.313,-0.229,-2.763
3.030,0.195,0.146,0.869,-6.550,-0.046,-1.832
3.030,0.191,0.145,0.866,-5.771,0.015,-1.008
3.030,0.184,0.142,0.849,-5.176,-0.015,-0.275
3.040,0.188,0.149,0.844,-5.160,-0.366,0.244
3.040,0.201,0.148,0.832,-5.863,0.183,0.794
3.050,0.209,0.149,0.830,-6.046,0.336,0.870
3.050,0.214,0.152,0.819,-6.412,0.580,1.008
3.050,0.216,0.157,0.826,-7.160,0.260,1.344
3.060,0.216,0.149,0.821,-7.771,-0.366,1.191
3.060,0.212,0.145,0.814,-8.733,-1.130,1.038
3.070,0.223,0.150,0.812,-9.511,-1.756,0.931
3.070,0.224,0.148,0.831,-10.351,-2.260,0.763
3.070,0.227,0.144,0.829,-10.687,-2.809,0.412
3.080,0.221,0.140,0.846,-11.221,-3.313,0.519
3.080,0.228,0.137,0.836,-11.771,-3.817,0.168
3.090,0.214,0.138,0.843,-12.198,-5.038,-0.092
3.090,0.218,0.135,0.845,-12.519,-6.809,-0.305
3.090,0.209,0.133,0.839,-12.641,-7.954,-0.260
3.100,0.207,0.130,0.858,-12.489,-8.305,-0.229
3.100,0.205,0.132,0.868,-12.336,-8.580,0.092
3.110,0.204,0.121,0.851,-12.382,-9.817,0.412
3.110,0.197,0.125,0.855,-12.336,-11.466,0.626
3.110,0.213,0.132,0.854,-12.626,-12.260,1.008
3.120,0.232,0.125,0.870,-12.473,-11.527,1.160
3.120,0.239,0.121,0.878,-12.092,-10.412,1.389
3.130,0.231,0.126,0.879,-11.924,-9.496,1.802
3.130,0.240,0.122,0.869,-11.863,-7.664,2.275
3.130,0.247,0.121,0.882,-11.450,-4.901,2.580
3.140,0.242,0.134,0.887,-10.626,-3.038,3.038
3.140,0.235,0.127,0.877,-10.076,-2.458,3.664
3.150,0.237,0.131,0.874,-10.122,-1.985,3.863
3.150,0.242,0.131,0.866,-10.015,-0.153,3.969
3.150,0.253,0.133,0.871,-9.618,2.702,4.626
3.160,0.248,0.135,0.870,-9.038,5.313,4.809
3.160,0.250,0.137,0.872,-8.885,7.328,5.115
3.170,0.244,0.137,0.867,-8.748,8.183,5.115
3.170,0.234,0.138,0.858,-9.023,7.969,5.130
3.170,0.233,0.137,0.864,-8.809,7.084,5.023
3.180,0.231,0.144,0.852,-9.252,6.198,4.992
3.180,0.228,0.139,0.858,-9.893,5.069,4.733
3.180,0.226,0.124,0.852,-10.489,3.832,5.252
3.190,0.213,0.148,0.849,-11.237,2.718,5.435
3.190,0.204,0.147,0.867,-12.351,0.794,6.412
3.200,0.203,0.143,0.851,-12.809,-1.664,7.069
3.200,0.198,0.142,0.859,-14.046,-4.000,7.542
3.200,0.201,0.137,0.858,-15.115,-5.969,7.908
3.210,0.204,0.135,0.867,-15.649,-7.145,8.489
3.210,0.230,0.129,0.882,-16.214,-8.458,8.504
3.220,0.252,0.120,0.882,-15.924,-8.183,8.061
3.220,0.255,0.116,0.891,-16.519,-6.977,8.061
3.220,0.246,0.109,0.888,-15.725,-5.954,7.298
3.230,0.250,0.107,0.893,-14.061,-3.725,6.962
3.230,0.238,0.102,0.911,-13.069,-3.634,6.412
3.240,0.247,0.100,0.896,-12.702,-2.962,5.634
3.240,0.235,0.094,0.900,-12.153,-2.641,5.237
3.240,0.232,0.097,0.904,-11.863,-2.763,5.145
3.250,0.219,0.087,0.902,-11.863,-2.931,4.748
3.250,0.217,0.088,0.905,-11.282,-3.527,4.656
3.260,0.212,0.083,0.910,-10.763,-4.260,4.412
3.260,0.212,0.078,0.915,-10.412,-4.962,4.702
3.260,0.209,0.076,0.913,-9.771,-5.771,4.931
3.270,0.219,0.079,0.921,-9.252,-5.679,4.870
3.270,0.219,0.074,0.913,-8.580,-5.557,4.855
3.280,0.223,0.064,0.918,-8.015,-5.588,4.794
3.280,0.225,0.060,0.916,-7.740,-5.710,4.718
3.280,0.235,0.060,0.927,-7.221,-5.405,4.733
3.290,0.239,0.062,0.913,-6.458,-5.115,4.580
3.290,0.228,0.064,0.925,-5.878,-5.206,4.748
3.300,0.229,0.061,0.914,-5.679,-5.542,5.115
3.300,0.235,0.065,0.915,-5.450,-4.718,5.679
3.300,0.237,0.067,0.902,-4.916,-3.374,5.969
3.310,0.242,0.065,0.901,-4.366,-2.412,6.656
3.310,0.247,0.064,0.909,-3.908,-1.802,7.206
3.310,0.260,0.065,0.907,-3.435,-0.962,7.344
3.320,0.265,0.073,0.902,-2.611,-0.290,7.267
3.320,0.262,0.067,0.905,-2.214,-0.107,7.191
3.330,0.272,0.074,0.890,-2.137,0.275,6.992
3.330,0.284,0.076,0.896,-1.924,1.206,7.038
3.330,0.290,0.075,0.892,-1.450,2.183,6.947
3.340,0.281,0.083,0.884,-0.931,3.069,6.840
3.340,0.282,0.094,0.875,-0.962,3.649,7.053
3.350,0.283,0.089,0.855,-1.053,3.634,6.916
3.350,0.287,0.086,0.846,-1.267,3.130,6.809
3.350,0.291,0.092,0.841,-1.679,2.641,6.244
3.360,0.307,0.097,0.837,-2.198,2.137,5.603
3.360,0.313,0.100,0.847,-2.641,2.092,4.855
3.360,0.319,0.093,0.841,-3.237,2.137,3.817
3.370,0.314,0.094,0.838,-3.450,2.153,3.160
3.370,0.314,0.097,0.835,-4.244,1.817,2.672
3.380,0.301,0.095,0.833,-4.443,1.405,2.244
3.380,0.301,0.092,0.840,-4.809,0.916,1.939
3.380,0.297,0.094,0.831,-4.901,0.901,1.313
3.390,0.295,0.095,0.833,-5.038,-0.122,0.855
3.390,0.283,0.088,0.838,-5.420,-1.603,0.366
3.400,0.278,0.079,0.834,-5.374,-4.000,-0.214
3.400,0.281,0.083,0.838,-6.168,-5.389,-0.748
3.400,0.292,0.078,0.845,-6.214,-5.374,-1.145
3.410,0.292,0.078,0.846,-6.107,-4.076,-1.237
3.410,0.281,0.080,0.861,-5.878,-3.527,-1.435
3.420,0.273,0.076,0.849,-5.786,-3.496,-1.420
3.420,0.268,0.077,0.848,-5.817,-3.481,-1.450
3.420,0.267,0.071,0.851,-5.939,-3.374,-1.664
3.430,0.256,0.067,0.849,-6.275,-3.267,-1.618
3.430,0.260,0.067,0.866,-6.733,-3.008,-1.405
3.440,0.250,0.061,0.867,-6.901,-2.824,-1.298
3.440,0.251,0.066,0.876,-7.160,-2.458,-0.855
3.440,0.249,0.061,0.882,-6.718,-2.290,-0.412
3.450,0.261,0.053,0.906,-5.939,-2.031,-0.351
3.450,0.285,0.049,0.911,-4.809,-1.008,-0.473
3.460,0.257,0.047,0.897,-3.359,-0.107,-1.008
3.460,0.239,0.044,0.911,-2.565,-1.725,-0.824
3.460,0.250,0.059,0.918,-2.046,-2.992,-1.176
3.470,0.275,0.049,0.906,-1.145,-1.908,-1.450
3.470,0.265,0.057,0.917,-0.290,-1.847,-1.832
3.480,0.253,0.057,0.911,0.412,-1.710,-1.725
3.480,0.245,0.060,0.891,0.489,-2.107,-1.573
3.480,0.243,0.067,0.876,0.092,-3.405,-1.557
3.490,0.243,0.068,0.869,-0.260,-4.595,-1.298
3.490,0.254,0.071,0.877,-0.427,-4.794,-1.130
3.490,0.254,0.072,0.856,-0.916,-4.015,-1.069
3.500,0.259,0.069,0.874,-1.313,-3.328,-0.519
3.500,0.261,0.077,0.868,-1.939,-2.733,-0.489
3.510,0.259,0.071,0.863,-2.366,-1.786,-0.321
3.510,0.262,0.077,0.857,-2.870,-1.115,-0.244
3.510,0.266,0.074,0.861,-3.374,-0.626,-0.443
3.520,0.273,0.076,0.876,-2.855,0.718,-0.641
3.520,0.268,0.072,0.879,-2.305,1.557,-0.885
3.530,0.278,0.075,0.892,-1.603,1.542,-0.916
3.530,0.275,0.076,0.889,-0.916,2.275,-1.481
3.530,0.266,0.066,0.906,-0.015,2.458,-1.756
3.540,0.266,0.068,0.896,0.489,1.954,-1.985
3.540,0.263,0.071,0.893,0.809,1.160,-2.244
3.550,0.256,0.075,0.896,1.405,0.427,-2.595
3.550,0.255,0.079,0.903,1.710,-0.290,-2.534
3.550,0.248,0.085,0.885,1.878,-0.626,-2.443
3.560,0.252,0.086,0.892,2.214,-0.855,-2.290
3.560,0.253,0.091,0.881,2.061,-1.069,-2.076
3.570,0.254,0.091,0.881,2.122,-1.145,-2.168
3.570,0.255,0.094,0.860,1.771,-0.855,-2.107
3.570,0.255,0.091,0.867,1.863,-0.382,-1.924
3.580,0.254,0.099,0.851,1.740,-0.061,-2.076
3.580,0.250,0.105,0.860,1.328,-0.015,-2.183
3.580,0.246,0.108,0.852,0.947,0.137,-2.397
3.590,0.252,0.109,0.838,0.473,-0.015,-2.458
3.590,0.251,0.115,0.843,0.214,0.366,-2.366
3.600,0.240,0.115,0.835,-0.244,0.473,-2.351
3.600,0.239,0.116,0.844,-0.763,0.107,-1.985
3.600,0.238,0.111,0.849,-1.084,0.076,-2.031
3.610,0.239,0.108,0.862,-0.840,-0.031,-1.924
3.610,0.231,0.107,0.858,-0.763,-0.382,-1.679
3.620,0.235,0.110,0.861,-0.534,-0.183,-1.603
3.620,0.234,0.112,0.877,0.168,-0.794,-1.573
3.620,0.230,0.106,0.871,0.382,-1.710,-1.481
3.630,0.229,0.109,0.871,0.550,-2.702,-1.344
3.630,0.229,0.106,0.871,0.763,-2.656,-1.435
3.640,0.239,0.100,0.875,1.282,-2.244,-1.221
3.640,0.233,0.103,0.866,1.191,-1.496,-1.084
3.640,0.228,0.099,0.861,1.206,-1.450,-0.916
3.650,0.228,0.101,0.854,0.687,-0.580,-0.779
3.650,0.231,0.105,0.843,0.504,-0.305,-0.748
3.660,0.229,0.108,0.844,0.275,-0.076,-0.641
3.660,0.225,0.099,0.835,-0.275,0.031,-0.519
3.660,0.229,0.096,0.838,-0.641,0.183,-0.183
3.670,0.229,0.102,0.842,-0.870,-0.031,-0.214
3.670,0.228,0.095,0.854,-1.344,-0.168,-0.305
3.670,0.233,0.096,0.857,-1.405,0.031,-0.229
3.680,0.227,0.100,0.851,-1.191,0.473,0.061
3.680,0.221,0.100,0.861,-1.053,0.153,0.565
3.690,0.221,0.096,0.867,-1.023,0.076,0.931
3.690,0.228,0.096,0.863,-0.870,0.794,1.359
3.690,0.217,0.097,0.869,-0.519,1.725,1.786
3.700,0.231,0.098,0.872,-0.626,2.153,2.137
3.700,0.236,0.095,0.865,-0.626,3.145,2.336
3.710,0.232,0.095,0.855,-0.336,3.786,2.504
3.710,0.226,0.099,0.863,-0.580,4.015,2.947
3.710,0.227,0.106,0.856,-0.748,4.198,3.038
3.720,0.235,0.098,0.853,-0.962,4.412,3.359
3.720,0.228,0.103,0.857,-1.221,4.473,3.634
3.720,0.242,0.094,0.847,-1.878,4.534,3.603
3.730,0.241,0.097,0.844,-2.122,4.641,3.695
3.730,0.243,0.096,0.843,-2.489,4.107,3.710
3.740,0.255,0.097,0.840,-2.840,2.824,3.328
3.740,0.260,0.095,0.848,-3.282,1.481,2.885
3.740,0.260,0.095,0.860,-3.679,1.206,2.687
3.750,0.257,0.098,0.865,-3.374,1.191,2.595
3.750,0.261,0.100,0.878,-3.206,1.069,2.534
3.760,0.265,0.091,0.866,-3.160,1.191,2.275
3.760,0.266,0.084,0.872,-2.977,1.527,2.183
3.760,0.271,0.083,0.872,-2.672,1.603,2.000
3.770,0.273,0.086,0.884,-2.427,1.786,1.863
3.770,0.267,0.086,0.885,-1.832,1.160,1.496
3.770,0.268,0.086,0.877,-1.603,0.809,1.435
3.780,0.265,0.088,0.885,-1.130,0.198,1.252
3.780,0.275,0.083,0.882,-0.840,0.260,0.794
3.790,0.276,0.090,0.873,-0.458,0.473,0.794
3.790,0.272,0.094,0.879,-0.153,0.214,0.534
3.790,0.281,0.086,0.860,0.489,0.580,0.137
3.800,0.276,0.096,0.868,0.412,0.992,-0.015
3.800,0.268,0.094,0.860,0.687,1.130,-0.061
3.800,0.274,0.093,0.855,0.687,1.725,-0.244
3.810,0.267,0.094,0.834,0.168,1.618,-0.061
3.810,0.253,0.098,0.855,0.794,0.031,-0.229
3.820,0.265,0.098,0.841,-0.107,1.008,-0.580
3.820,0.259,0.103,0.842,-0.870,2.046,-0.443
3.820,0.251,0.101,0.842,-1.954,1.985,-0.763
3.830,0.261,0.102,0.831,-3.389,3.053,-0.366
3.830,0.245,0.092,0.853,-3.725,3.053,-0.107
3.840,0.238,0.095,0.857,-3.618,2.947,-0.061
3.840,0.246,0.092,0.852,-3.542,3.206,-0.046
3.840,0.244,0.094,0.851,-3.908,3.435,-0.107
3.850,0.246,0.093,0.858,-3.893,3.603,-0.122
3.850,0.239,0.088,0.861,-3.786,3.282,-0.122
3.860,0.239,0.090,0.845,-3.527,3.023,-0.473
3.860,0.237,0.094,0.846,-4.214,2.885,-0.382
3.860,0.232,0.093,0.855,-4.351,2.901,-0.321
3.870,0.229,0.086,0.850,-4.427,2.641,-0.046
3.870,0.217,0.090,0.855,-4.534,2.321,0.107
3.870,0.215,0.085,0.858,-4.885,1.740,0.275
3.880,0.218,0.089,0.860,-5.252,1.466,0.779
3.880,0.219,0.091,0.856,-5.573,1.481,1.099
3.890,0.221,0.093,0.868,-5.573,1.847,1.557
3.890,0.229,0.088,0.877,-5.618,1.969,1.573
3.890,0.231,0.090,0.876,-5.237,2.153,1.771
3.900,0.234,0.087,0.873,-5.405,2.656,2.031
3.900,0.233,0.084,0.883,-5.053,2.824,2.046
3.910,0.239,0.085,0.883,-5.023,2.718,2.290
3.910,0.234,0.079,0.883,-4.687,2.519,2.321
3.910,0.225,0.080,0.886,-4.519,2.137,2.397
3.920,0.234,0.085,0.882,-4.550,1.832,2.458
3.920,0.238,0.089,0.887,-4.427,1.878,2.412
3.920,0.235,0.082,0.875,-4.305,1.740,2.595
3.930,0.242,0.089,0.887,-4.305,2.214,2.656
3.930,0.241,0.083,0.879,-4.046,2.718,2.702
3.940,0.242,0.081,0.878,-4.244,2.748,2.718
3.940,0.245,0.082,0.875,-4.290,2.672,2.855
3.940,0.251,0.084,0.876,-4.183,3.053,2.977
3.950,0.253,0.089,0.877,-4.275,3.267,2.992
3.950,0.252,0.090,0.881,-4.015,3.145,2.840
3.950,0.263,0.087,0.875,-4.000,3.191,2.473
3.960,0.270,0.088,0.893,-3.679,3.939,2.260
3.960,0.272,0.080,0.902,-3.145,4.489,1.832
3.970,0.264,0.086,0.887,-2.565,4.443,1.359
3.970,0.268,0.082,0.894,-1.893,4.031,1.115
3.970,0.274,0.082,0.898,-1.863,3.924,0.763
3.980,0.270,0.080,0.891,-1.282,4.504,0.153
3.980,0.266,0.083,0.898,-0.702,4.427,-0.046
3.990,0.257,0.091,0.884,-0.733,3.420,-0.382
3.990,0.254,0.083,0.877,-0.397,1.802,-0.855
3.990,0.254,0.090,0.884,-0.870,0.519,-0.962
4.000,0.256,0.092,0.881,-0.763,0.397,-1.053
4.000,0.260,0.090,0.882,-0.885,0.656,-1.130
4.010,0.263,0.091,0.884,-0.718,0.565,-1.328
4.010,0.261,0.098,0.884,-0.824,0.733,-1.328
4.010,0.264,0.095,0.877,-0.794,1.221,-1.603
4.020,0.260,0.091,0.871,-0.718,2.137,-1.603
4.020,0.257,0.089,0.875,-0.382,2.305,-1.771
4.020,0.254,0.093,0.869,-0.473,2.092,-1.878
4.030,0.248,0.091,0.879,-0.351,1.832,-2.122
4.030,0.256,0.094,0.870,-0.031,1.969,-2.275
