Time,acce_x,acce_y,acce_z,gyro_x,gyro_y,gyro_z
0.0,636.0,-884.0,17132.0,-485.0,-254.0,31996.0
0.0,636.0,-884.0,17132.0,-485.0,-254.0,31996.0
0.0,636.0,-884.0,17132.0,-485.0,-254.0,31996.0
0.0,636.0,-884.0,17132.0,-485.0,-254.0,31996.0
0.0,636.0,-884.0,17132.0,-485.0,-254.0,31996.0
0.0,636.0,-884.0,17132.0,-485.0,-254.0,31996.0
0.0,636.0,-884.0,17132.0,-485.0,-254.0,31996.0
0.0,636.0,-884.0,17132.0,-485.0,-254.0,31996.0
0.0,636.0,-884.0,17132.0,-485.0,-254.0,31996.0
0.0,636.0,-884.0,17132.0,-485.0,-254.0,31996.0
0.0,636.0,-884.0,17132.0,-485.0,-254.0,31996.0
0.0,636.0,-884.0,17132.0,-485.0,-254.0,31996.0
0.0,636.0,-884.0,17132.0,-485.0,-254.0,31996.0
0.0,636.0,-884.0,17132.0,-485.0,-254.0,31996.0
0.0,636.0,-884.0,17132.0,-485.0,-254.0,31996.0
0.0,636.0,-884.0,17132.0,-485.0,-254.0,31996.0
0.0,636.0,-884.0,17132.0,-485.0,-254.0,31996.0
0.0,636.0,-884.0,17132.0,-485.0,-254.0,31996.0
0.0,636.0,-884.0,17132.0,-485.0,-254.0,31996.0
0.0,636.0,-884.0,17132.0,-485.0,-254.0,31996.0
0.0,636.0,-884.0,17132.0,-485.0,-254.0,31996.0
0.0,636.0,-884.0,17132.0,-485.0,-254.0,31996.0
0.0,636.0,-884.0,17132.0,-485.0,-254.0,31996.0
0.0,636.0,-884.0,17132.0,-485.0,-254.0,31996.0
0.0,636.0,-884.0,17132.0,-485.0,-254.0,31996.0
0.0,636.0,-884.0,17132.0,-485.0,-254.0,31996.0
0.0,636.0,-884.0,17132.0,-485.0,-254.0,31996.0
0.0,636.0,-884.0,17132.0,-485.0,-254.0,31996.0
0.0,636.0,-884.0,17132.0,-485.0,-254.0,31996.0
0.0,636.0,-884.0,17132.0,-485.0,-254.0,31996.0
0.0,636.0,-884.0,17132.0,-485.0,-254.0,31996.0
0.0,636.0,-884.0,17132.0,-485.0,-254.0,31996.0
0.0,636.0,-884.0,17132.0,-485.0,-254.0,31996.0
0.0,636.0,-884.0,17132.0,-485.0,-254.0,31996.0
0.0,636.0,-884.0,17132.0,-485.0,-254.0,31996.0
0.0,636.0,-884.0,17132.0,-485.0,-254.0,31996.0
0.0,636.0,-884.0,17132.0,-485.0,-254.0,31996.0
0.0,636.0,-884.0,17132.0,-485.0,-254.0,31996.0
0.0,636.0,-884.0,17132.0,-485.0,-254.0,31996.0
0.0,636.0,-884.0,17132.0,-485.0,-254.0,31996.0
0.0,636.0,-884.0,17132.0,-485.0,-254.0,31996.0
0.0,636.0,-884.0,17132.0,-485.0,-254.0,31996.0
0.0,636.0,-884.0,17132.0,-485.0,-254.0,31996.0
0.0,636.0,-884.0,17132.0,-485.0,-254.0,31996.0
0.0,636.0,-884.0,17132.0,-485.0,-254.0,31996.0
0.0,636.0,-884.0,17132.0,-485.0,-254.0,31996.0
0.0,636.0,-884.0,17132.0,-485.0,-254.0,31996.0
0.0,636.0,-884.0,17132.0,-485.0,-254.0,31996.0
0.0,636.0,-884.0,17132.0,-485.0,-254.0,31996.0
0.0,636.0,-884.0,17132.0,-485.0,-254.0,31996.0
0.0,636.0,-884.0,17132.0,-485.0,-254.0,31996.0
0.01,764.0,-984.0,17008.0,-396.0,-254.0,-772.0
0.02,828.0,-720.0,16976.0,-309.0,-253.0,15613.0
0.03,864.0,-420.0,16812.0,-352.0,-253.0,24830.0
0.04,948.0,-500.0,16936.0,-401.0,3.0,-19202.0
0.05,824.0,-500.0,17044.0,-451.0,3.0,14590.0
0.06,696.0,-716.0,16984.0,-474.0,2.0,-18179.0
0.07,684.0,-844.0,17228.0,-414.0,-254.0,-21252.0
0.08,588.0,-1076.0,17348.0,-285.0,-254.0,19707.0
0.09,640.0,-1104.0,17224.0,-221.0,-510.0,-32517.0
0.1,372.0,-1104.0,16984.0,-102.0,-255.0,29947.0
0.11,472.0,-932.0,17048.0,-38.0,-255.0,-9988.0
0.12,292.0,-860.0,17076.0,-54.0,-255.0,9468.0
0.13,92.0,-648.0,16816.0,-125.0,-512.0,23805.0
0.14,84.0,-732.0,16768.0,-143.0,-512.0,21757.0
0.15,32.0,-856.0,16708.0,-139.0,-512.0,8444.0
0.16,164.0,-704.0,16808.0,-128.0,-768.0,-23299.0
0.17,288.0,-792.0,16924.0,-112.0,-1023.0,8444.0
0.18,708.0,-900.0,17024.0,6.0,-1022.0,-15108.0
0.19,884.0,-1012.0,17156.0,163.0,-1021.0,29948.0
0.2,1020.0,-888.0,17160.0,268.0,-765.0,-772.0
0.21,968.0,-656.0,17072.0,248.0,-509.0,-14083.0
0.22,1028.0,-564.0,17056.0,185.0,-508.0,1277.0
0.23,1124.0,-600.0,16988.0,116.0,-252.0,25853.0
0.24,1040.0,-492.0,16792.0,11.0,-252.0,4350.0
0.25,928.0,-432.0,16756.0,-48.0,-253.0,-24322.0
0.26,1460.0,-304.0,16596.0,-97.0,-251.0,-19202.0
0.27,1652.0,-200.0,16828.0,-239.0,6.0,29951.0
0.28,1752.0,-124.0,16764.0,-237.0,262.0,-9985.0
0.29,1348.0,-452.0,16700.0,-157.0,261.0,17662.0
0.3,1136.0,-404.0,16892.0,-82.0,260.0,28926.0
0.31,1032.0,-308.0,16596.0,-87.0,260.0,2302.0
0.32,824.0,-284.0,16684.0,-163.0,259.0,14590.0
0.33,868.0,-404.0,16560.0,-189.0,259.0,25854.0
0.34,548.0,-520.0,16708.0,-217.0,258.0,9469.0
0.35,272.0,-336.0,16744.0,-252.0,1.0,4350.0
0.36,528.0,-432.0,16572.0,-237.0,-254.0,4350.0
0.37,716.0,-484.0,16660.0,-267.0,-254.0,-13058.0
0.38,876.0,-436.0,16860.0,-314.0,-253.0,27902.0
0.39,1076.0,-480.0,16892.0,-282.0,-252.0,13566.0
0.4,780.0,-584.0,16896.0,-204.0,-253.0,3325.0
0.41,728.0,-524.0,16784.0,-223.0,-254.0,-9987.0
0.42,684.0,-580.0,16944.0,-208.0,-254.0,-21251.0
0.43,624.0,-668.0,16744.0,-248.0,-254.0,28925.0
0.44,784.0,-524.0,16800.0,-247.0,-253.0,4349.0
0.45,836.0,-712.0,16864.0,-267.0,-253.0,17661.0
0.46,804.0,-656.0,17020.0,-326.0,-253.0,9469.0
0.47,1008.0,-716.0,16956.0,-304.0,-253.0,-3843.0
0.48,956.0,-772.0,17032.0,-279.0,3.0,-17156.0
0.49,948.0,-720.0,16928.0,-141.0,3.0,-19203.0
0.5,644.0,-756.0,16796.0,-107.0,2.0,-31491.0
0.51,420.0,-516.0,16728.0,-109.0,1.0,-23299.0
0.52,384.0,-500.0,16556.0,-157.0,-255.0,-32514.0
0.53,240.0,-448.0,16852.0,-192.0,-256.0,-3842.0
0.54,360.0,-332.0,16888.0,-245.0,-511.0,26878.0
0.55,820.0,-416.0,16764.0,-268.0,-509.0,13566.0
0.56,1116.0,-516.0,16968.0,-355.0,-508.0,23805.0
0.57,1520.0,-592.0,17060.0,-402.0,-251.0,-3843.0
0.58,1564.0,-596.0,17264.0,-385.0,6.0,7421.0
0.59,1424.0,-620.0,17180.0,-364.0,261.0,-28419.0
0.6,1056.0,-904.0,17352.0,-271.0,260.0,8444.0
0.61,556.0,-944.0,17284.0,-115.0,2.0,11516.0
0.62,548.0,-904.0,17212.0,37.0,2.0,9468.0
0.63,488.0,-708.0,17028.0,122.0,1.0,-5891.0
0.64,588.0,-544.0,16952.0,151.0,-254.0,19709.0
0.65,456.0,-700.0,17008.0,118.0,-255.0,-14083.0
0.66,832.0,-740.0,16824.0,128.0,-253.0,16637.0
0.67,912.0,-808.0,16864.0,167.0,-509.0,-28420.0
0.68,1116.0,-592.0,17064.0,208.0,-508.0,23805.0
0.69,1044.0,-672.0,16940.0,219.0,-252.0,5373.0
0.7,1036.0,-776.0,16668.0,232.0,-252.0,3324.0
0.71,776.0,-704.0,16508.0,200.0,-253.0,2301.0
0.72,628.0,-772.0,16860.0,119.0,-254.0,29948.0
0.73,488.0,-984.0,16688.0,54.0,-255.0,-5892.0
0.74,532.0,-1088.0,16868.0,122.0,-254.0,5371.0
0.75,432.0,-1016.0,16948.0,230.0,-255.0,-20228.0
0.76,628.0,-1016.0,17124.0,317.0,-510.0,29948.0
0.77,688.0,-984.0,17096.0,298.0,-510.0,-20228.0
0.78,512.0,-1152.0,17096.0,303.0,-510.0,251.0
0.79,316.0,-1144.0,17024.0,495.0,-511.0,15611.0
0.8,496.0,-1096.0,17244.0,754.0,-511.0,-3845.0
0.81,536.0,-684.0,16800.0,858.0,-510.0,6397.0
0.82,332.0,-564.0,16676.0,782.0,-511.0,19709.0
0.83,504.0,-220.0,16444.0,748.0,-511.0,-1793.0
0.84,600.0,-368.0,16324.0,631.0,-254.0,22782.0
0.85,612.0,-124.0,16232.0,874.0,-510.0,25855.0
0.86,764.0,40.0,15756.0,935.0,-254.0,-1024.0
0.87,764.0,196.0,15428.0,920.0,-254.0,-1024.0
0.88,792.0,488.0,15228.0,869.0,3.0,6145.0
0.89,612.0,724.0,14488.0,778.0,258.0,25602.0
0.9,580.0,1028.0,14320.0,604.0,258.0,17412.0
0.91,676.0,1132.0,13748.0,483.0,258.0,-23548.0
0.92,1436.0,1720.0,14740.0,452.0,5.0,-25594.0
0.93,984.0,1208.0,12572.0,322.0,771.0,-10236.0
0.94,1568.0,1408.0,11500.0,195.0,518.0,8197.0
0.95,1908.0,1788.0,11040.0,3.0,1543.0,29702.0
0.96,1672.0,2212.0,10268.0,-241.0,1798.0,-30712.0
0.97,1856.0,2816.0,9532.0,-710.0,2311.0,16395.0
0.98,1852.0,3072.0,8508.0,-1459.0,2823.0,15372.0
0.99,1408.0,3572.0,8004.0,-2233.0,3077.0,-32755.0
1.0,492.0,4340.0,7844.0,-3190.0,3585.0,-5104.0
1.01,-76.0,4736.0,7172.0,-3980.0,3839.0,-19438.0
1.02,-772.0,4500.0,7052.0,-4537.0,3068.0,-1007.0
1.03,-1120.0,4304.0,6892.0,-5267.0,2299.0,-24560.0
1.04,-1032.0,3928.0,7040.0,-6134.0,1531.0,-2033.0
1.05,-1020.0,3320.0,7032.0,-7106.0,1020.0,1036.0
1.06,-508.0,2560.0,7176.0,-8129.0,510.0,1034.0
1.07,-376.0,1664.0,7692.0,-9139.0,-2.0,-30714.0
1.08,-144.0,-392.0,8588.0,-9739.0,-257.0,28926.0
1.09,-132.0,-2368.0,9736.0,-9711.0,-513.0,31990.0
1.1,-352.0,-3464.0,10904.0,-9113.0,-770.0,-24334.0
1.11,-660.0,-4084.0,11860.0,-8475.0,-1027.0,27888.0
1.12,-728.0,-4816.0,12892.0,-8074.0,-1283.0,10477.0
1.13,32.0,-5192.0,13612.0,-7740.0,-1792.0,8427.0
1.14,284.0,-5984.0,14300.0,-7153.0,-1791.0,7400.0
1.15,668.0,-5684.0,14704.0,-6383.0,-1278.0,-25367.0
1.16,1172.0,-4876.0,14908.0,-5797.0,-1020.0,-27412.0
1.17,1780.0,-4320.0,14392.0,-5475.0,-250.0,-2833.0
1.18,1872.0,-3676.0,13680.0,-5727.0,775.0,20721.0
1.19,2236.0,-3272.0,13892.0,-6280.0,2312.0,-17165.0
1.2,500.0,-2596.0,12656.0,-6821.0,1793.0,-2827.0
1.21,-1164.0,-4936.0,11824.0,-7239.0,3835.0,29932.0
1.22,2304.0,-2264.0,12840.0,-7627.0,3337.0,247.0
1.23,-2624.0,-5692.0,14352.0,-8332.0,3573.0,-16151.0
1.24,-996.0,-5336.0,15240.0,-7322.0,1532.0,7403.0
1.25,1848.0,-4308.0,13364.0,-7425.0,-761.0,14575.0
1.26,456.0,-4952.0,13236.0,-8756.0,2561.0,-14100.0
1.27,200.0,-4888.0,14028.0,-9365.0,3072.0,-14100.0
1.28,8.0,-5296.0,12860.0,-10188.0,3840.0,2283.0
1.29,-740.0,-4940.0,12904.0,-11500.0,4349.0,7404.0
1.3,-1424.0,-5264.0,13100.0,-12787.0,4346.0,28907.0
1.31,-1824.0,-6184.0,13648.0,-13882.0,3832.0,-7961.0
1.32,-2708.0,-8264.0,14076.0,-14782.0,3829.0,27871.0
1.33,-2824.0,-8836.0,14504.0,-15409.0,3060.0,-1827.0
1.34,-2164.0,-8408.0,14376.0,-16111.0,2807.0,-29473.0
1.35,-1956.0,-8280.0,13988.0,-17158.0,2808.0,23775.0
1.36,-1292.0,-7884.0,13384.0,-18617.0,2810.0,-2847.0
1.37,-908.0,-8328.0,13212.0,-20086.0,3068.0,29919.0
1.38,-1872.0,-9652.0,13564.0,-21305.0,3064.0,-20262.0
1.39,-2492.0,-11344.0,15016.0,-22116.0,3318.0,17619.0
1.4,-3356.0,-14088.0,13692.0,-21981.0,754.0,-6968.0
1.41,-2676.0,-14888.0,14852.0,-21047.0,3317.0,-29499.0
1.42,-3984.0,-14564.0,14492.0,-21494.0,1264.0,28871.0
1.43,-3432.0,-15308.0,13564.0,-20872.0,1522.0,-26428.0
1.44,-4104.0,-14568.0,12936.0,-20140.0,1007.0,-1849.0
1.45,-6408.0,-14764.0,12672.0,-19302.0,-282.0,-1850.0
1.46,-8004.0,-15644.0,12824.0,-19380.0,-544.0,-17214.0
1.47,-6812.0,-16172.0,9324.0,-20289.0,-2075.0,25792.0
1.48,-4840.0,-16500.0,12572.0,-18967.0,-5651.0,6335.0
1.49,-4228.0,-16644.0,11824.0,-17424.0,-6929.0,31934.0
1.5,-2292.0,-15744.0,11108.0,-16704.0,-7433.0,3266.0
1.51,-952.0,-15064.0,9888.0,-17393.0,-6916.0,18629.0
1.52,-52.0,-14676.0,9608.0,-18451.0,-6145.0,-13114.0
1.53,-88.0,-14864.0,8780.0,-19329.0,-5633.0,-22331.0
1.54,-1200.0,-15712.0,8680.0,-20228.0,-6405.0,20674.0
1.55,-1564.0,-17256.0,9124.0,-21071.0,-7687.0,-6980.0
1.56,452.0,-18392.0,8240.0,-21318.0,-8959.0,-15176.0
1.57,2184.0,-19096.0,8724.0,-21988.0,-7672.0,-30539.0
1.58,224.0,-19940.0,7580.0,-21874.0,-7168.0,-8014.0
1.59,-1416.0,-19284.0,6988.0,-21807.0,-6918.0,30900.0
1.6,-2180.0,-18164.0,6336.0,-21965.0,-8201.0,31929.0
1.61,-2424.0,-17692.0,6188.0,-22684.0,-9994.0,-30534.0
1.62,-1804.0,-17296.0,5952.0,-23627.0,-11528.0,-2884.0
1.63,12.0,-16220.0,6280.0,-25014.0,-13568.0,3264.0
1.64,3440.0,-16232.0,5772.0,-26411.0,-14323.0,28864.0
1.65,7524.0,-17184.0,6608.0,-27842.0,-13027.0,25788.0
1.66,10976.0,-19664.0,5540.0,-28219.0,-10198.0,-8013.0
1.67,14552.0,-24928.0,5564.0,-27545.0,-4552.0,-10082.0
1.68,13700.0,-28892.0,5624.0,-25472.0,2613.0,-31601.0
1.69,9820.0,-30232.0,6416.0,-21080.0,8230.0,23689.0
1.7,5172.0,-27644.0,6080.0,-17520.0,10772.0,13460.0
1.71,1520.0,-24636.0,5732.0,-14885.0,11269.0,-3937.0
1.72,-2152.0,-22120.0,5208.0,-13769.0,11255.0,-26455.0
1.73,-4540.0,-21696.0,4944.0,-12935.0,8430.0,17579.0
1.74,-6788.0,-22300.0,4764.0,-12218.0,5605.0,31912.0
1.75,-9576.0,-23876.0,4500.0,-12839.0,3290.0,-26462.0
1.76,-8412.0,-22112.0,6136.0,-11140.0,-3361.0,9385.0
1.77,-7352.0,-23004.0,5736.0,-11146.0,-5149.0,18598.0
1.78,-6036.0,-23080.0,5540.0,-11075.0,-7192.0,27813.0
1.79,-4516.0,-22928.0,5108.0,-11069.0,-8466.0,23718.0
1.8,-2364.0,-22420.0,5028.0,-11124.0,-8714.0,-15192.0
1.81,-1000.0,-22180.0,4748.0,-10581.0,-7940.0,6313.0
1.82,448.0,-21224.0,4748.0,-9279.0,-6911.0,-16211.0
1.83,2132.0,-20264.0,4960.0,-9278.0,-5624.0,21680.0
1.84,1692.0,-19532.0,4208.0,-9240.0,-4858.0,-25421.0
1.85,3212.0,-19516.0,5468.0,-8072.0,-4596.0,-29517.0
1.86,2240.0,-18808.0,4212.0,-6905.0,-3576.0,-16202.0
1.87,3060.0,-17888.0,3848.0,-6460.0,-2293.0,-2886.0
1.88,2544.0,-18448.0,2816.0,-6243.0,-1783.0,-3913.0
1.89,1048.0,-21724.0,3536.0,-5617.0,-508.0,6315.0
1.9,472.0,-22248.0,3992.0,-4417.0,513.0,-10071.0
1.91,-208.0,-22600.0,4996.0,-2534.0,1023.0,12455.0
1.92,-312.0,-23012.0,6116.0,9.0,510.0,-14170.0
1.93,612.0,-23244.0,6360.0,2623.0,-766.0,25765.0
1.94,1476.0,-23120.0,6916.0,4940.0,-1275.0,-15195.0
1.95,3316.0,-22932.0,6976.0,7148.0,-1524.0,-2906.0
1.96,4732.0,-22608.0,7456.0,8336.0,-750.0,31911.0
1.97,3480.0,-22924.0,6652.0,8420.0,2061.0,-26458.0
1.98,4504.0,-22664.0,6528.0,7815.0,4369.0,-26457.0
1.99,3032.0,-22412.0,7200.0,8759.0,5387.0,-10072.0
2.0,2296.0,-22592.0,6784.0,8501.0,5896.0,-1881.0
2.01,2748.0,-22792.0,6736.0,9860.0,7434.0,-17242.0
2.02,1460.0,-23408.0,6960.0,11971.0,7685.0,-19292.0
2.03,448.0,-23272.0,6756.0,14024.0,7425.0,-16219.0
2.04,-648.0,-22676.0,6364.0,14976.0,7421.0,30887.0
2.05,-1716.0,-21996.0,5932.0,15430.0,6905.0,19626.0
2.06,-2296.0,-21160.0,5672.0,15652.0,6135.0,2221.0
2.07,-1820.0,-20992.0,5780.0,15809.0,5368.0,-6994.0
2.08,-2456.0,-20796.0,5476.0,15759.0,4342.0,26798.0
2.09,-2700.0,-20896.0,5996.0,16085.0,3573.0,29870.0
2.1,-2916.0,-21128.0,5848.0,16529.0,2804.0,-25427.0
2.11,-2676.0,-21448.0,6132.0,16895.0,2037.0,-29524.0
2.12,-2716.0,-21640.0,5916.0,16877.0,1525.0,25771.0
2.13,-2428.0,-21308.0,6132.0,17123.0,1270.0,-31572.0
2.14,-2032.0,-20680.0,6032.0,17107.0,1272.0,4271.0
2.15,-1892.0,-20596.0,6172.0,16877.0,1784.0,-25425.0
2.16,-2444.0,-20424.0,6152.0,17048.0,2294.0,29872.0
2.17,-2808.0,-20012.0,6124.0,17005.0,2293.0,2225.0
2.18,-3256.0,-19752.0,6016.0,17206.0,2291.0,18610.0
2.19,-3744.0,-19852.0,6028.0,17550.0,2289.0,24754.0
2.2,-3744.0,-19396.0,6084.0,17798.0,1777.0,24756.0
2.21,-3984.0,-18944.0,5992.0,17817.0,1520.0,28854.0
2.22,-3920.0,-18804.0,6304.0,17972.0,1008.0,-20298.0
2.23,-3976.0,-18484.0,6196.0,18123.0,1008.0,30903.0
2.24,-4332.0,-18148.0,6292.0,18310.0,751.0,5305.0
2.25,-4604.0,-18344.0,6416.0,18513.0,238.0,1208.0
2.26,-4160.0,-17796.0,6456.0,18739.0,-529.0,-16198.0
2.27,-4040.0,-17472.0,6828.0,18936.0,-784.0,14523.0
2.28,-3784.0,-16844.0,6988.0,18963.0,-1039.0,14526.0
2.29,-2876.0,-16332.0,7164.0,18782.0,-1548.0,-15168.0
2.3,-2800.0,-16392.0,7596.0,18399.0,-1291.0,4287.0
2.31,-2532.0,-16308.0,8168.0,18409.0,-1290.0,7360.0
2.32,-2108.0,-15884.0,8672.0,18465.0,-1033.0,-15167.0
2.33,-1812.0,-15580.0,8948.0,18434.0,-1032.0,-4925.0
2.34,-1916.0,-15088.0,9084.0,18288.0,-520.0,-31547.0
2.35,-2056.0,-14400.0,9020.0,18170.0,-521.0,-1849.0
2.36,-2024.0,-13612.0,8960.0,17989.0,-8.0,6346.0
2.37,-2732.0,-13336.0,9080.0,17744.0,-267.0,21707.0
2.38,-3348.0,-13508.0,9220.0,17551.0,-1038.0,-4917.0
2.39,-3440.0,-13448.0,9592.0,17262.0,-1550.0,-28469.0
2.4,-3936.0,-12972.0,9572.0,17084.0,-2832.0,-24371.0
2.41,-3240.0,-12288.0,9484.0,16522.0,-3597.0,22736.0
2.42,-2728.0,-11836.0,9528.0,15611.0,-3595.0,22737.0
2.43,-2236.0,-11396.0,9784.0,14795.0,-3593.0,17619.0
2.44,-1888.0,-10976.0,10100.0,14207.0,-3592.0,-24363.0
2.45,-1440.0,-10640.0,10408.0,13846.0,-3846.0,24790.0
2.46,-1376.0,-10732.0,10820.0,14009.0,-3846.0,-24362.0
2.47,-1376.0,-10680.0,10948.0,14268.0,-4102.0,-24362.0
2.48,-404.0,-10248.0,11144.0,14343.0,-3842.0,27863.0
2.49,712.0,-9820.0,11172.0,14124.0,-3582.0,-14119.0
2.5,968.0,-9060.0,11508.0,13906.0,-2813.0,-14116.0
2.51,-152.0,-8824.0,11180.0,13511.0,-1793.0,26845.0
2.52,520.0,-8088.0,11244.0,13255.0,-1278.0,2272.0
2.53,-524.0,-7676.0,11444.0,12679.0,-515.0,-2846.0
2.54,-856.0,-7292.0,11460.0,12134.0,-516.0,-22301.0
2.55,-1064.0,-7000.0,11596.0,11543.0,-517.0,-10012.0
2.56,-1672.0,-6788.0,11580.0,10955.0,-1031.0,30949.0
2.57,-1840.0,-7188.0,11936.0,10490.0,-1800.0,-12061.0
2.58,-2212.0,-7756.0,11844.0,10497.0,-2057.0,23777.0
2.59,-2304.0,-7928.0,12212.0,10789.0,-2313.0,225.0
2.6,-2204.0,-7780.0,12292.0,11306.0,-2313.0,25825.0
2.61,-2380.0,-7212.0,11924.0,12363.0,-2826.0,-19229.0
2.62,-1892.0,-6092.0,12128.0,13277.0,-4360.0,-25368.0
2.63,-772.0,-4668.0,12296.0,13058.0,-4100.0,-787.0
2.64,-460.0,-4052.0,11748.0,12091.0,-3330.0,13552.0
2.65,100.0,-3692.0,12372.0,11314.0,-3840.0,25841.0
2.66,228.0,-3224.0,12344.0,10672.0,-2816.0,-6925.0
2.67,92.0,-2868.0,12596.0,10018.0,-2048.0,23796.0
2.68,-44.0,-2780.0,12824.0,9353.0,-1281.0,-11019.0
2.69,-132.0,-3460.0,13020.0,8876.0,-1281.0,31986.0
2.7,-112.0,-3544.0,13460.0,8739.0,-1281.0,-28430.0
2.71,-212.0,-3212.0,13548.0,8672.0,-1281.0,11507.0
2.72,-112.0,-2716.0,14068.0,8630.0,-1281.0,-28427.0
2.73,212.0,-2056.0,14076.0,8426.0,-1280.0,-11017.0
2.74,340.0,-1612.0,14008.0,8140.0,-1279.0,21753.0
2.75,364.0,-1064.0,13780.0,7778.0,-1023.0,27899.0
2.76,800.0,-672.0,13548.0,7571.0,-1277.0,8445.0
2.77,1104.0,-104.0,13676.0,7181.0,-1020.0,20735.0
2.78,1056.0,96.0,13712.0,6622.0,-1020.0,8192.0
2.79,648.0,520.0,13872.0,6231.0,-1278.0,-30718.0
2.8,700.0,452.0,13936.0,5804.0,-1534.0,-17407.0
2.81,964.0,368.0,14188.0,5364.0,-1277.0,-15359.0
2.82,600.0,-12.0,14276.0,4963.0,-1534.0,22783.0
2.83,644.0,12.0,14316.0,4624.0,-1790.0,-31744.0
2.84,732.0,-188.0,14368.0,4426.0,-1790.0,-8961.0
2.85,1076.0,-96.0,14456.0,4368.0,-1788.0,13567.0
2.86,1600.0,220.0,14316.0,4466.0,-1786.0,16384.0
2.87,1960.0,852.0,14252.0,4295.0,-1529.0,-22525.0
2.88,1956.0,1192.0,14116.0,3980.0,-1273.0,-23548.0
2.89,1796.0,1372.0,14012.0,3701.0,-1529.0,1029.0
2.9,2104.0,1512.0,13996.0,3508.0,-1528.0,14341.0
2.91,2292.0,1768.0,13620.0,3113.0,-1016.0,-3066.0
2.92,2324.0,2148.0,13640.0,2456.0,-759.0,5128.0
2.93,1904.0,1696.0,13452.0,1776.0,-761.0,28678.0
2.94,1412.0,1208.0,13724.0,1456.0,-1275.0,-31740.0
2.95,1628.0,716.0,13908.0,1466.0,-1530.0,23554.0
2.96,2076.0,940.0,13948.0,1461.0,-1528.0,7171.0
2.97,2372.0,1188.0,13844.0,1269.0,-1271.0,17412.0
2.98,2380.0,1400.0,13948.0,938.0,-759.0,19461.0
2.99,1832.0,1544.0,13872.0,647.0,-761.0,10246.0
3.0,1288.0,1676.0,13900.0,529.0,-1019.0,2054.0
3.01,1580.0,1724.0,13820.0,351.0,-1018.0,11270.0
3.02,1776.0,1732.0,13944.0,136.0,-1018.0,-4090.0
3.03,2136.0,1676.0,13912.0,-79.0,-1272.0,22534.0
3.04,2300.0,1836.0,13944.0,-481.0,-760.0,-1017.0
3.05,2080.0,2012.0,14168.0,-883.0,-248.0,8199.0
3.06,1836.0,1424.0,14444.0,-1218.0,-249.0,11269.0
3.07,1488.0,1004.0,14676.0,-1462.0,-251.0,-12285.0
3.08,1196.0,488.0,15212.0,-1500.0,-252.0,-21503.0
3.09,1052.0,200.0,15316.0,-1433.0,-252.0,7168.0
3.1,1316.0,-96.0,15560.0,-1344.0,-251.0,9471.0
3.11,1324.0,-152.0,15884.0,-1286.0,-251.0,11519.0
3.12,1544.0,-188.0,16168.0,-1213.0,-250.0,2303.0
3.13,2012.0,120.0,16580.0,-1234.0,7.0,-9216.0
3.14,1840.0,160.0,16632.0,-1312.0,7.0,12288.0
3.15,2068.0,72.0,16956.0,-1494.0,264.0,5120.0
3.16,2004.0,0.0,17068.0,-1510.0,519.0,-11264.0
3.17,1864.0,236.0,16940.0,-1417.0,519.0,18432.0
3.18,1780.0,212.0,17008.0,-1343.0,518.0,-3072.0
3.19,1712.0,84.0,16932.0,-1367.0,518.0,-20480.0
3.2,1528.0,-372.0,17196.0,-1351.0,517.0,-1794.0
3.21,1672.0,-712.0,17456.0,-1066.0,262.0,-30467.0
3.22,1784.0,-512.0,17572.0,-715.0,262.0,-1794.0
3.23,1568.0,-320.0,17644.0,-476.0,262.0,8446.0
3.24,1256.0,20.0,17408.0,-411.0,260.0,-6144.0
3.25,1092.0,88.0,17332.0,-485.0,260.0,17408.0
3.26,1296.0,-40.0,17292.0,-549.0,261.0,4351.0
3.27,1040.0,104.0,17312.0,-661.0,260.0,4096.0
3.28,652.0,200.0,17388.0,-680.0,2.0,-29696.0
3.29,752.0,24.0,17484.0,-648.0,-254.0,-4096.0
3.3,868.0,-436.0,17280.0,-524.0,-509.0,25854.0
3.31,1008.0,-684.0,17320.0,-348.0,-509.0,-3843.0
3.32,1152.0,-728.0,17184.0,-150.0,-508.0,-32515.0
3.33,1164.0,-440.0,17248.0,-35.0,-764.0,-29442.0
3.34,1492.0,-260.0,17260.0,28.0,-763.0,-11010.0
3.35,1360.0,-352.0,17144.0,-4.0,-507.0,20734.0
3.36,1244.0,-324.0,16956.0,-105.0,-508.0,-8962.0
3.37,1320.0,-268.0,16872.0,-206.0,-507.0,10494.0
3.38,1300.0,140.0,16764.0,-344.0,-251.0,5120.0
3.39,1084.0,28.0,16780.0,-446.0,-252.0,15360.0
3.4,968.0,160.0,16744.0,-401.0,-509.0,-14336.0
3.41,772.0,-88.0,16680.0,-311.0,-765.0,1279.0
3.42,812.0,-372.0,16836.0,-158.0,-1021.0,11518.0
3.43,1104.0,-252.0,16736.0,-16.0,-1020.0,20735.0
3.44,1648.0,-80.0,16792.0,-33.0,-1018.0,28927.0
3.45,1464.0,-68.0,16808.0,-156.0,-763.0,-18177.0
3.46,1384.0,-116.0,16700.0,-211.0,-1019.0,26879.0
3.47,1760.0,-88.0,16472.0,-203.0,-250.0,-7937.0
3.48,1716.0,-4.0,16884.0,-221.0,-762.0,-19201.0
3.49,1564.0,64.0,16884.0,-383.0,-506.0,7168.0
3.5,1552.0,-16.0,16824.0,-434.0,-506.0,4351.0
3.51,1844.0,-192.0,16804.0,-370.0,-505.0,13567.0
3.52,1832.0,-220.0,17028.0,-303.0,-505.0,10495.0
3.53,1924.0,-40.0,17044.0,-293.0,-249.0,-31489.0
3.54,2104.0,12.0,17076.0,-324.0,-248.0,14336.0
3.55,2132.0,32.0,17164.0,-416.0,-248.0,21504.0
3.56,2208.0,-32.0,17140.0,-505.0,8.0,-24321.0
3.57,1832.0,-36.0,17280.0,-538.0,7.0,10495.0
3.58,1620.0,-192.0,16872.0,-583.0,262.0,21759.0
3.59,1340.0,-136.0,16824.0,-617.0,261.0,15615.0
3.6,1144.0,-268.0,16660.0,-657.0,4.0,30974.0
3.61,1160.0,-264.0,16492.0,-706.0,4.0,-30466.0
3.62,1272.0,-532.0,16420.0,-675.0,4.0,-1795.0
3.63,1400.0,-284.0,16576.0,-677.0,261.0,30974.0
3.64,1236.0,-316.0,16464.0,-606.0,260.0,-11010.0
3.65,1092.0,-328.0,16232.0,-578.0,4.0,17662.0
3.66,1036.0,-348.0,16464.0,-642.0,4.0,3326.0
3.67,1104.0,-288.0,16184.0,-721.0,-252.0,20734.0
3.68,1364.0,-164.0,16292.0,-774.0,-251.0,21759.0
3.69,1656.0,-88.0,16316.0,-803.0,6.0,30975.0
3.7,1300.0,-300.0,16196.0,-795.0,5.0,5374.0
3.71,1012.0,-176.0,16360.0,-734.0,3.0,-2817.0
3.72,1096.0,-408.0,16488.0,-602.0,-508.0,18686.0
3.73,1512.0,-256.0,16456.0,-526.0,-507.0,-5889.0
3.74,1720.0,-192.0,16524.0,-521.0,-506.0,-18177.0
3.75,1612.0,24.0,16644.0,-584.0,-250.0,19456.0
3.76,1436.0,-64.0,16540.0,-706.0,-251.0,-25345.0
3.77,1304.0,236.0,16536.0,-822.0,-251.0,6144.0
3.78,1456.0,224.0,16600.0,-984.0,-251.0,-20480.0
3.79,1272.0,-80.0,16612.0,-1175.0,4.0,-1793.0
3.8,952.0,-392.0,16824.0,-1216.0,-253.0,-18178.0
3.81,980.0,-612.0,16860.0,-1076.0,-253.0,-11011.0
3.82,1212.0,-528.0,16852.0,-902.0,-508.0,-17155.0
3.83,1204.0,-440.0,17028.0,-809.0,-508.0,-19202.0
3.84,1556.0,-428.0,17260.0,-804.0,-762.0,5374.0
3.85,2060.0,-540.0,17372.0,-858.0,-504.0,3325.0
3.86,2188.0,-532.0,17360.0,-877.0,-248.0,-29443.0
3.87,2244.0,-424.0,17260.0,-883.0,8.0,-15106.0
3.88,2132.0,-208.0,17116.0,-987.0,264.0,21759.0
3.89,1720.0,0.0,16984.0,-1199.0,518.0,-18432.0
3.9,976.0,-308.0,16880.0,-1375.0,259.0,-12034.0
3.91,744.0,-760.0,17052.0,-1363.0,2.0,-5891.0
3.92,1200.0,-1004.0,17116.0,-1099.0,-252.0,-20228.0
3.93,1784.0,-1284.0,16252.0,-1132.0,1798.0,-1798.0
3.94,2036.0,-1160.0,17052.0,-853.0,-505.0,-2821.0
3.95,1724.0,-1128.0,17288.0,-833.0,-250.0,-17157.0
3.96,1892.0,-976.0,17256.0,-847.0,7.0,25852.0
3.97,1620.0,-936.0,17340.0,-891.0,262.0,21756.0
3.98,1668.0,-1032.0,17292.0,-940.0,262.0,-31493.0
3.99,1672.0,-1068.0,17288.0,-861.0,262.0,-30469.0
3.99,1672.0,-1068.0,17288.0,-861.0,262.0,-30469.0
3.99,1672.0,-1068.0,17288.0,-861.0,262.0,-30469.0
3.99,1672.0,-1068.0,17288.0,-861.0,262.0,-30469.0
3.99,1672.0,-1068.0,17288.0,-861.0,262.0,-30469.0
3.99,1672.0,-1068.0,17288.0,-861.0,262.0,-30469.0
3.99,1672.0,-1068.0,17288.0,-861.0,262.0,-30469.0
3.99,1672.0,-1068.0,17288.0,-861.0,262.0,-30469.0
3.99,1672.0,-1068.0,17288.0,-861.0,262.0,-30469.0
3.99,1672.0,-1068.0,17288.0,-861.0,262.0,-30469.0
3.99,1672.0,-1068.0,17288.0,-861.0,262.0,-30469.0
3.99,1672.0,-1068.0,17288.0,-861.0,262.0,-30469.0
3.99,1672.0,-1068.0,17288.0,-861.0,262.0,-30469.0
3.99,1672.0,-1068.0,17288.0,-861.0,262.0,-30469.0
3.99,1672.0,-1068.0,17288.0,-861.0,262.0,-30469.0
3.99,1672.0,-1068.0,17288.0,-861.0,262.0,-30469.0
3.99,1672.0,-1068.0,17288.0,-861.0,262.0,-30469.0
3.99,1672.0,-1068.0,17288.0,-861.0,262.0,-30469.0
3.99,1672.0,-1068.0,17288.0,-861.0,262.0,-30469.0
3.99,1672.0,-1068.0,17288.0,-861.0,262.0,-30469.0
3.99,1672.0,-1068.0,17288.0,-861.0,262.0,-30469.0
3.99,1672.0,-1068.0,17288.0,-861.0,262.0,-30469.0
3.99,1672.0,-1068.0,17288.0,-861.0,262.0,-30469.0
3.99,1672.0,-1068.0,17288.0,-861.0,262.0,-30469.0
3.99,1672.0,-1068.0,17288.0,-861.0,262.0,-30469.0
3.99,1672.0,-1068.0,17288.0,-861.0,262.0,-30469.0
3.99,1672.0,-1068.0,17288.0,-861.0,262.0,-30469.0
3.99,1672.0,-1068.0,17288.0,-861.0,262.0,-30469.0
3.99,1672.0,-1068.0,17288.0,-861.0,262.0,-30469.0
3.99,1672.0,-1068.0,17288.0,-861.0,262.0,-30469.0
3.99,1672.0,-1068.0,17288.0,-861.0,262.0,-30469.0
3.99,1672.0,-1068.0,17288.0,-861.0,262.0,-30469.0
3.99,1672.0,-1068.0,17288.0,-861.0,262.0,-30469.0
3.99,1672.0,-1068.0,17288.0,-861.0,262.0,-30469.0
3.99,1672.0,-1068.0,17288.0,-861.0,262.0,-30469.0
3.99,1672.0,-1068.0,17288.0,-861.0,262.0,-30469.0
3.99,1672.0,-1068.0,17288.0,-861.0,262.0,-30469.0
3.99,1672.0,-1068.0,17288.0,-861.0,262.0,-30469.0
3.99,1672.0,-1068.0,17288.0,-861.0,262.0,-30469.0
3.99,1672.0,-1068.0,17288.0,-861.0,262.0,-30469.0
3.99,1672.0,-1068.0,17288.0,-861.0,262.0,-30469.0
3.99,1672.0,-1068.0,17288.0,-861.0,262.0,-30469.0
3.99,1672.0,-1068.0,17288.0,-861.0,262.0,-30469.0
3.99,1672.0,-1068.0,17288.0,-861.0,262.0,-30469.0
3.99,1672.0,-1068.0,17288.0,-861.0,262.0,-30469.0
3.99,1672.0,-1068.0,17288.0,-861.0,262.0,-30469.0
3.99,1672.0,-1068.0,17288.0,-861.0,262.0,-30469.0
3.99,1672.0,-1068.0,17288.0,-861.0,262.0,-30469.0
3.99,1672.0,-1068.0,17288.0,-861.0,262.0,-30469.0
3.99,1672.0,-1068.0,17288.0,-861.0,262.0,-30469.0
3.99,1672.0,-1068.0,17288.0,-861.0,262.0,-30469.0
