Time,acce_x,acce_y,acce_z,gyro_x,gyro_y,gyro_z
0.0,2420.0,-1020.0,16752.0,-462.0,9.0,29948.0
0.0,2420.0,-1020.0,16752.0,-462.0,9.0,29948.0
0.0,2420.0,-1020.0,16752.0,-462.0,9.0,29948.0
0.0,2420.0,-1020.0,16752.0,-462.0,9.0,29948.0
0.0,2420.0,-1020.0,16752.0,-462.0,9.0,29948.0
0.0,2420.0,-1020.0,16752.0,-462.0,9.0,29948.0
0.0,2420.0,-1020.0,16752.0,-462.0,9.0,29948.0
0.0,2420.0,-1020.0,16752.0,-462.0,9.0,29948.0
0.0,2420.0,-1020.0,16752.0,-462.0,9.0,29948.0
0.0,2420.0,-1020.0,16752.0,-462.0,9.0,29948.0
0.0,2420.0,-1020.0,16752.0,-462.0,9.0,29948.0
0.0,2420.0,-1020.0,16752.0,-462.0,9.0,29948.0
0.0,2420.0,-1020.0,16752.0,-462.0,9.0,29948.0
0.0,2420.0,-1020.0,16752.0,-462.0,9.0,29948.0
0.0,2420.0,-1020.0,16752.0,-462.0,9.0,29948.0
0.0,2420.0,-1020.0,16752.0,-462.0,9.0,29948.0
0.0,2420.0,-1020.0,16752.0,-462.0,9.0,29948.0
0.0,2420.0,-1020.0,16752.0,-462.0,9.0,29948.0
0.0,2420.0,-1020.0,16752.0,-462.0,9.0,29948.0
0.0,2420.0,-1020.0,16752.0,-462.0,9.0,29948.0
0.0,2420.0,-1020.0,16752.0,-462.0,9.0,29948.0
0.0,2420.0,-1020.0,16752.0,-462.0,9.0,29948.0
0.0,2420.0,-1020.0,16752.0,-462.0,9.0,29948.0
0.0,2420.0,-1020.0,16752.0,-462.0,9.0,29948.0
0.0,2420.0,-1020.0,16752.0,-462.0,9.0,29948.0
0.0,2420.0,-1020.0,16752.0,-462.0,9.0,29948.0
0.0,2420.0,-1020.0,16752.0,-462.0,9.0,29948.0
0.0,2420.0,-1020.0,16752.0,-462.0,9.0,29948.0
0.0,2420.0,-1020.0,16752.0,-462.0,9.0,29948.0
0.0,2420.0,-1020.0,16752.0,-462.0,9.0,29948.0
0.0,2420.0,-1020.0,16752.0,-462.0,9.0,29948.0
0.0,2420.0,-1020.0,16752.0,-462.0,9.0,29948.0
0.0,2420.0,-1020.0,16752.0,-462.0,9.0,29948.0
0.0,2420.0,-1020.0,16752.0,-462.0,9.0,29948.0
0.0,2420.0,-1020.0,16752.0,-462.0,9.0,29948.0
0.0,2420.0,-1020.0,16752.0,-462.0,9.0,29948.0
0.0,2420.0,-1020.0,16752.0,-462.0,9.0,29948.0
0.0,2420.0,-1020.0,16752.0,-462.0,9.0,29948.0
0.0,2420.0,-1020.0,16752.0,-462.0,9.0,29948.0
0.0,2420.0,-1020.0,16752.0,-462.0,9.0,29948.0
0.0,2420.0,-1020.0,16752.0,-462.0,9.0,29948.0
0.0,2420.0,-1020.0,16752.0,-462.0,9.0,29948.0
0.0,2420.0,-1020.0,16752.0,-462.0,9.0,29948.0
0.0,2420.0,-1020.0,16752.0,-462.0,9.0,29948.0
0.0,2420.0,-1020.0,16752.0,-462.0,9.0,29948.0
0.0,2420.0,-1020.0,16752.0,-462.0,9.0,29948.0
0.0,2420.0,-1020.0,16752.0,-462.0,9.0,29948.0
0.0,2420.0,-1020.0,16752.0,-462.0,9.0,29948.0
0.0,2420.0,-1020.0,16752.0,-462.0,9.0,29948.0
0.0,2420.0,-1020.0,16752.0,-462.0,9.0,29948.0
0.0,2420.0,-1020.0,16752.0,-462.0,9.0,29948.0
0.01,2524.0,-1044.0,16708.0,-401.0,265.0,-8965.0
0.02,2404.0,-1092.0,17040.0,-331.0,265.0,25851.0
0.03,2416.0,-920.0,17164.0,-249.0,9.0,28924.0
0.04,2440.0,-912.0,17116.0,-142.0,9.0,-30468.0
0.05,2332.0,-696.0,17064.0,-70.0,9.0,7421.0
0.06,2492.0,-592.0,16956.0,-140.0,9.0,-17155.0
0.07,2592.0,-640.0,16656.0,-248.0,266.0,8445.0
0.08,2532.0,-632.0,16644.0,-287.0,265.0,-6915.0
0.09,2624.0,-600.0,16572.0,-340.0,266.0,16637.0
0.1,2484.0,-568.0,16740.0,-459.0,521.0,-19203.0
0.11,2448.0,-1032.0,16652.0,-566.0,777.0,-28421.0
0.12,2028.0,-720.0,16732.0,-611.0,775.0,-4867.0
0.13,2340.0,-936.0,16712.0,-584.0,777.0,9468.0
0.14,1740.0,-1032.0,16592.0,-562.0,518.0,-13061.0
0.15,1852.0,-1200.0,16652.0,-600.0,519.0,15611.0
0.16,1672.0,-1416.0,16756.0,-550.0,518.0,-30470.0
0.17,1584.0,-1552.0,16772.0,-422.0,518.0,12537.0
0.18,1620.0,-1488.0,16732.0,-344.0,518.0,21754.0
0.19,1444.0,-1320.0,16644.0,-317.0,261.0,-23302.0
0.2,1532.0,-1412.0,16604.0,-324.0,5.0,-774.0
0.21,1508.0,-1496.0,16800.0,-293.0,-251.0,-6918.0
0.22,2004.0,-1596.0,16904.0,-181.0,-249.0,-11015.0
0.23,2212.0,-1468.0,17052.0,-116.0,-248.0,-23302.0
0.24,2436.0,-1372.0,17132.0,-98.0,-247.0,-31494.0
0.25,2440.0,-1252.0,17008.0,-72.0,9.0,-30469.0
0.26,2492.0,-1088.0,16900.0,-124.0,9.0,-17157.0
0.27,2428.0,-1144.0,16792.0,-219.0,265.0,31995.0
0.28,2292.0,-1148.0,16848.0,-295.0,264.0,-2821.0
0.29,2148.0,-1272.0,16820.0,-387.0,8.0,25851.0
0.3,1836.0,-1444.0,16872.0,-411.0,7.0,11514.0
0.31,1888.0,-1636.0,16856.0,-358.0,-249.0,24825.0
0.32,2240.0,-1812.0,17028.0,-229.0,-248.0,-16136.0
0.33,2316.0,-1764.0,17332.0,-111.0,9.0,3321.0
0.34,2180.0,-1496.0,17092.0,0.0,8.0,-31494.0
0.35,2192.0,-1556.0,16916.0,-29.0,8.0,-28423.0
0.36,2092.0,-1580.0,16988.0,-112.0,8.0,11513.0
0.37,1972.0,-1524.0,16960.0,-123.0,-249.0,-19206.0
0.38,1844.0,-1544.0,16872.0,-84.0,-249.0,13561.0
0.39,1876.0,-1492.0,16984.0,-88.0,-249.0,21754.0
0.4,2088.0,-1684.0,16780.0,-42.0,-504.0,10489.0
0.41,2180.0,-1656.0,16828.0,23.0,-248.0,-31495.0
0.42,2336.0,-1616.0,16848.0,97.0,-247.0,8441.0
0.43,2372.0,-1344.0,16744.0,177.0,9.0,17658.0
0.44,2120.0,-984.0,16620.0,101.0,8.0,18684.0
0.45,2192.0,-732.0,16660.0,140.0,8.0,-28419.0
0.46,2136.0,-804.0,16332.0,133.0,8.0,22780.0
0.47,2272.0,-804.0,16324.0,29.0,-248.0,-7940.0
0.48,2348.0,-996.0,16512.0,-59.0,-247.0,11516.0
0.49,2548.0,-1228.0,16488.0,-66.0,-247.0,-2821.0
0.5,2476.0,-1396.0,16616.0,27.0,9.0,-21254.0
0.51,2156.0,-1380.0,16784.0,200.0,264.0,27898.0
0.52,1892.0,-1136.0,16756.0,272.0,263.0,25851.0
0.53,1800.0,-868.0,16864.0,289.0,263.0,2300.0
0.54,1636.0,-848.0,16712.0,266.0,6.0,25852.0
0.55,2008.0,-980.0,16784.0,204.0,7.0,-9988.0
0.56,2060.0,-972.0,16780.0,129.0,8.0,3324.0
0.57,2248.0,-1004.0,16828.0,109.0,8.0,-14084.0
0.58,2212.0,-860.0,16776.0,151.0,8.0,-23300.0
0.59,1992.0,-740.0,16852.0,137.0,263.0,-14083.0
0.6,1960.0,-472.0,16864.0,96.0,263.0,-22274.0
0.61,2072.0,-624.0,16696.0,183.0,264.0,6397.0
0.62,2212.0,-452.0,16656.0,140.0,520.0,-23298.0
0.63,2288.0,-368.0,16640.0,47.0,264.0,-3842.0
0.64,2160.0,-224.0,16648.0,-169.0,520.0,28927.0
0.65,2112.0,24.0,16860.0,-150.0,264.0,16384.0
0.66,2604.0,136.0,17804.0,-6.0,-246.0,11264.0
0.67,1668.0,-148.0,16700.0,-141.0,262.0,-31489.0
0.68,1624.0,-152.0,16808.0,-219.0,262.0,22783.0
0.69,1688.0,-80.0,16740.0,-260.0,6.0,-26369.0
0.7,2040.0,-196.0,16760.0,-381.0,-249.0,-1793.0
0.71,2216.0,-300.0,16800.0,-409.0,8.0,-22274.0
0.72,2040.0,-420.0,16808.0,-378.0,7.0,-1794.0
0.73,1836.0,-284.0,16700.0,-413.0,7.0,11518.0
0.74,1816.0,-628.0,16684.0,-421.0,7.0,6397.0
0.75,1816.0,-904.0,16840.0,-382.0,-249.0,6396.0
0.76,1876.0,-920.0,16680.0,-379.0,-249.0,21756.0
0.77,1664.0,-1096.0,16732.0,-365.0,-506.0,-32517.0
0.78,1744.0,-932.0,16628.0,-335.0,-762.0,-12036.0
0.79,1784.0,-904.0,16656.0,-394.0,-762.0,-1796.0
0.8,1816.0,-924.0,16716.0,-472.0,-761.0,6396.0
0.81,1688.0,-1148.0,16388.0,-456.0,-1018.0,-26373.0
0.82,1924.0,-1188.0,16548.0,-370.0,-1017.0,-31493.0
0.83,2176.0,-1328.0,16568.0,-297.0,-1016.0,-32518.0
0.84,2236.0,-1364.0,16512.0,-286.0,-1016.0,-17158.0
0.85,2400.0,-1548.0,16452.0,-230.0,-1015.0,24825.0
0.86,2496.0,-1396.0,16532.0,-157.0,-1015.0,-16134.0
0.87,2636.0,-1264.0,16300.0,-81.0,-758.0,19707.0
0.88,2580.0,-1280.0,16352.0,-140.0,-758.0,5371.0
0.89,2752.0,-1276.0,16452.0,-151.0,-1014.0,-16133.0
0.9,2644.0,-1272.0,16244.0,-126.0,-246.0,21755.0
0.91,2416.0,-1164.0,16208.0,-94.0,9.0,28923.0
0.92,2124.0,-1236.0,16184.0,-57.0,8.0,19707.0
0.93,1948.0,-1216.0,15956.0,40.0,7.0,-25349.0
0.94,1632.0,-1216.0,15752.0,14.0,-250.0,24827.0
0.95,1684.0,-1148.0,15652.0,-15.0,-250.0,-27397.0
0.96,1172.0,-1100.0,15544.0,-84.0,-508.0,-27397.0
0.97,1796.0,-1116.0,15640.0,-263.0,-761.0,1275.0
0.98,1304.0,-1184.0,15356.0,-315.0,-763.0,6395.0
0.99,1276.0,-1120.0,15256.0,-375.0,-1020.0,-773.0
1.0,1308.0,-1228.0,15428.0,-508.0,-1275.0,7419.0
1.01,1656.0,-1752.0,15376.0,-583.0,-1274.0,30969.0
1.02,1720.0,-2416.0,15280.0,-583.0,-1274.0,-18186.0
1.03,1980.0,-2672.0,15280.0,-380.0,-1273.0,-17163.0
1.04,2252.0,-2728.0,14772.0,-201.0,-1016.0,-13067.0
1.05,1952.0,-2444.0,14000.0,74.0,-761.0,-24330.0
1.06,2056.0,-1716.0,13732.0,-1.0,-248.0,2297.0
1.07,1696.0,-884.0,13476.0,-205.0,262.0,-24324.0
1.08,1128.0,48.0,13348.0,-667.0,516.0,26624.0
1.09,860.0,228.0,13012.0,-1116.0,515.0,23552.0
1.1,1068.0,196.0,13172.0,-1484.0,4.0,11264.0
1.11,1516.0,16.0,13220.0,-1772.0,5.0,-5120.0
1.12,2120.0,-500.0,13068.0,-1858.0,-248.0,18686.0
1.13,2632.0,-984.0,13008.0,-1970.0,-246.0,18684.0
1.14,2868.0,-1228.0,13036.0,-1871.0,11.0,13563.0
1.15,2932.0,-1100.0,13040.0,-1565.0,523.0,29947.0
1.16,2552.0,-620.0,12724.0,-1276.0,1033.0,-1795.0
1.17,1656.0,-64.0,12764.0,-1318.0,1030.0,30975.0
1.18,1836.0,288.0,13304.0,-1386.0,519.0,11265.0
1.19,1468.0,404.0,12524.0,-1564.0,517.0,-17407.0
1.2,1696.0,756.0,12072.0,-2012.0,262.0,-24574.0
1.21,2560.0,1140.0,11988.0,-2702.0,266.0,4.0
1.22,3648.0,976.0,11924.0,-3463.0,782.0,16387.0
1.23,4492.0,444.0,11724.0,-4193.0,1553.0,-29695.0
1.24,4016.0,-256.0,11820.0,-4737.0,2575.0,-20225.0
1.25,3740.0,-732.0,11976.0,-5005.0,3086.0,-25347.0
1.26,3008.0,-1368.0,12228.0,-5232.0,3339.0,-16134.0
1.27,2224.0,-1768.0,12172.0,-5456.0,3592.0,-20231.0
1.28,1352.0,-1968.0,12108.0,-5521.0,3845.0,18680.0
1.29,-488.0,-2068.0,11756.0,-5425.0,4094.0,6391.0
1.3,-2704.0,-2048.0,11684.0,-5499.0,3573.0,28920.0
1.31,-3212.0,-1696.0,11840.0,-5874.0,2291.0,29945.0
1.32,-2480.0,-1812.0,12400.0,-6438.0,1014.0,20728.0
1.33,-1140.0,-2980.0,13292.0,-6759.0,-261.0,-29452.0
1.34,284.0,-4476.0,14196.0,-5976.0,-767.0,7406.0
1.35,3368.0,-3376.0,14932.0,-6391.0,-243.0,10482.0
1.36,3476.0,-3844.0,14852.0,-5623.0,-499.0,-27408.0
1.37,2592.0,-2508.0,13980.0,-7380.0,3338.0,8438.0
1.38,2224.0,-2400.0,14820.0,-6408.0,1544.0,-20234.0
1.39,2056.0,-1968.0,14292.0,-5636.0,1800.0,2296.0
1.4,2652.0,-644.0,13876.0,-6475.0,1802.0,23805.0
1.41,2880.0,-840.0,13800.0,-7666.0,2827.0,16636.0
1.42,2096.0,-1136.0,14116.0,-8445.0,3080.0,12539.0
1.43,1332.0,-2396.0,14636.0,-9334.0,3333.0,13558.0
1.44,356.0,-4168.0,15432.0,-10066.0,3073.0,25839.0
1.45,-1132.0,-6568.0,16828.0,-10274.0,2811.0,-27418.0
1.46,-1800.0,-8232.0,17380.0,-9745.0,2040.0,-1825.0
1.47,-1940.0,-8776.0,17564.0,-9241.0,2040.0,27869.0
1.48,-1736.0,-7976.0,17368.0,-9052.0,2809.0,14560.0
1.49,-2320.0,-7120.0,16824.0,-9170.0,3062.0,-3868.0
1.5,-3260.0,-6804.0,16712.0,-9287.0,2291.0,17637.0
1.51,-3120.0,-7012.0,16504.0,-9068.0,755.0,-12060.0
1.52,-2308.0,-7384.0,16572.0,-8707.0,-522.0,-797.0
1.53,-228.0,-7052.0,17104.0,-8480.0,-1537.0,7396.0
1.54,2132.0,-7080.0,17380.0,-8745.0,-1784.0,21732.0
1.55,3296.0,-7976.0,17564.0,-9284.0,-500.0,-7968.0
1.56,2904.0,-8844.0,17972.0,-9436.0,779.0,22749.0
1.57,2304.0,-9300.0,17932.0,-9325.0,2057.0,219.0
1.58,184.0,-9756.0,17488.0,-9133.0,2816.0,-18215.0
1.59,-1520.0,-10620.0,17684.0,-8540.0,2810.0,4310.0
1.6,-3204.0,-10392.0,18040.0,-7794.0,1779.0,31959.0
1.61,-2216.0,-10556.0,18316.0,-7018.0,-265.0,22742.0
1.62,-236.0,-10872.0,19096.0,-5504.0,-1793.0,5333.0
1.63,2528.0,-10576.0,19536.0,-3829.0,-2039.0,-7978.0
1.64,3536.0,-10356.0,19732.0,-2713.0,-1267.0,-12073.0
1.65,3648.0,-9736.0,19392.0,-2137.0,270.0,16601.0
1.66,2980.0,-9164.0,18656.0,-2109.0,1803.0,-23332.0
1.67,1548.0,-8560.0,17392.0,-2424.0,3078.0,3294.0
1.68,-212.0,-7896.0,16280.0,-2983.0,3583.0,11489.0
1.69,-1868.0,-6872.0,15552.0,-3658.0,3064.0,-19227.0
1.7,-2592.0,-6908.0,14824.0,-4274.0,2549.0,-7963.0
1.71,-2716.0,-7604.0,14688.0,-4612.0,1269.0,25826.0
1.72,-2424.0,-7900.0,14700.0,-4703.0,-10.0,-30495.0
1.73,-1680.0,-8152.0,14612.0,-4575.0,-775.0,28896.0
1.74,-588.0,-8320.0,14496.0,-4588.0,-1283.0,-19233.0
1.75,460.0,-8656.0,14084.0,-4781.0,-1023.0,-13090.0
1.76,1332.0,-8868.0,13884.0,-4823.0,-251.0,13533.0
1.77,2016.0,-8768.0,13092.0,-5174.0,519.0,-7971.0
1.78,1788.0,-8544.0,12756.0,-5815.0,1286.0,-802.0
1.79,1152.0,-9036.0,12644.0,-6413.0,1540.0,-32548.0
1.8,220.0,-9684.0,12996.0,-6673.0,1280.0,-8998.0
1.81,-248.0,-9744.0,12996.0,-6701.0,1535.0,2265.0
1.82,-244.0,-9720.0,12988.0,-6927.0,1535.0,3290.0
1.83,-768.0,-9844.0,12928.0,-7196.0,1789.0,217.0
1.84,-648.0,-9512.0,12772.0,-7526.0,2301.0,30938.0
1.85,-216.0,-9612.0,12712.0,-7838.0,2815.0,10458.0
1.86,-464.0,-10000.0,12452.0,-8085.0,3326.0,12504.0
1.87,-1476.0,-10668.0,11972.0,-8301.0,3834.0,15574.0
1.88,-2176.0,-10516.0,11216.0,-9005.0,3575.0,-32554.0
1.89,-2748.0,-11304.0,11188.0,-10025.0,2805.0,17619.0
1.9,-2692.0,-12248.0,11740.0,-10545.0,2037.0,31952.0
1.91,-1864.0,-12192.0,12208.0,-10657.0,1784.0,-18224.0
1.92,-1216.0,-11976.0,12252.0,-10861.0,1531.0,16593.0
1.93,-600.0,-11584.0,12268.0,-11365.0,1533.0,-22318.0
1.94,-12.0,-11848.0,12312.0,-11686.0,1535.0,-2863.0
1.95,840.0,-11980.0,12088.0,-12084.0,2051.0,18641.0
1.96,556.0,-12364.0,12136.0,-12260.0,2562.0,11471.0
1.97,-448.0,-12660.0,12308.0,-12166.0,2558.0,16590.0
1.98,-1668.0,-13300.0,12728.0,-11942.0,1785.0,31948.0
1.99,-2304.0,-13140.0,12684.0,-11762.0,759.0,204.0
2.0,-3132.0,-13976.0,13472.0,-11845.0,-13.0,-15159.0
2.01,-2352.0,-14392.0,12560.0,-12239.0,-522.0,-12089.0
2.02,-1184.0,-15192.0,12504.0,-12695.0,-1029.0,24772.0
2.03,-184.0,-16836.0,12752.0,-13006.0,-1025.0,18622.0
2.04,-24.0,-17020.0,12892.0,-12957.0,-769.0,-5955.0
2.05,-160.0,-16840.0,13152.0,-12716.0,-769.0,24766.0
2.06,108.0,-16936.0,13064.0,-12473.0,-1280.0,27837.0
2.07,792.0,-16984.0,13060.0,-11958.0,-1021.0,6333.0
2.08,1852.0,-17080.0,12968.0,-11321.0,-505.0,15549.0
2.09,2736.0,-17028.0,12676.0,-10906.0,778.0,-20291.0
2.1,3160.0,-16212.0,12528.0,-10702.0,2316.0,22720.0
2.11,1632.0,-16580.0,12256.0,-10442.0,3590.0,24767.0
2.12,-584.0,-17332.0,11928.0,-9993.0,4093.0,-18244.0
2.13,-2796.0,-17404.0,11212.0,-9681.0,3573.0,5308.0
2.14,-3736.0,-17820.0,11292.0,-8842.0,2545.0,26810.0
2.15,-3856.0,-17424.0,11060.0,-7551.0,496.0,-3909.0
2.16,-3024.0,-17120.0,10968.0,-6646.0,-1292.0,12477.0
2.17,-1468.0,-17676.0,10740.0,-5557.0,-2310.0,17594.0
2.18,472.0,-16996.0,10720.0,-4659.0,-2815.0,-10051.0
2.19,1608.0,-15868.0,10104.0,-4498.0,-1786.0,18626.0
2.2,2384.0,-15208.0,9816.0,-4704.0,-759.0,20676.0
2.21,2200.0,-15608.0,9980.0,-5007.0,520.0,-26429.0
2.22,-1884.0,-10260.0,16316.0,-7246.0,3320.0,-23337.0
2.23,2580.0,-14824.0,10460.0,-3486.0,2058.0,5318.0
2.24,-1832.0,-14012.0,9988.0,-4264.0,2552.0,-10039.0
2.25,-796.0,-17224.0,11592.0,-3289.0,1532.0,-6980.0
2.26,-2600.0,-16180.0,11748.0,-1964.0,1013.0,-10048.0
2.27,-1664.0,-16696.0,12068.0,-1345.0,-263.0,-32578.0
2.28,-792.0,-16488.0,12264.0,-385.0,-516.0,-5953.0
2.29,340.0,-15856.0,12040.0,57.0,-767.0,21698.0
2.3,976.0,-15336.0,12216.0,123.0,-765.0,-12092.0
2.31,1144.0,-15888.0,11944.0,629.0,-508.0,30913.0
2.32,896.0,-16060.0,12188.0,1535.0,-509.0,-32575.0
2.33,504.0,-15744.0,11944.0,1960.0,-255.0,-1854.0
2.34,408.0,-15288.0,11508.0,2601.0,-511.0,-26428.0
2.35,548.0,-14840.0,10960.0,2893.0,-254.0,9414.0
2.36,348.0,-14580.0,10656.0,2685.0,-511.0,23751.0
2.37,232.0,-14436.0,10656.0,2438.0,-768.0,-5945.0
2.38,256.0,-14992.0,10516.0,2172.0,-1023.0,197.0
2.39,152.0,-15388.0,10772.0,2103.0,-768.0,-26429.0
2.4,64.0,-15292.0,10768.0,2282.0,-768.0,16580.0
2.41,0.0,-15428.0,11220.0,2414.0,-768.0,195.0
2.42,-156.0,-16384.0,11628.0,2586.0,-513.0,25792.0
2.43,-160.0,-16352.0,12000.0,3154.0,-257.0,24768.0
2.44,-488.0,-16104.0,12080.0,3683.0,254.0,6337.0
2.45,-856.0,-15912.0,12120.0,4199.0,252.0,-22335.0
2.46,-796.0,-15696.0,11868.0,4553.0,-4.0,-6974.0
2.47,-752.0,-15604.0,11848.0,4865.0,-259.0,4291.0
2.48,-960.0,-15284.0,11676.0,5198.0,-772.0,16580.0
2.49,-900.0,-14972.0,11352.0,5285.0,-1028.0,31941.0
2.5,-584.0,-14916.0,11344.0,5131.0,-1283.0,-18235.0
2.51,-696.0,-14960.0,11336.0,4996.0,-1283.0,18629.0
2.52,-836.0,-15080.0,11052.0,5035.0,-1284.0,-17211.0
2.53,-448.0,-14728.0,11084.0,4956.0,-1026.0,16582.0
2.54,-584.0,-14676.0,10888.0,4832.0,-771.0,-18234.0
2.55,-336.0,-14368.0,10808.0,4598.0,-514.0,-20281.0
2.56,-240.0,-14220.0,10968.0,4338.0,-513.0,4296.0
2.57,-392.0,-15208.0,11104.0,4344.0,-514.0,30916.0
2.58,-644.0,-16384.0,11660.0,4938.0,-1027.0,31936.0
2.59,-344.0,-16668.0,11708.0,5902.0,-1282.0,-22338.0
2.6,-472.0,-15900.0,11784.0,6651.0,-1538.0,10433.0
2.61,-396.0,-14896.0,11652.0,7030.0,-1538.0,29893.0
2.62,-232.0,-14772.0,11644.0,7204.0,-1793.0,6342.0
2.63,168.0,-14836.0,11704.0,7245.0,-2048.0,-22330.0
2.64,280.0,-14196.0,11884.0,7241.0,-1791.0,6344.0
2.65,468.0,-14128.0,11960.0,7401.0,-1791.0,-11064.0
2.66,560.0,-14692.0,12068.0,7626.0,-1790.0,12486.0
2.67,276.0,-15088.0,12312.0,7953.0,-1535.0,5317.0
2.68,20.0,-14892.0,12656.0,8321.0,-1536.0,5317.0
2.69,-76.0,-14704.0,12568.0,8672.0,-1537.0,-19258.0
2.7,84.0,-14368.0,12600.0,8774.0,-1792.0,21703.0
2.71,76.0,-13876.0,12812.0,8676.0,-1792.0,19657.0
2.72,248.0,-13808.0,12912.0,8721.0,-1792.0,-1846.0
2.73,404.0,-13448.0,12948.0,8652.0,-1791.0,-27445.0
2.74,280.0,-13440.0,13056.0,8473.0,-1279.0,6347.0
2.75,140.0,-13432.0,12988.0,8538.0,-1280.0,-29493.0
2.76,188.0,-13916.0,13356.0,8818.0,-1280.0,-17207.0
2.77,-104.0,-13916.0,13468.0,9238.0,-1025.0,-26423.0
2.78,-136.0,-13324.0,13488.0,9622.0,-1281.0,30923.0
2.79,-36.0,-12644.0,13408.0,9739.0,-1281.0,-9010.0
2.8,16.0,-12192.0,13184.0,9713.0,-1536.0,4304.0
2.81,52.0,-12176.0,13036.0,9620.0,-1792.0,13520.0
2.82,76.0,-11996.0,13132.0,9517.0,-1536.0,19665.0
2.83,-284.0,-11424.0,12952.0,9409.0,-1282.0,-6957.0
2.84,-472.0,-11156.0,12816.0,9249.0,-1282.0,10452.0
2.85,-356.0,-10804.0,12804.0,8897.0,-1282.0,-25387.0
2.86,-380.0,-11092.0,12952.0,8618.0,-1538.0,-31532.0
2.87,-288.0,-11728.0,13256.0,8700.0,-1538.0,-7982.0
2.88,-392.0,-11804.0,13448.0,9073.0,-1794.0,30929.0
2.89,-244.0,-11052.0,13304.0,9387.0,-2049.0,3284.0
2.9,-36.0,-10372.0,13388.0,9366.0,-2049.0,-9001.0
2.91,252.0,-10172.0,13304.0,9208.0,-2304.0,-808.0
2.92,468.0,-9540.0,13144.0,9077.0,-2303.0,-11046.0
2.93,512.0,-8804.0,13024.0,8733.0,-2046.0,221.0
2.94,468.0,-8728.0,13032.0,8089.0,-1791.0,-11043.0
2.95,156.0,-9004.0,13248.0,7541.0,-1792.0,-25380.0
2.96,-92.0,-9880.0,13588.0,7494.0,-1793.0,-23335.0
2.97,-116.0,-9712.0,13744.0,7645.0,-2049.0,-29478.0
2.98,132.0,-9632.0,13800.0,7731.0,-2560.0,-31526.0
2.99,-220.0,-9556.0,14088.0,7878.0,-2561.0,9434.0
3.0,-8.0,-9552.0,14116.0,8231.0,-3329.0,-1830.0
3.01,644.0,-9132.0,14184.0,8509.0,-3838.0,-31524.0
3.02,1316.0,-8544.0,13932.0,8477.0,-3835.0,9438.0
3.03,1980.0,-8264.0,13768.0,8181.0,-3065.0,-17185.0
3.04,2072.0,-8040.0,13828.0,7876.0,-2296.0,6368.0
3.05,1764.0,-8364.0,13864.0,7734.0,-1786.0,-6945.0
3.06,1340.0,-8428.0,13868.0,7742.0,-1275.0,15583.0
3.07,1332.0,-7980.0,13976.0,7791.0,-1019.0,13536.0
3.08,1172.0,-7656.0,13772.0,7704.0,-1020.0,-27422.0
3.09,840.0,-7228.0,13684.0,7469.0,-1021.0,18659.0
3.1,476.0,-7124.0,13960.0,7166.0,-1279.0,-8988.0
3.11,332.0,-7092.0,14128.0,6966.0,-1535.0,19684.0
3.12,364.0,-7116.0,14172.0,6931.0,-2047.0,27876.0
3.13,672.0,-7252.0,14252.0,6970.0,-2302.0,-24349.0
3.14,1128.0,-7040.0,14344.0,7086.0,-2556.0,26852.0
3.15,1340.0,-6844.0,14660.0,7300.0,-2555.0,15589.0
3.16,1104.0,-6456.0,14596.0,7542.0,-2300.0,20710.0
3.17,568.0,-6144.0,14808.0,7681.0,-2558.0,14568.0
3.18,204.0,-5556.0,14632.0,7594.0,-2816.0,-13078.0
3.19,-20.0,-5356.0,14400.0,7397.0,-2817.0,-4885.0
3.2,52.0,-4976.0,14444.0,7179.0,-3584.0,13548.0
3.21,372.0,-4940.0,14300.0,6862.0,-4095.0,29932.0
3.22,1108.0,-5108.0,14352.0,6477.0,-4348.0,21740.0
3.23,1796.0,-4880.0,14572.0,6076.0,-4089.0,1260.0
3.24,2112.0,-4364.0,14776.0,5731.0,-3832.0,16622.0
3.25,2428.0,-3872.0,14980.0,5323.0,-3319.0,31984.0
3.26,2452.0,-3636.0,14940.0,4794.0,-2807.0,-27407.0
3.27,2240.0,-3612.0,15004.0,4223.0,-2296.0,-16143.0
3.28,2064.0,-4388.0,15332.0,4029.0,-2296.0,4334.0
3.29,2148.0,-5016.0,15648.0,4209.0,-2040.0,25836.0
3.3,2036.0,-5236.0,15696.0,4573.0,-2041.0,-2837.0
3.31,2104.0,-4540.0,15588.0,4845.0,-2040.0,14574.0
3.32,2032.0,-4048.0,15740.0,4844.0,-2041.0,-3856.0
3.33,2160.0,-3524.0,15464.0,4756.0,-2040.0,28914.0
3.34,2504.0,-3120.0,15360.0,4589.0,-2039.0,-14093.0
3.35,2652.0,-2708.0,15084.0,4228.0,-2038.0,23797.0
3.36,3228.0,-1880.0,14960.0,3729.0,-2036.0,-25352.0
3.37,3524.0,-1932.0,14796.0,3039.0,-1779.0,-15112.0
3.38,3024.0,-3196.0,14764.0,2727.0,-1269.0,-12045.0
3.39,2772.0,-4088.0,15120.0,3085.0,-1014.0,-11024.0
3.4,2540.0,-3816.0,15212.0,3686.0,-759.0,-4879.0
3.41,2356.0,-3444.0,15480.0,4224.0,-1015.0,13554.0
3.42,2236.0,-2944.0,15324.0,4418.0,-1528.0,-17164.0
3.43,2260.0,-3012.0,15284.0,4510.0,-2040.0,-11020.0
3.44,2512.0,-2920.0,15088.0,4544.0,-2295.0,-12044.0
3.45,2668.0,-2748.0,14932.0,4487.0,-2294.0,27893.0
3.46,2992.0,-2512.0,14760.0,4409.0,-2037.0,-20234.0
3.47,3528.0,-2032.0,14824.0,4226.0,-1779.0,-14088.0
3.48,3844.0,-1516.0,14592.0,3940.0,-1521.0,1274.0
3.49,3904.0,-1408.0,14736.0,3725.0,-1265.0,16634.0
3.5,3900.0,-1284.0,14620.0,3554.0,-1009.0,15610.0
3.51,3668.0,-1216.0,14600.0,3394.0,-754.0,21755.0
3.52,3336.0,-952.0,14748.0,3278.0,-755.0,2300.0
3.53,3336.0,-740.0,14632.0,2987.0,-755.0,2301.0
3.54,3408.0,-612.0,14672.0,2568.0,-1011.0,20733.0
3.55,3696.0,-396.0,14560.0,2160.0,-754.0,28926.0
3.56,3864.0,-32.0,14404.0,1698.0,-497.0,6399.0
3.57,3752.0,88.0,14184.0,1332.0,14.0,-22528.0
3.58,3648.0,316.0,13928.0,894.0,270.0,16385.0
3.59,3668.0,836.0,13684.0,327.0,270.0,21507.0
3.6,3236.0,-176.0,13432.0,-120.0,524.0,-23297.0
3.61,2968.0,-352.0,13384.0,-27.0,779.0,-26370.0
3.62,2832.0,-744.0,13560.0,266.0,523.0,4349.0
3.63,2748.0,-1168.0,13920.0,771.0,266.0,-17157.0
3.64,2780.0,-928.0,13772.0,1324.0,266.0,-8964.0
3.65,2600.0,-252.0,13744.0,1690.0,10.0,10495.0
3.66,2676.0,852.0,13372.0,1625.0,-246.0,29699.0
3.67,2720.0,1424.0,12888.0,1203.0,10.0,-24571.0
3.68,2488.0,1892.0,12780.0,592.0,9.0,-18425.0
3.69,2124.0,2508.0,12520.0,-166.0,264.0,19465.0
3.7,1956.0,2868.0,12532.0,-1115.0,263.0,-23541.0
3.71,1964.0,2952.0,12432.0,-2206.0,-249.0,-21493.0
3.72,2220.0,1380.0,12948.0,-2860.0,-760.0,-21499.0
3.73,2688.0,-172.0,13572.0,-2623.0,-1014.0,-32513.0
3.74,3360.0,-728.0,14156.0,-1892.0,-1011.0,8445.0
3.75,3948.0,-484.0,14652.0,-1449.0,-1009.0,27902.0
3.76,4276.0,152.0,14652.0,-1229.0,-752.0,-19456.0
3.77,4104.0,196.0,15000.0,-1345.0,-496.0,2048.0
3.78,4072.0,260.0,14996.0,-1548.0,-241.0,-6143.0
3.79,3828.0,-8.0,15208.0,-1731.0,14.0,-2817.0
3.8,3660.0,-392.0,15336.0,-1920.0,14.0,19710.0
3.81,3732.0,-1120.0,15728.0,-2007.0,-242.0,-27397.0
3.82,3844.0,-1608.0,16360.0,-1790.0,-241.0,1273.0
3.83,4124.0,-1764.0,16460.0,-1479.0,16.0,7417.0
3.84,4344.0,-1596.0,16488.0,-1271.0,272.0,-1799.0
3.85,4072.0,-1404.0,16464.0,-1205.0,783.0,-5894.0
3.86,3460.0,-1148.0,16248.0,-1279.0,781.0,-31493.0
3.87,2924.0,-1064.0,16316.0,-1466.0,779.0,27899.0
3.88,2688.0,-1084.0,16280.0,-1687.0,266.0,-32517.0
3.89,2728.0,-1404.0,16464.0,-1893.0,10.0,-22278.0
3.9,3152.0,-1896.0,16804.0,-1842.0,-500.0,20728.0
3.91,3608.0,-2248.0,17088.0,-1628.0,-498.0,6391.0
3.92,4100.0,-2548.0,17268.0,-1326.0,-496.0,1270.0
3.93,4244.0,-2468.0,17392.0,-1006.0,-240.0,-27402.0
3.94,4284.0,-2368.0,17456.0,-762.0,16.0,-17162.0
3.95,4028.0,-1968.0,17408.0,-646.0,271.0,-17160.0
3.96,3812.0,-1856.0,17344.0,-656.0,270.0,-6920.0
3.97,3596.0,-1632.0,17372.0,-691.0,270.0,3321.0
3.98,3592.0,-1716.0,17312.0,-741.0,14.0,2297.0
3.99,3768.0,-1696.0,17480.0,-800.0,14.0,-18183.0
3.99,3768.0,-1696.0,17480.0,-800.0,14.0,-18183.0
3.99,3768.0,-1696.0,17480.0,-800.0,14.0,-18183.0
3.99,3768.0,-1696.0,17480.0,-800.0,14.0,-18183.0
3.99,3768.0,-1696.0,17480.0,-800.0,14.0,-18183.0
3.99,3768.0,-1696.0,17480.0,-800.0,14.0,-18183.0
3.99,3768.0,-1696.0,17480.0,-800.0,14.0,-18183.0
3.99,3768.0,-1696.0,17480.0,-800.0,14.0,-18183.0
3.99,3768.0,-1696.0,17480.0,-800.0,14.0,-18183.0
3.99,3768.0,-1696.0,17480.0,-800.0,14.0,-18183.0
3.99,3768.0,-1696.0,17480.0,-800.0,14.0,-18183.0
3.99,3768.0,-1696.0,17480.0,-800.0,14.0,-18183.0
3.99,3768.0,-1696.0,17480.0,-800.0,14.0,-18183.0
3.99,3768.0,-1696.0,17480.0,-800.0,14.0,-18183.0
3.99,3768.0,-1696.0,17480.0,-800.0,14.0,-18183.0
3.99,3768.0,-1696.0,17480.0,-800.0,14.0,-18183.0
3.99,3768.0,-1696.0,17480.0,-800.0,14.0,-18183.0
3.99,3768.0,-1696.0,17480.0,-800.0,14.0,-18183.0
3.99,3768.0,-1696.0,17480.0,-800.0,14.0,-18183.0
3.99,3768.0,-1696.0,17480.0,-800.0,14.0,-18183.0
3.99,3768.0,-1696.0,17480.0,-800.0,14.0,-18183.0
3.99,3768.0,-1696.0,17480.0,-800.0,14.0,-18183.0
3.99,3768.0,-1696.0,17480.0,-800.0,14.0,-18183.0
3.99,3768.0,-1696.0,17480.0,-800.0,14.0,-18183.0
3.99,3768.0,-1696.0,17480.0,-800.0,14.0,-18183.0
3.99,3768.0,-1696.0,17480.0,-800.0,14.0,-18183.0
3.99,3768.0,-1696.0,17480.0,-800.0,14.0,-18183.0
3.99,3768.0,-1696.0,17480.0,-800.0,14.0,-18183.0
3.99,3768.0,-1696.0,17480.0,-800.0,14.0,-18183.0
3.99,3768.0,-1696.0,17480.0,-800.0,14.0,-18183.0
3.99,3768.0,-1696.0,17480.0,-800.0,14.0,-18183.0
3.99,3768.0,-1696.0,17480.0,-800.0,14.0,-18183.0
3.99,3768.0,-1696.0,17480.0,-800.0,14.0,-18183.0
3.99,3768.0,-1696.0,17480.0,-800.0,14.0,-18183.0
3.99,3768.0,-1696.0,17480.0,-800.0,14.0,-18183.0
3.99,3768.0,-1696.0,17480.0,-800.0,14.0,-18183.0
3.99,3768.0,-1696.0,17480.0,-800.0,14.0,-18183.0
3.99,3768.0,-1696.0,17480.0,-800.0,14.0,-18183.0
3.99,3768.0,-1696.0,17480.0,-800.0,14.0,-18183.0
3.99,3768.0,-1696.0,17480.0,-800.0,14.0,-18183.0
3.99,3768.0,-1696.0,17480.0,-800.0,14.0,-18183.0
3.99,3768.0,-1696.0,17480.0,-800.0,14.0,-18183.0
3.99,3768.0,-1696.0,17480.0,-800.0,14.0,-18183.0
3.99,3768.0,-1696.0,17480.0,-800.0,14.0,-18183.0
3.99,3768.0,-1696.0,17480.0,-800.0,14.0,-18183.0
3.99,3768.0,-1696.0,17480.0,-800.0,14.0,-18183.0
3.99,3768.0,-1696.0,17480.0,-800.0,14.0,-18183.0
3.99,3768.0,-1696.0,17480.0,-800.0,14.0,-18183.0
3.99,3768.0,-1696.0,17480.0,-800.0,14.0,-18183.0
3.99,3768.0,-1696.0,17480.0,-800.0,14.0,-18183.0
3.99,3768.0,-1696.0,17480.0,-800.0,14.0,-18183.0
