Time,acce_x,acce_y,acce_z,gyro_x,gyro_y,gyro_z
0.0,1460.0,-2472.0,17060.0,1085.0,517.0,-19210.0
0.0,1460.0,-2472.0,17060.0,1085.0,517.0,-19210.0
0.0,1460.0,-2472.0,17060.0,1085.0,517.0,-19210.0
0.0,1460.0,-2472.0,17060.0,1085.0,517.0,-19210.0
0.0,1460.0,-2472.0,17060.0,1085.0,517.0,-19210.0
0.0,1460.0,-2472.0,17060.0,1085.0,517.0,-19210.0
0.0,1460.0,-2472.0,17060.0,1085.0,517.0,-19210.0
0.0,1460.0,-2472.0,17060.0,1085.0,517.0,-19210.0
0.0,1460.0,-2472.0,17060.0,1085.0,517.0,-19210.0
0.0,1460.0,-2472.0,17060.0,1085.0,517.0,-19210.0
0.0,1460.0,-2472.0,17060.0,1085.0,517.0,-19210.0
0.0,1460.0,-2472.0,17060.0,1085.0,517.0,-19210.0
0.0,1460.0,-2472.0,17060.0,1085.0,517.0,-19210.0
0.0,1460.0,-2472.0,17060.0,1085.0,517.0,-19210.0
0.0,1460.0,-2472.0,17060.0,1085.0,517.0,-19210.0
0.0,1460.0,-2472.0,17060.0,1085.0,517.0,-19210.0
0.0,1460.0,-2472.0,17060.0,1085.0,517.0,-19210.0
0.0,1460.0,-2472.0,17060.0,1085.0,517.0,-19210.0
0.0,1460.0,-2472.0,17060.0,1085.0,517.0,-19210.0
0.0,1460.0,-2472.0,17060.0,1085.0,517.0,-19210.0
0.0,1460.0,-2472.0,17060.0,1085.0,517.0,-19210.0
0.0,1460.0,-2472.0,17060.0,1085.0,517.0,-19210.0
0.0,1460.0,-2472.0,17060.0,1085.0,517.0,-19210.0
0.0,1460.0,-2472.0,17060.0,1085.0,517.0,-19210.0
0.0,1460.0,-2472.0,17060.0,1085.0,517.0,-19210.0
0.0,1460.0,-2472.0,17060.0,1085.0,517.0,-19210.0
0.0,1460.0,-2472.0,17060.0,1085.0,517.0,-19210.0
0.0,1460.0,-2472.0,17060.0,1085.0,517.0,-19210.0
0.0,1460.0,-2472.0,17060.0,1085.0,517.0,-19210.0
0.0,1460.0,-2472.0,17060.0,1085.0,517.0,-19210.0
0.0,1460.0,-2472.0,17060.0,1085.0,517.0,-19210.0
0.0,1460.0,-2472.0,17060.0,1085.0,517.0,-19210.0
0.0,1460.0,-2472.0,17060.0,1085.0,517.0,-19210.0
0.0,1460.0,-2472.0,17060.0,1085.0,517.0,-19210.0
0.0,1460.0,-2472.0,17060.0,1085.0,517.0,-19210.0
0.0,1460.0,-2472.0,17060.0,1085.0,517.0,-19210.0
0.0,1460.0,-2472.0,17060.0,1085.0,517.0,-19210.0
0.0,1460.0,-2472.0,17060.0,1085.0,517.0,-19210.0
0.0,1460.0,-2472.0,17060.0,1085.0,517.0,-19210.0
0.0,1460.0,-2472.0,17060.0,1085.0,517.0,-19210.0
0.0,1460.0,-2472.0,17060.0,1085.0,517.0,-19210.0
0.0,1460.0,-2472.0,17060.0,1085.0,517.0,-19210.0
0.0,1460.0,-2472.0,17060.0,1085.0,517.0,-19210.0
0.0,1460.0,-2472.0,17060.0,1085.0,517.0,-19210.0
0.0,1460.0,-2472.0,17060.0,1085.0,517.0,-19210.0
0.0,1460.0,-2472.0,17060.0,1085.0,517.0,-19210.0
0.0,1460.0,-2472.0,17060.0,1085.0,517.0,-19210.0
0.0,1460.0,-2472.0,17060.0,1085.0,517.0,-19210.0
0.0,1460.0,-2472.0,17060.0,1085.0,517.0,-19210.0
0.0,1460.0,-2472.0,17060.0,1085.0,517.0,-19210.0
0.0,1460.0,-2472.0,17060.0,1085.0,517.0,-19210.0
0.01,1444.0,-1884.0,16784.0,1211.0,261.0,-23304.0
0.02,1224.0,-1464.0,16600.0,1126.0,4.0,-14086.0
0.03,1104.0,-376.0,15784.0,780.0,-764.0,20734.0
0.04,1136.0,-552.0,16604.0,567.0,-1276.0,28925.0
0.05,1448.0,-1000.0,16132.0,707.0,-1531.0,-22276.0
0.06,1416.0,-1408.0,16296.0,653.0,-2299.0,-30470.0
0.07,2176.0,-1124.0,16140.0,593.0,-1784.0,-32517.0
0.08,2472.0,-868.0,15896.0,482.0,-2039.0,-22276.0
0.09,1832.0,-648.0,16260.0,129.0,-2297.0,10493.0
0.1,3292.0,-1056.0,15392.0,-322.0,-1780.0,-8965.0
0.11,1720.0,-1468.0,16756.0,-667.0,-2298.0,-18182.0
0.12,2828.0,-1660.0,16760.0,208.0,-1269.0,3321.0
0.13,2896.0,-1720.0,16532.0,759.0,-1525.0,20729.0
0.14,3204.0,-1048.0,16664.0,691.0,-1524.0,-31493.0
0.15,3220.0,-560.0,16492.0,442.0,-1268.0,-27395.0
0.16,3532.0,-612.0,15928.0,-273.0,-755.0,-13059.0
0.17,2604.0,-100.0,16312.0,-284.0,10.0,11519.0
0.18,2684.0,-508.0,15992.0,-789.0,-246.0,31998.0
0.19,2088.0,-724.0,16440.0,-1127.0,8.0,10493.0
0.2,1712.0,-1484.0,16220.0,-1320.0,6.0,-20230.0
0.21,1736.0,-1664.0,16356.0,-999.0,262.0,-14087.0
0.22,1800.0,-1468.0,16200.0,-672.0,519.0,2298.0
0.23,1176.0,-1244.0,16336.0,-527.0,516.0,-26373.0
0.24,916.0,-1300.0,16456.0,-508.0,3.0,-27398.0
0.25,812.0,-1696.0,16524.0,-525.0,-765.0,11513.0
0.26,1156.0,-2040.0,16776.0,-432.0,-1276.0,-31496.0
0.27,1576.0,-1840.0,16800.0,-204.0,-1786.0,10488.0
0.28,2236.0,-1228.0,16504.0,-217.0,-1784.0,-17157.0
0.29,2468.0,-1276.0,16600.0,-392.0,-1783.0,-23301.0
0.3,2848.0,-1220.0,16384.0,-575.0,-1525.0,8443.0
0.31,2804.0,-1484.0,16500.0,-593.0,-1270.0,-2822.0
0.32,2832.0,-1648.0,16348.0,-590.0,-1013.0,4345.0
0.33,3028.0,-1976.0,16488.0,-433.0,-501.0,-11016.0
0.34,3000.0,-1756.0,16408.0,-212.0,-245.0,-18183.0
0.35,2524.0,-1284.0,16388.0,-86.0,9.0,-8966.0
0.36,2128.0,-1120.0,16316.0,-179.0,8.0,20731.0
0.37,1728.0,-1204.0,16336.0,-250.0,-250.0,-16133.0
0.38,1872.0,-1352.0,16368.0,-302.0,-505.0,20730.0
0.39,2144.0,-1568.0,16688.0,-402.0,-760.0,24825.0
0.4,2560.0,-1952.0,16752.0,-346.0,-758.0,248.0
0.41,2988.0,-1764.0,16860.0,-227.0,-501.0,-21255.0
0.42,2972.0,-1740.0,16784.0,-107.0,-245.0,-25351.0
0.43,2812.0,-1856.0,16700.0,-53.0,10.0,-776.0
0.44,2704.0,-1928.0,16840.0,59.0,10.0,-28424.0
0.45,2576.0,-1972.0,16664.0,171.0,10.0,4344.0
0.46,2536.0,-1632.0,16508.0,336.0,-247.0,-5895.0
0.47,2436.0,-1280.0,16404.0,359.0,-247.0,-31493.0
0.48,2496.0,-1392.0,16640.0,219.0,-247.0,-16134.0
0.49,2612.0,-1516.0,16408.0,185.0,-502.0,13562.0
0.5,2528.0,-1424.0,16392.0,102.0,-503.0,-7942.0
0.51,2672.0,-1520.0,16448.0,193.0,-246.0,28922.0
0.52,2788.0,-1332.0,16216.0,273.0,-246.0,-6918.0
0.53,2808.0,-1016.0,16128.0,185.0,-246.0,-1796.0
0.54,2652.0,-728.0,16188.0,-41.0,-246.0,23805.0
0.55,2588.0,-632.0,16216.0,-391.0,-502.0,7421.0
0.56,2792.0,-1012.0,16244.0,-685.0,-502.0,-5892.0
0.57,2920.0,-1272.0,16556.0,-702.0,-757.0,26875.0
0.58,3196.0,-1480.0,16640.0,-626.0,-500.0,31994.0
0.59,3260.0,-1440.0,16568.0,-558.0,-500.0,-17158.0
0.6,3108.0,-1416.0,16620.0,-553.0,-244.0,9466.0
0.61,2944.0,-1888.0,16720.0,-481.0,11.0,-32520.0
0.62,2612.0,-2056.0,16792.0,-100.0,10.0,13559.0
0.63,2612.0,-1660.0,16840.0,107.0,-246.0,13561.0
0.64,2620.0,-1228.0,16812.0,46.0,-502.0,15611.0
0.65,2596.0,-1052.0,16568.0,-109.0,-502.0,9467.0
0.66,2780.0,-796.0,16524.0,-348.0,-502.0,-8964.0
0.67,2776.0,-904.0,16476.0,-327.0,-502.0,-9988.0
0.68,2524.0,-1156.0,16412.0,-553.0,-503.0,-8965.0
0.69,2280.0,-1160.0,16628.0,-467.0,-504.0,-5893.0
0.7,2428.0,-1208.0,16480.0,-503.0,-247.0,31995.0
0.71,2424.0,-1108.0,16508.0,-539.0,-503.0,30971.0
0.72,2700.0,-1432.0,16548.0,-760.0,-502.0,-29446.0
0.73,2752.0,-1596.0,16548.0,-628.0,-502.0,-16135.0
0.74,2428.0,-1700.0,16632.0,-410.0,-247.0,31993.0
0.75,2592.0,-1400.0,16684.0,-168.0,-246.0,8442.0
0.76,2532.0,-1396.0,16740.0,-165.0,-247.0,-6918.0
0.77,2604.0,-1360.0,16508.0,-147.0,10.0,11514.0
0.78,2444.0,-1164.0,16380.0,-180.0,265.0,-29445.0
0.79,2640.0,-1060.0,15936.0,-167.0,266.0,20731.0
0.8,1892.0,-800.0,16180.0,-298.0,519.0,25852.0
0.81,1828.0,-940.0,16160.0,-410.0,263.0,9468.0
0.82,1632.0,-896.0,16276.0,-588.0,6.0,24828.0
0.83,1668.0,-1080.0,16188.0,-674.0,-506.0,-31493.0
0.84,2068.0,-1320.0,16148.0,-596.0,-760.0,5370.0
0.85,2016.0,-1000.0,16336.0,-445.0,-1017.0,-7940.0
0.86,2408.0,-576.0,15988.0,-643.0,-1015.0,26877.0
0.87,2408.0,-820.0,16008.0,-897.0,-1015.0,26876.0
0.88,2480.0,-696.0,15916.0,-1103.0,-1015.0,-20227.0
0.89,2540.0,-748.0,16008.0,-1273.0,-1015.0,-4867.0
0.9,2564.0,-960.0,15776.0,-1272.0,-1270.0,1276.0
0.91,2744.0,-1268.0,15952.0,-1154.0,-1270.0,-18181.0
0.92,3008.0,-1400.0,15720.0,-1053.0,-1525.0,-16134.0
0.93,3568.0,-1400.0,15232.0,-888.0,-1523.0,-3846.0
0.94,3496.0,-1176.0,15168.0,-812.0,-1267.0,-22277.0
0.95,3392.0,-636.0,14864.0,-1046.0,-1011.0,16637.0
0.96,3316.0,-700.0,14176.0,-1358.0,-756.0,-2819.0
0.97,2652.0,0.0,14212.0,-1756.0,266.0,23552.0
0.98,2840.0,116.0,13592.0,-2099.0,779.0,6144.0
0.99,2324.0,-612.0,13444.0,-2502.0,265.0,5373.0
1.0,1816.0,-780.0,13656.0,-2477.0,7.0,6396.0
1.01,2076.0,-712.0,13540.0,-2366.0,-248.0,7421.0
1.02,2464.0,-784.0,13208.0,-2626.0,-503.0,-24324.0
1.03,2476.0,-400.0,13160.0,-2615.0,9.0,-21250.0
1.04,2864.0,-924.0,12780.0,-2934.0,-245.0,12540.0
1.05,2452.0,-768.0,12572.0,-3030.0,-247.0,-27395.0
1.06,2264.0,-488.0,12312.0,-3256.0,8.0,-9986.0
1.07,2092.0,-172.0,11916.0,-4037.0,8.0,11519.0
1.08,1528.0,416.0,11948.0,-4376.0,517.0,-2047.0
1.09,688.0,-52.0,11912.0,-5328.0,514.0,-20225.0
1.1,-280.0,-860.0,12260.0,-5494.0,-514.0,-5892.0
1.11,-156.0,-1516.0,12104.0,-5656.0,-1281.0,25850.0
1.12,-516.0,-1284.0,12116.0,-5555.0,-2563.0,-774.0
1.13,-640.0,-1376.0,11860.0,-5678.0,-4355.0,-32518.0
1.14,-116.0,-1100.0,11644.0,-5960.0,-5633.0,-29445.0
1.15,788.0,-1536.0,11468.0,-6358.0,-6909.0,5370.0
1.16,1868.0,-2308.0,11092.0,-6757.0,-7161.0,19702.0
1.17,2920.0,-3288.0,11032.0,-6794.0,-6645.0,26867.0
1.18,3812.0,-3796.0,10576.0,-6331.0,-5362.0,-6927.0
1.19,4620.0,-3428.0,10052.0,-6243.0,-3566.0,3314.0
1.2,4836.0,-3200.0,10120.0,-6418.0,-2286.0,-6925.0
1.21,4560.0,-3236.0,10304.0,-6823.0,-1007.0,-12045.0
1.22,5464.0,-3576.0,10148.0,-7332.0,533.0,22770.0
1.23,4556.0,-3616.0,10620.0,-7672.0,1553.0,-13071.0
1.24,3860.0,-3640.0,11180.0,-8235.0,2319.0,5361.0
1.25,3036.0,-4160.0,11320.0,-8766.0,2571.0,-8977.0
1.26,2028.0,-4404.0,11748.0,-9072.0,2567.0,-4882.0
1.27,1384.0,-5460.0,11996.0,-9294.0,1797.0,26858.0
1.28,1360.0,-6236.0,12420.0,-9170.0,773.0,20711.0
1.29,1612.0,-6540.0,12700.0,-9178.0,6.0,19686.0
1.3,2460.0,-7480.0,13084.0,-9181.0,-503.0,-25374.0
1.31,4048.0,-7644.0,12908.0,-8675.0,-1009.0,-12062.0
1.32,4084.0,-7616.0,12820.0,-8820.0,-241.0,-2846.0
1.33,4068.0,-7804.0,12220.0,-9102.0,271.0,-6943.0
1.34,4360.0,-7000.0,11944.0,-9815.0,785.0,2276.0
1.35,3824.0,-7192.0,11836.0,-10584.0,1550.0,-3869.0
1.36,3376.0,-7744.0,11696.0,-11332.0,1805.0,12513.0
1.37,2812.0,-8548.0,11204.0,-12210.0,2058.0,-802.0
1.38,2236.0,-9404.0,11396.0,-12276.0,1288.0,-17189.0
1.39,932.0,-8948.0,11608.0,-12647.0,-253.0,-23331.0
1.4,344.0,-8628.0,11632.0,-13360.0,-2303.0,22750.0
1.41,416.0,-8756.0,11228.0,-14414.0,-4095.0,-24355.0
1.42,1072.0,-8676.0,10016.0,-15819.0,-5116.0,12510.0
1.43,372.0,-9472.0,10548.0,-16620.0,-5631.0,29915.0
1.44,188.0,-10496.0,10856.0,-17636.0,-5888.0,-17193.0
1.45,-316.0,-11972.0,11656.0,-17951.0,-6658.0,-15151.0
1.46,-1376.0,-13920.0,12264.0,-18011.0,-8710.0,-24375.0
1.47,-408.0,-14788.0,12724.0,-17200.0,-10498.0,26822.0
1.48,0.0,-15392.0,13720.0,-16859.0,-12288.0,195.0
1.49,1692.0,-16328.0,14388.0,-16287.0,-13818.0,-25408.0
1.5,4616.0,-17176.0,14472.0,-15572.0,-13550.0,2236.0
1.51,6968.0,-16768.0,13916.0,-14689.0,-12005.0,14526.0
1.52,8104.0,-16244.0,13360.0,-14321.0,-8929.0,-22336.0
1.53,8208.0,-15576.0,12240.0,-13593.0,-4320.0,4291.0
1.54,7644.0,-14964.0,11328.0,-12853.0,-5347.0,-9019.0
1.55,8052.0,-15472.0,12792.0,-13034.0,-993.0,29891.0
1.56,7188.0,-15732.0,10572.0,-12345.0,2332.0,5314.0
1.57,4688.0,-14704.0,10188.0,-12850.0,4114.0,20678.0
1.58,3552.0,-14136.0,10196.0,-13522.0,3597.0,-7992.0
1.59,1304.0,-14048.0,11224.0,-14043.0,3077.0,6345.0
1.6,-376.0,-14460.0,12516.0,-14454.0,1022.0,-30521.0
1.61,-776.0,-17340.0,14076.0,-14162.0,-3076.0,-1860.0
1.62,920.0,-18980.0,15040.0,-13088.0,-6909.0,-26443.0
1.63,3296.0,-19840.0,14840.0,-11873.0,-9716.0,-8014.0
1.64,5512.0,-19724.0,13816.0,-10797.0,-10475.0,-30542.0
1.65,8520.0,-18380.0,12604.0,-10079.0,-9695.0,18616.0
1.66,11824.0,-16988.0,11016.0,-10122.0,-5586.0,12477.0
1.67,12620.0,-16880.0,10280.0,-10071.0,49.0,19646.0
1.68,11140.0,-17600.0,9912.0,-10307.0,5419.0,-31557.0
1.69,8676.0,-17776.0,10084.0,-10067.0,9249.0,-6982.0
1.7,5092.0,-18028.0,9872.0,-9749.0,10771.0,-6983.0
1.71,2784.0,-18428.0,9676.0,-9939.0,10762.0,-8008.0
1.72,1800.0,-18808.0,8944.0,-10229.0,8967.0,2230.0
1.73,-296.0,-18452.0,9420.0,-9277.0,7166.0,-10057.0
1.74,-2072.0,-18108.0,9344.0,-8960.0,4343.0,-5959.0
1.75,-2628.0,-18580.0,8640.0,-8848.0,-779.0,-17225.0
1.76,-2448.0,-18352.0,8412.0,-8263.0,-6154.0,28856.0
1.77,-916.0,-18632.0,7648.0,-7331.0,-10244.0,27831.0
1.78,272.0,-18372.0,6788.0,-6717.0,-14079.0,4280.0
1.79,1932.0,-16908.0,5760.0,-6842.0,-15865.0,-29507.0
1.8,3880.0,-15816.0,4296.0,-6840.0,-16369.0,10434.0
1.81,5668.0,-15008.0,2900.0,-7247.0,-15594.0,9413.0
1.82,5536.0,-14568.0,2704.0,-8239.0,-13803.0,-24377.0
1.83,5480.0,-14156.0,3408.0,-9237.0,-12267.0,26824.0
1.84,4848.0,-14508.0,4032.0,-10081.0,-11502.0,-3897.0
1.85,4488.0,-15448.0,4836.0,-10667.0,-11247.0,-30525.0
1.86,4776.0,-15988.0,5456.0,-10907.0,-10478.0,-22335.0
1.87,5576.0,-16960.0,4976.0,-10645.0,-9195.0,-14147.0
1.88,5580.0,-16656.0,4976.0,-10467.0,-7915.0,-13122.0
1.89,5752.0,-16492.0,5020.0,-10133.0,-5866.0,30911.0
1.9,6160.0,-16572.0,4444.0,-9990.0,-3816.0,4287.0
1.91,5952.0,-17004.0,4140.0,-10222.0,-2793.0,16573.0
1.92,7280.0,-16000.0,3668.0,-10134.0,28.0,28865.0
1.93,7148.0,-15576.0,3272.0,-10478.0,3611.0,-4925.0
1.94,6532.0,-15444.0,2752.0,-11045.0,6937.0,-31549.0
1.95,4072.0,-15664.0,2772.0,-11811.0,8719.0,-5950.0
1.96,1420.0,-17252.0,3196.0,-11932.0,8197.0,-29508.0
1.97,-740.0,-18552.0,3300.0,-11223.0,6909.0,7351.0
1.98,-1972.0,-18120.0,3652.0,-10342.0,4344.0,19641.0
1.99,-672.0,-18376.0,3700.0,-10062.0,1789.0,24760.0
2.0,992.0,-18176.0,3876.0,-8856.0,-509.0,-8007.0
2.01,1976.0,-19668.0,4844.0,-8187.0,-1017.0,-18253.0
2.02,3412.0,-19792.0,4744.0,-7288.0,-2035.0,21682.0
2.03,4492.0,-20156.0,4508.0,-6730.0,-1519.0,-29519.0
2.04,4380.0,-19432.0,4464.0,-6051.0,-2031.0,7348.0
2.05,5080.0,-18580.0,3888.0,-5628.0,-1773.0,-10057.0
2.06,5524.0,-17784.0,3896.0,-6482.0,-491.0,-27462.0
2.07,3932.0,-18140.0,4584.0,-6969.0,15.0,23737.0
2.08,2628.0,-19300.0,4264.0,-6553.0,-502.0,17588.0
2.09,1136.0,-21052.0,5936.0,-5563.0,-2300.0,28845.0
2.1,1688.0,-21836.0,6976.0,-4128.0,-2810.0,-26454.0
2.11,2968.0,-21744.0,8412.0,-2686.0,-3317.0,-26453.0
2.12,5544.0,-21652.0,8800.0,-2007.0,-1515.0,-22357.0
2.13,8100.0,-22080.0,8496.0,-981.0,287.0,-23383.0
2.14,7604.0,-22320.0,7824.0,418.0,3357.0,-19288.0
2.15,6212.0,-21576.0,6732.0,1357.0,5400.0,17579.0
2.16,3372.0,-20940.0,6984.0,2886.0,5901.0,11438.0
2.17,2184.0,-20164.0,6864.0,3642.0,5128.0,-30543.0
2.18,548.0,-20512.0,7764.0,4653.0,2562.0,9391.0
2.19,1184.0,-21072.0,8464.0,5314.0,4.0,-24403.0
2.2,2848.0,-22820.0,8452.0,6195.0,-2037.0,8358.0
2.21,4020.0,-23788.0,8260.0,7898.0,-2545.0,-19293.0
2.22,6404.0,-22772.0,7600.0,9872.0,-2279.0,1191.0
2.23,7868.0,-21556.0,6428.0,10829.0,-738.0,-17237.0
2.24,8388.0,-19784.0,5468.0,10912.0,1824.0,-15182.0
2.25,7468.0,-18580.0,5144.0,10129.0,4125.0,11447.0
2.26,6472.0,-18472.0,4432.0,9362.0,5657.0,18615.0
2.27,4536.0,-19036.0,5156.0,9115.0,6929.0,-18251.0
2.28,3448.0,-19688.0,4900.0,9215.0,7437.0,30899.0
2.29,2624.0,-19612.0,4700.0,9509.0,7434.0,16563.0
2.3,1668.0,-19876.0,4448.0,9980.0,7174.0,-31566.0
2.31,792.0,-19240.0,4560.0,10653.0,6147.0,6324.0
2.32,616.0,-18924.0,4096.0,10813.0,5122.0,26806.0
2.33,1356.0,-18412.0,3804.0,10842.0,4357.0,19640.0
2.34,1368.0,-17872.0,3164.0,10925.0,3845.0,22714.0
2.35,1740.0,-17456.0,3028.0,10741.0,4102.0,-13125.0
2.36,1956.0,-17192.0,2944.0,10950.0,4871.0,-23364.0
2.37,-108.0,-16564.0,3136.0,10137.0,3839.0,-27457.0
2.38,-292.0,-16164.0,3280.0,9419.0,3070.0,-9024.0
2.39,320.0,-16120.0,3060.0,9247.0,2305.0,16577.0
2.4,156.0,-16428.0,3556.0,9344.0,1792.0,-25409.0
2.41,84.0,-16144.0,3404.0,9345.0,1792.0,21696.0
2.42,-332.0,-15816.0,3528.0,9349.0,1278.0,-19262.0
2.43,852.0,-14316.0,3564.0,8501.0,515.0,21704.0
2.44,1544.0,-15116.0,3708.0,7666.0,1030.0,2244.0
2.45,1596.0,-16308.0,4084.0,8029.0,1542.0,15552.0
2.46,1096.0,-15892.0,4692.0,8327.0,1540.0,18625.0
2.47,476.0,-15388.0,4800.0,8028.0,1537.0,-9021.0
2.48,344.0,-14980.0,5168.0,7800.0,769.0,22725.0
2.49,324.0,-15036.0,5532.0,7342.0,257.0,17605.0
2.5,544.0,-15392.0,6368.0,7002.0,-254.0,8387.0
2.51,844.0,-15920.0,6872.0,6841.0,-509.0,19649.0
2.52,1104.0,-16608.0,7596.0,7050.0,-1020.0,20671.0
2.53,1604.0,-16380.0,7508.0,7252.0,-1018.0,17600.0
2.54,1768.0,-16440.0,7456.0,7501.0,-1274.0,-5953.0
2.55,2028.0,-16092.0,7660.0,7571.0,-1529.0,-4927.0
2.56,2800.0,-15912.0,7632.0,7307.0,-1270.0,-3903.0
2.57,2548.0,-15648.0,8556.0,7393.0,-1015.0,-2878.0
2.58,2740.0,-16276.0,8928.0,7465.0,-758.0,-19264.0
2.59,3168.0,-16908.0,9288.0,7601.0,-500.0,24765.0
2.6,3704.0,-17656.0,9552.0,8223.0,-242.0,30907.0
2.61,3420.0,-17708.0,9552.0,9209.0,13.0,23738.0
2.62,3336.0,-16544.0,9428.0,9861.0,269.0,2239.0
2.63,3332.0,-15496.0,9432.0,9961.0,781.0,1219.0
2.64,3440.0,-15864.0,10232.0,9919.0,781.0,28866.0
2.65,4024.0,-17184.0,10920.0,10101.0,783.0,-18244.0
2.66,4280.0,-17296.0,11056.0,10812.0,1040.0,-18244.0
2.67,4260.0,-16780.0,10596.0,11415.0,1296.0,-23362.0
2.68,4244.0,-16028.0,10108.0,11500.0,1808.0,-27455.0
2.69,4376.0,-14656.0,9772.0,11450.0,2577.0,6342.0
2.7,3848.0,-14504.0,10456.0,10591.0,3087.0,2247.0
2.71,4388.0,-14728.0,11008.0,10246.0,3857.0,9414.0
2.72,4236.0,-17316.0,12140.0,10572.0,3856.0,-29508.0
2.73,4248.0,-18624.0,12992.0,11861.0,3856.0,-26441.0
2.74,3816.0,-18860.0,12896.0,13374.0,3854.0,-5962.0
2.75,2996.0,-17460.0,12396.0,14647.0,3083.0,-19269.0
2.76,3092.0,-15632.0,11584.0,15111.0,2572.0,5314.0
2.77,3536.0,-14232.0,11276.0,15121.0,2317.0,-12088.0
2.78,3308.0,-13264.0,11032.0,14939.0,2316.0,-4916.0
2.79,2848.0,-12572.0,11356.0,14326.0,2059.0,8398.0
2.8,3036.0,-12964.0,11760.0,13800.0,1803.0,-9011.0
2.81,2872.0,-13528.0,11848.0,13697.0,1291.0,14539.0
2.82,2692.0,-13380.0,11916.0,13784.0,1034.0,-31541.0
2.83,3056.0,-12572.0,11568.0,13658.0,1035.0,-3890.0
2.84,3172.0,-12256.0,11668.0,13702.0,1292.0,25808.0
2.85,2752.0,-11792.0,11580.0,13823.0,1802.0,-16175.0
2.86,2684.0,-10608.0,11476.0,13559.0,3082.0,31958.0
2.87,2176.0,-10060.0,11208.0,13181.0,3848.0,-32552.0
2.88,1512.0,-9276.0,11412.0,12449.0,4357.0,-5925.0
2.89,664.0,-9156.0,11960.0,11810.0,4098.0,-26404.0
2.9,1248.0,-9272.0,12196.0,11351.0,3076.0,-7973.0
2.91,1168.0,-9492.0,12464.0,11137.0,1796.0,-28454.0
2.92,1676.0,-9312.0,12060.0,11062.0,1030.0,-29477.0
2.93,1612.0,-9220.0,12124.0,11187.0,262.0,19675.0
2.94,1568.0,-8644.0,12036.0,11344.0,6.0,8414.0
2.95,1788.0,-8164.0,12040.0,11154.0,-762.0,-800.0
2.96,1892.0,-7836.0,12532.0,11265.0,-505.0,25825.0
2.97,2752.0,-7576.0,12556.0,11165.0,-758.0,-16158.0
2.98,2996.0,-7412.0,12332.0,10986.0,-1013.0,-19229.0
2.99,2348.0,-6820.0,12336.0,10786.0,-247.0,11493.0
3.0,2304.0,-6168.0,12368.0,10804.0,-247.0,231.0
3.01,1972.0,-5896.0,12588.0,10242.0,7.0,-19224.0
3.02,2232.0,-5588.0,12956.0,9742.0,8.0,-18198.0
3.03,2596.0,-6252.0,13352.0,9857.0,-246.0,9447.0
3.04,2608.0,-6272.0,13584.0,9620.0,266.0,12519.0
3.05,2736.0,-5796.0,13472.0,9835.0,522.0,-20247.0
3.06,1976.0,-5120.0,13584.0,9921.0,519.0,-18196.0
3.07,1908.0,-4524.0,13064.0,9459.0,519.0,29934.0
3.08,1792.0,-4724.0,13644.0,9745.0,519.0,237.0
3.09,1804.0,-5224.0,13660.0,10086.0,7.0,3307.0
3.1,1696.0,-4660.0,13652.0,10240.0,-250.0,-24339.0
3.11,1964.0,-3824.0,13548.0,10271.0,-761.0,-21263.0
3.12,2320.0,-3304.0,13324.0,10022.0,-1015.0,4339.0
3.13,2392.0,-2924.0,13048.0,9963.0,-1271.0,22772.0
3.14,2536.0,-2156.0,12680.0,9638.0,-759.0,-5897.0
3.15,2216.0,-1192.0,12600.0,9163.0,-760.0,-22277.0
3.16,2244.0,-896.0,12264.0,8606.0,-504.0,-15108.0
3.17,2028.0,-464.0,12020.0,7949.0,-249.0,-4866.0
3.18,2176.0,-464.0,12232.0,7485.0,-248.0,-32514.0
3.19,2424.0,-480.0,11884.0,7110.0,-247.0,30974.0
3.2,2144.0,-272.0,11908.0,6808.0,-248.0,24830.0
3.21,2480.0,432.0,11468.0,6528.0,-247.0,-20479.0
3.22,2896.0,508.0,10980.0,6387.0,779.0,20481.0
3.23,2680.0,1084.0,10384.0,6290.0,2058.0,30724.0
3.24,2388.0,1780.0,9996.0,6335.0,3337.0,21510.0
3.25,1372.0,2140.0,9600.0,5967.0,4357.0,23560.0
3.26,376.0,3624.0,9316.0,5329.0,5121.0,30734.0
3.27,-984.0,4612.0,9868.0,4363.0,4348.0,10258.0
3.28,-1144.0,4000.0,10652.0,3157.0,2811.0,-30705.0
3.29,-288.0,2784.0,10752.0,2254.0,1534.0,-8182.0
3.3,520.0,2000.0,11428.0,2010.0,258.0,2055.0
3.31,1476.0,1684.0,11744.0,2144.0,-763.0,-15354.0
3.32,1456.0,2392.0,11832.0,2212.0,-1019.0,-20471.0
3.33,2524.0,2820.0,11672.0,1780.0,-1783.0,-9205.0
3.34,1780.0,3636.0,12516.0,1110.0,-1786.0,-3058.0
3.35,2060.0,3736.0,12784.0,446.0,-2040.0,3086.0
3.36,2088.0,3236.0,13232.0,-481.0,-2040.0,10252.0
3.37,2192.0,2852.0,13560.0,-1336.0,-2040.0,-28661.0
3.38,2256.0,1408.0,14652.0,-1838.0,-2040.0,-12283.0
3.39,3012.0,-128.0,15456.0,-1703.0,-2293.0,-15105.0
3.4,3232.0,-1300.0,16412.0,-853.0,-2036.0,-24326.0
3.41,3624.0,-964.0,17008.0,148.0,-2034.0,10492.0
3.42,3572.0,-488.0,16984.0,705.0,-1779.0,-2818.0
3.43,3620.0,112.0,16712.0,747.0,-1522.0,9216.0
3.44,3460.0,416.0,16312.0,592.0,-1011.0,-31743.0
3.45,2880.0,952.0,16556.0,177.0,-757.0,16387.0
3.46,2668.0,1276.0,16640.0,-437.0,-758.0,27652.0
3.47,2564.0,1012.0,16824.0,-1203.0,-1014.0,1027.0
3.48,2908.0,264.0,17140.0,-1699.0,-1269.0,23553.0
3.49,3236.0,-1116.0,17432.0,-1690.0,-1524.0,-23301.0
3.5,3472.0,-1436.0,17560.0,-1153.0,-1267.0,-28422.0
3.51,3472.0,-1008.0,17248.0,-699.0,-1011.0,-28420.0
3.52,3372.0,-616.0,16936.0,-494.0,-499.0,11517.0
3.53,2988.0,-300.0,16972.0,-314.0,-501.0,-21250.0
3.54,2900.0,-252.0,16868.0,-401.0,-245.0,21759.0
3.55,2464.0,80.0,16928.0,-447.0,-503.0,-24576.0
3.56,2316.0,104.0,16968.0,-570.0,-759.0,3072.0
3.57,2412.0,-296.0,17264.0,-782.0,-1527.0,27902.0
3.58,2788.0,-664.0,17336.0,-694.0,-1782.0,-6915.0
3.59,3160.0,-296.0,17136.0,-578.0,-2036.0,22782.0
3.6,3708.0,-256.0,17016.0,-629.0,-2290.0,31999.0
3.61,3948.0,-536.0,17060.0,-571.0,-2033.0,27901.0
3.62,4068.0,-612.0,17076.0,-444.0,-1777.0,-6915.0
3.63,4116.0,-1316.0,17320.0,-187.0,-1520.0,5370.0
3.64,4280.0,-1660.0,17524.0,206.0,-1520.0,-18183.0
3.65,4416.0,-1812.0,17512.0,731.0,-1007.0,16632.0
3.66,4604.0,-1144.0,17408.0,1209.0,-751.0,-773.0
3.67,4532.0,-408.0,17088.0,1433.0,-239.0,-19202.0
3.68,4300.0,392.0,16748.0,1198.0,272.0,-13311.0
3.69,3716.0,996.0,16504.0,590.0,782.0,-31741.0
3.7,3280.0,764.0,16716.0,1.0,1036.0,-12286.0
3.71,3248.0,532.0,16664.0,-454.0,780.0,-20478.0
3.72,3096.0,228.0,16648.0,-905.0,524.0,6144.0
3.73,3128.0,96.0,16660.0,-1276.0,268.0,14336.0
3.74,3148.0,-872.0,16944.0,-1146.0,268.0,19708.0
3.75,2888.0,-940.0,16912.0,-560.0,523.0,18684.0
3.76,2552.0,-560.0,17132.0,-250.0,265.0,-1795.0
3.77,2756.0,-160.0,16944.0,-372.0,10.0,-15105.0
3.78,2784.0,-416.0,17284.0,-605.0,-246.0,-7938.0
3.79,3176.0,-456.0,17256.0,-650.0,-500.0,26878.0
3.8,3488.0,-672.0,16824.0,-677.0,-243.0,-24323.0
3.81,3524.0,-700.0,16780.0,-645.0,13.0,-15107.0
3.82,3368.0,-588.0,16896.0,-631.0,13.0,10493.0
3.83,3112.0,-704.0,16724.0,-577.0,268.0,10493.0
3.84,3300.0,-860.0,16716.0,-405.0,12.0,-6916.0
3.85,3340.0,-620.0,16564.0,-168.0,13.0,3325.0
3.86,3620.0,-388.0,16572.0,-79.0,270.0,9470.0
3.87,3936.0,-216.0,16604.0,-10.0,783.0,24831.0
3.88,3792.0,360.0,16532.0,-111.0,782.0,-12287.0
3.89,3884.0,156.0,16540.0,-203.0,1039.0,11264.0
3.9,4048.0,220.0,16196.0,-292.0,1807.0,-12288.0
3.91,3612.0,480.0,16636.0,-322.0,2062.0,7169.0
3.92,3304.0,456.0,16448.0,-448.0,2316.0,-6143.0
3.93,2852.0,52.0,16472.0,-518.0,2059.0,9216.0
3.94,2452.0,-220.0,16868.0,-552.0,1545.0,-27393.0
3.95,2596.0,-400.0,16780.0,-506.0,1034.0,9470.0
3.96,2744.0,-376.0,16896.0,-449.0,266.0,-18178.0
3.97,2804.0,-180.0,16648.0,-404.0,10.0,-2817.0
3.98,2836.0,240.0,16588.0,-407.0,-245.0,5120.0
3.99,3028.0,160.0,16516.0,-595.0,-245.0,-11264.0
3.99,3028.0,160.0,16516.0,-595.0,-245.0,-11264.0
3.99,3028.0,160.0,16516.0,-595.0,-245.0,-11264.0
3.99,3028.0,160.0,16516.0,-595.0,-245.0,-11264.0
3.99,3028.0,160.0,16516.0,-595.0,-245.0,-11264.0
3.99,3028.0,160.0,16516.0,-595.0,-245.0,-11264.0
3.99,3028.0,160.0,16516.0,-595.0,-245.0,-11264.0
3.99,3028.0,160.0,16516.0,-595.0,-245.0,-11264.0
3.99,3028.0,160.0,16516.0,-595.0,-245.0,-11264.0
3.99,3028.0,160.0,16516.0,-595.0,-245.0,-11264.0
3.99,3028.0,160.0,16516.0,-595.0,-245.0,-11264.0
3.99,3028.0,160.0,16516.0,-595.0,-245.0,-11264.0
3.99,3028.0,160.0,16516.0,-595.0,-245.0,-11264.0
3.99,3028.0,160.0,16516.0,-595.0,-245.0,-11264.0
3.99,3028.0,160.0,16516.0,-595.0,-245.0,-11264.0
3.99,3028.0,160.0,16516.0,-595.0,-245.0,-11264.0
3.99,3028.0,160.0,16516.0,-595.0,-245.0,-11264.0
3.99,3028.0,160.0,16516.0,-595.0,-245.0,-11264.0
3.99,3028.0,160.0,16516.0,-595.0,-245.0,-11264.0
3.99,3028.0,160.0,16516.0,-595.0,-245.0,-11264.0
3.99,3028.0,160.0,16516.0,-595.0,-245.0,-11264.0
3.99,3028.0,160.0,16516.0,-595.0,-245.0,-11264.0
3.99,3028.0,160.0,16516.0,-595.0,-245.0,-11264.0
3.99,3028.0,160.0,16516.0,-595.0,-245.0,-11264.0
3.99,3028.0,160.0,16516.0,-595.0,-245.0,-11264.0
3.99,3028.0,160.0,16516.0,-595.0,-245.0,-11264.0
3.99,3028.0,160.0,16516.0,-595.0,-245.0,-11264.0
3.99,3028.0,160.0,16516.0,-595.0,-245.0,-11264.0
3.99,3028.0,160.0,16516.0,-595.0,-245.0,-11264.0
3.99,3028.0,160.0,16516.0,-595.0,-245.0,-11264.0
3.99,3028.0,160.0,16516.0,-595.0,-245.0,-11264.0
3.99,3028.0,160.0,16516.0,-595.0,-245.0,-11264.0
3.99,3028.0,160.0,16516.0,-595.0,-245.0,-11264.0
3.99,3028.0,160.0,16516.0,-595.0,-245.0,-11264.0
3.99,3028.0,160.0,16516.0,-595.0,-245.0,-11264.0
3.99,3028.0,160.0,16516.0,-595.0,-245.0,-11264.0
3.99,3028.0,160.0,16516.0,-595.0,-245.0,-11264.0
3.99,3028.0,160.0,16516.0,-595.0,-245.0,-11264.0
3.99,3028.0,160.0,16516.0,-595.0,-245.0,-11264.0
3.99,3028.0,160.0,16516.0,-595.0,-245.0,-11264.0
3.99,3028.0,160.0,16516.0,-595.0,-245.0,-11264.0
3.99,3028.0,160.0,16516.0,-595.0,-245.0,-11264.0
3.99,3028.0,160.0,16516.0,-595.0,-245.0,-11264.0
3.99,3028.0,160.0,16516.0,-595.0,-245.0,-11264.0
3.99,3028.0,160.0,16516.0,-595.0,-245.0,-11264.0
3.99,3028.0,160.0,16516.0,-595.0,-245.0,-11264.0
3.99,3028.0,160.0,16516.0,-595.0,-245.0,-11264.0
3.99,3028.0,160.0,16516.0,-595.0,-245.0,-11264.0
3.99,3028.0,160.0,16516.0,-595.0,-245.0,-11264.0
3.99,3028.0,160.0,16516.0,-595.0,-245.0,-11264.0
3.99,3028.0,160.0,16516.0,-595.0,-245.0,-11264.0
