Time,acce_x,acce_y,acce_z,gyro_x,gyro_y,gyro_z
0.000,0.302,-0.181,0.866,-0.901,0.489,-1.298
0.000,0.302,-0.181,0.846,-0.992,0.427,-1.588
0.010,0.301,-0.181,0.855,-1.420,0.626,-2.305
0.010,0.302,-0.182,0.852,-1.786,0.122,-2.473
0.010,0.291,-0.179,0.854,-1.863,0.061,-2.840
0.020,0.287,-0.187,0.855,-1.771,-0.305,-2.962
0.020,0.281,-0.190,0.861,-2.076,-0.947,-3.084
0.020,0.277,-0.187,0.861,-2.107,-1.710,-3.023
0.030,0.279,-0.184,0.857,-2.321,-2.473,-3.191
0.030,0.282,-0.190,0.853,-2.122,-2.229,-3.069
0.030,0.280,-0.179,0.853,-2.198,-2.244,-3.008
0.040,0.277,-0.181,0.860,-1.985,-1.924,-2.809
0.040,0.281,-0.183,0.863,-1.893,-1.771,-2.901
0.040,0.273,-0.187,0.862,-1.542,-1.405,-2.870
0.050,0.273,-0.190,0.863,-1.298,-1.298,-2.763
0.050,0.282,-0.188,0.876,-0.656,-0.550,-2.458
0.060,0.277,-0.185,0.858,-0.244,0.962,-2.580
0.060,0.281,-0.182,0.859,0.244,1.649,-2.336
0.060,0.271,-0.177,0.863,0.626,2.458,-2.122
0.070,0.275,-0.180,0.848,1.435,2.931,-2.137
0.070,0.278,-0.182,0.857,1.954,3.221,-1.985
0.080,0.278,-0.191,0.855,2.718,3.435,-2.198
0.080,0.277,-0.179,0.850,4.305,3.527,-2.534
0.080,0.270,-0.177,0.855,5.374,2.427,-2.641
0.090,0.272,-0.157,0.850,3.023,1.817,-1.847
0.090,0.285,-0.166,0.818,1.176,3.756,-1.634
0.100,0.281,-0.167,0.830,1.160,3.206,-1.511
0.100,0.266,-0.169,0.827,1.359,1.511,-1.725
0.100,0.279,-0.164,0.830,1.008,0.489,-1.985
0.110,0.286,-0.162,0.831,0.366,0.275,-2.153
0.110,0.297,-0.162,0.818,0.244,0.962,-2.534
0.110,0.284,-0.159,0.832,-0.137,0.962,-2.473
0.120,0.275,-0.165,0.837,-0.611,0.550,-2.611
0.120,0.277,-0.165,0.832,-0.550,0.550,-2.443
0.130,0.272,-0.165,0.837,-0.855,1.008,-2.214
0.130,0.276,-0.168,0.830,-0.626,1.328,-2.275
0.130,0.282,-0.169,0.835,-0.550,1.359,-2.031
0.140,0.276,-0.166,0.843,-0.519,1.664,-1.969
0.140,0.278,-0.162,0.854,-0.550,2.015,-1.863
0.150,0.276,-0.161,0.833,-0.489,1.847,-1.878
0.150,0.276,-0.165,0.841,-0.901,1.496,-1.985
0.150,0.282,-0.157,0.826,-1.466,1.756,-2.198
0.160,0.278,-0.156,0.825,-1.878,1.939,-2.122
0.160,0.268,-0.162,0.834,-2.412,1.634,-2.153
0.170,0.260,-0.162,0.851,-2.672,0.824,-1.802
0.170,0.255,-0.169,0.841,-2.534,0.046,-1.450
0.170,0.247,-0.168,0.850,-2.794,-0.748,-0.870
0.180,0.249,-0.165,0.852,-3.084,-1.435,-0.412
0.180,0.257,-0.168,0.852,-2.992,-1.878,0.076
0.190,0.268,-0.168,0.866,-2.687,-1.252,0.214
0.190,0.274,-0.170,0.864,-2.611,-1.206,0.580
0.190,0.277,-0.175,0.871,-2.366,-1.267,0.214
0.200,0.280,-0.163,0.863,-2.046,-0.931,0.183
0.200,0.279,-0.163,0.867,-1.771,-0.260,0.229
0.210,0.278,-0.168,0.869,-1.588,-0.153,0.321
0.210,0.267,-0.165,0.865,-1.267,-0.702,0.504
0.210,0.279,-0.167,0.869,-1.176,-1.145,0.595
0.220,0.290,-0.166,0.869,-1.008,-1.115,0.504
0.220,0.293,-0.172,0.864,-0.580,-0.794,0.473
0.230,0.298,-0.156,0.855,-0.626,-0.855,0.473
0.230,0.298,-0.149,0.855,-1.008,-0.305,0.626
0.230,0.300,-0.153,0.857,-1.038,0.580,0.351
0.240,0.305,-0.150,0.852,-1.206,1.405,0.519
0.240,0.297,-0.147,0.831,-1.481,2.687,0.702
0.250,0.294,-0.143,0.838,-2.137,3.389,0.901
0.250,0.295,-0.138,0.832,-2.748,4.901,0.687
0.250,0.291,-0.143,0.817,-3.847,5.374,0.702
0.260,0.292,-0.138,0.829,-5.069,6.076,0.534
0.260,0.307,-0.132,0.812,-6.763,7.481,0.305
0.270,0.302,-0.137,0.811,-8.595,9.664,0.107
0.270,0.296,-0.136,0.801,-10.366,10.718,0.229
0.270,0.284,-0.134,0.813,-12.473,11.221,0.443
0.280,0.274,-0.148,0.821,-14.397,11.542,0.458
0.280,0.277,-0.152,0.824,-15.252,11.679,0.550
0.290,0.271,-0.160,0.837,-14.870,11.603,0.504
0.290,0.270,-0.173,0.858,-14.534,10.870,0.382
0.290,0.265,-0.167,0.875,-13.771,9.557,0.656
0.300,0.270,-0.174,0.875,-13.130,8.626,0.443
0.300,0.276,-0.178,0.889,-11.924,8.290,0.351
0.310,0.274,-0.180,0.888,-10.580,7.115,0.137
0.310,0.272,-0.183,0.907,-8.977,5.832,-0.168
0.310,0.270,-0.178,0.902,-7.588,4.489,-0.458
0.320,0.271,-0.177,0.894,-6.611,3.176,-0.427
0.320,0.267,-0.183,0.894,-6.656,2.763,-0.290
0.330,0.274,-0.182,0.890,-6.168,3.389,-0.244
0.330,0.271,-0.185,0.884,-4.809,2.641,-0.244
0.330,0.259,-0.185,0.885,-3.527,1.634,-0.214
0.340,0.260,-0.185,0.875,-2.809,1.130,-0.275
0.340,0.260,-0.191,0.870,-2.031,0.885,-0.748
0.350,0.261,-0.186,0.864,-1.695,0.336,-0.504
0.350,0.255,-0.184,0.868,-1.313,0.092,-0.595
0.350,0.256,-0.187,0.874,-0.901,-0.305,-0.595
0.360,0.255,-0.187,0.873,-0.733,-0.641,-0.427
0.360,0.253,-0.188,0.868,-0.397,-0.824,-0.305
0.370,0.251,-0.185,0.882,-0.397,-0.534,-0.061
0.370,0.255,-0.189,0.876,-0.260,-0.504,0.244
0.370,0.250,-0.184,0.873,0.397,-0.534,0.290
0.380,0.255,-0.194,0.875,0.641,-0.641,0.366
0.380,0.255,-0.187,0.879,0.992,-0.489,0.351
0.390,0.252,-0.190,0.875,1.374,-0.397,0.565
0.390,0.254,-0.189,0.869,1.786,-0.489,0.656
0.390,0.258,-0.186,0.863,1.710,-0.580,0.504
0.400,0.250,-0.193,0.863,1.878,-0.305,0.672
0.400,0.251,-0.192,0.860,1.634,-0.748,0.641
0.410,0.256,-0.189,0.861,1.344,-1.298,0.718
0.410,0.257,-0.185,0.868,1.252,-1.588,0.718
0.410,0.252,-0.183,0.861,1.176,-1.420,0.672
0.420,0.253,-0.182,0.865,1.069,-1.618,0.763
0.420,0.250,-0.189,0.861,1.160,-1.603,0.840
0.430,0.251,-0.191,0.866,1.252,-1.863,0.824
0.430,0.251,-0.188,0.861,1.466,-1.756,0.901
0.430,0.245,-0.189,0.861,1.588,-1.466,1.145
0.440,0.249,-0.179,0.859,1.420,-1.038,1.252
0.440,0.247,-0.185,0.853,1.450,-1.389,1.557
0.440,0.241,-0.189,0.850,1.252,-1.817,2.031
0.450,0.254,-0.183,0.853,1.053,-1.908,2.229
0.450,0.256,-0.193,0.851,1.023,-1.420,2.458
0.460,0.256,-0.180,0.852,0.947,-1.267,2.504
0.460,0.260,-0.178,0.858,0.595,-1.313,2.397
0.460,0.267,-0.183,0.860,0.656,-1.664,2.534
0.470,0.266,-0.177,0.865,0.473,-1.710,2.534
0.470,0.278,-0.183,0.867,0.702,-1.603,2.489
0.480,0.279,-0.178,0.863,0.641,-1.481,2.412
0.480,0.277,-0.187,0.860,0.550,-1.359,2.336
0.480,0.281,-0.187,0.858,0.580,-1.786,2.244
0.490,0.286,-0.183,0.867,0.626,-1.847,2.031
0.490,0.281,-0.182,0.870,0.794,-1.618,1.771
0.500,0.285,-0.183,0.863,0.687,-1.695,1.725
0.500,0.284,-0.180,0.867,0.962,-1.557,1.664
0.500,0.280,-0.184,0.866,0.855,-1.573,1.771
0.510,0.286,-0.177,0.865,1.115,-1.771,1.771
0.510,0.288,-0.180,0.873,1.511,-1.802,1.786
0.520,0.287,-0.178,0.875,1.908,-1.237,1.771
0.520,0.293,-0.181,0.876,2.382,-0.595,1.664
0.520,0.292,-0.178,0.878,2.977,-0.870,1.679
0.530,0.300,-0.176,0.886,3.450,-1.496,1.679
0.530,0.302,-0.178,0.874,3.740,-1.237,1.435
0.530,0.310,-0.173,0.865,3.832,-0.840,1.374
0.540,0.297,-0.170,0.867,4.015,-0.901,1.008
0.540,0.304,-0.163,0.865,4.092,-0.763,0.824
0.550,0.300,-0.170,0.854,4.183,-1.084,0.763
0.550,0.299,-0.166,0.846,3.908,-1.160,0.626
0.550,0.293,-0.159,0.844,3.664,-1.496,0.153
0.560,0.296,-0.156,0.843,2.931,-1.588,0.031
0.560,0.293,-0.155,0.833,2.473,-2.260,0.412
0.570,0.290,-0.153,0.830,1.588,-2.718,0.412
0.570,0.295,-0.159,0.835,0.977,-2.595,0.611
0.570,0.295,-0.153,0.844,0.382,-2.031,0.580
0.580,0.296,-0.156,0.835,-0.214,-1.939,0.382
0.580,0.302,-0.154,0.845,-0.718,-1.710,0.229
0.590,0.305,-0.157,0.853,-1.008,-1.359,-0.015
0.590,0.308,-0.163,0.857,-0.901,-0.351,-0.229
0.590,0.313,-0.167,0.864,-0.931,-0.122,-0.458
0.600,0.306,-0.168,0.869,-0.779,-0.198,-0.824
0.600,0.301,-0.166,0.871,-0.473,-0.183,-0.855
0.610,0.305,-0.172,0.874,-0.015,0.061,-1.038
0.610,0.302,-0.172,0.877,0.458,0.046,-1.099
0.610,0.294,-0.165,0.872,0.931,0.198,-1.420
0.620,0.297,-0.168,0.869,1.496,0.168,-1.344
0.620,0.289,-0.170,0.863,1.573,-0.840,-1.435
0.630,0.285,-0.162,0.869,1.908,-1.481,-1.435
0.630,0.284,-0.165,0.864,1.679,-1.405,-1.634
0.630,0.285,-0.172,0.859,1.802,-1.176,-1.542
0.640,0.272,-0.162,0.850,1.893,-1.527,-1.542
0.640,0.263,-0.167,0.861,1.588,-1.939,-1.191
0.650,0.274,-0.172,0.856,1.542,-2.656,-1.405
0.650,0.275,-0.158,0.843,1.176,-2.611,-1.252
0.650,0.271,-0.157,0.844,0.824,-1.908,-1.206
0.660,0.267,-0.170,0.856,0.794,-1.832,-0.916
0.660,0.274,-0.168,0.858,0.534,-1.435,-0.962
0.670,0.271,-0.168,0.859,0.366,-1.466,-0.779
0.670,0.280,-0.170,0.866,0.641,-1.282,-0.718
0.670,0.284,-0.167,0.871,0.534,-0.427,-0.702
0.680,0.290,-0.169,0.869,0.687,0.153,-0.901
0.680,0.284,-0.170,0.865,0.840,0.214,-0.992
0.690,0.287,-0.170,0.861,0.855,0.855,-1.008
0.690,0.279,-0.170,0.856,0.992,1.420,-1.115
0.690,0.280,-0.169,0.859,1.374,1.985,-1.053
0.700,0.280,-0.169,0.857,1.420,1.450,-1.115
0.700,0.266,-0.164,0.852,1.649,1.344,-1.099
0.710,0.266,-0.168,0.847,1.130,0.824,-1.191
0.710,0.271,-0.163,0.838,1.389,0.947,-1.053
0.710,0.262,-0.161,0.841,1.420,0.076,-1.267
0.720,0.255,-0.162,0.851,1.267,-0.092,-1.084
0.720,0.263,-0.158,0.835,0.840,0.198,-1.084
0.720,0.263,-0.153,0.835,0.794,0.336,-0.748
0.730,0.257,-0.156,0.842,0.656,0.046,-0.473
0.730,0.261,-0.159,0.854,0.290,-0.137,-0.244
0.740,0.265,-0.156,0.838,0.229,-0.107,-0.336
0.740,0.274,-0.160,0.852,0.168,-0.305,-0.489
0.740,0.272,-0.160,0.847,-0.168,-0.779,-0.656
0.750,0.275,-0.168,0.865,-0.168,-1.145,-1.023
0.750,0.282,-0.164,0.860,-0.321,-1.069,-1.252
0.760,0.278,-0.162,0.860,-0.290,-0.870,-1.557
0.760,0.274,-0.159,0.870,-0.092,-0.977,-1.710
0.760,0.269,-0.165,0.872,-0.153,-1.237,-1.740
0.770,0.272,-0.157,0.865,0.031,-1.221,-1.863
0.770,0.270,-0.165,0.856,0.382,-0.519,-1.481
0.780,0.262,-0.167,0.859,0.534,-0.290,-1.298
0.780,0.260,-0.168,0.858,0.931,-0.275,-1.053
0.780,0.261,-0.163,0.850,0.992,0.366,-0.641
0.790,0.260,-0.160,0.854,0.840,0.672,-0.031
0.790,0.257,-0.156,0.848,0.458,1.115,0.153
0.800,0.257,-0.157,0.835,0.000,1.740,0.702
0.800,0.265,-0.154,0.833,-0.779,2.214,1.038
0.800,0.265,-0.156,0.844,-1.053,2.366,1.221
0.810,0.266,-0.159,0.840,-1.649,2.702,1.466
0.810,0.275,-0.151,0.852,-1.924,2.046,1.725
0.820,0.281,-0.158,0.857,-1.969,1.939,1.573
0.820,0.285,-0.159,0.862,-1.893,2.427,1.511
0.820,0.282,-0.160,0.867,-1.756,2.458,1.267
0.830,0.279,-0.163,0.868,-1.389,1.374,1.099
0.830,0.284,-0.163,0.864,-1.084,0.443,0.824
0.840,0.279,-0.158,0.866,-0.992,-0.153,0.718
0.840,0.290,-0.164,0.866,-0.672,-0.275,0.534
0.840,0.287,-0.163,0.868,-0.366,-0.458,0.595
0.850,0.283,-0.157,0.868,-0.443,-0.809,0.168
0.850,0.286,-0.159,0.862,-0.427,-0.687,-0.092
0.860,0.289,-0.156,0.862,-0.153,-0.489,-0.290
0.860,0.280,-0.150,0.856,0.076,-0.076,-0.260
0.860,0.276,-0.152,0.860,0.000,-0.458,-0.015
0.870,0.279,-0.151,0.852,0.076,-0.321,0.137
0.870,0.278,-0.153,0.854,-0.137,-0.092,-0.046
0.880,0.279,-0.150,0.862,-0.427,-0.137,0.031
0.880,0.276,-0.150,0.842,-0.977,-0.183,-0.137
0.880,0.282,-0.150,0.846,-1.237,-0.443,-0.061
0.890,0.286,-0.153,0.850,-1.786,0.137,-0.214
0.890,0.278,-0.151,0.846,-2.122,0.244,-0.336
0.900,0.272,-0.151,0.842,-2.412,-0.565,-0.427
0.900,0.270,-0.157,0.852,-2.702,-0.733,-0.458
0.900,0.277,-0.156,0.854,-3.023,-0.580,-0.290
0.910,0.284,-0.161,0.862,-2.992,-0.733,-0.427
0.910,0.271,-0.159,0.859,-2.885,-0.336,-0.290
0.920,0.276,-0.159,0.866,-2.412,0.489,-0.076
0.920,0.280,-0.158,0.865,-2.305,1.008,0.137
0.920,0.280,-0.163,0.871,-1.832,1.954,0.275
0.930,0.287,-0.158,0.884,-1.420,2.519,0.076
0.930,0.276,-0.157,0.876,-1.145,3.038,0.015
0.940,0.278,-0.154,0.869,-0.687,3.191,-0.137
0.940,0.267,-0.155,0.865,-0.687,3.359,-0.046
0.940,0.271,-0.162,0.861,-0.672,3.023,0.092
0.950,0.273,-0.160,0.863,-0.580,2.992,-0.031
0.950,0.271,-0.159,0.854,-0.748,2.763,-0.076
0.960,0.270,-0.156,0.858,-0.580,2.519,-0.214
0.960,0.269,-0.156,0.854,-0.733,1.954,-0.321
0.960,0.272,-0.165,0.854,-0.550,1.267,-0.137
0.970,0.266,-0.159,0.857,-0.550,0.275,0.000
0.970,0.265,-0.156,0.853,-0.595,0.076,-0.076
0.980,0.269,-0.158,0.854,-0.611,-0.336,0.275
0.980,0.276,-0.152,0.865,-0.840,-0.534,0.092
0.980,0.272,-0.156,0.847,-0.870,-0.397,0.214
0.990,0.275,-0.154,0.853,-1.008,0.260,0.260
0.990,0.277,-0.151,0.847,-0.931,0.244,0.397
1.000,0.273,-0.152,0.847,-1.206,0.229,0.626
1.000,0.277,-0.147,0.860,-1.557,0.702,0.565
1.000,0.277,-0.152,0.844,-1.588,1.344,0.763
1.010,0.287,-0.156,0.850,-1.908,2.198,0.977
1.010,0.281,-0.153,0.862,-1.908,2.504,0.595
1.010,0.279,-0.158,0.853,-2.107,2.519,0.412
1.020,0.282,-0.157,0.858,-1.847,2.489,0.122
1.020,0.282,-0.156,0.853,-1.878,1.939,-0.046
1.030,0.271,-0.159,0.872,-1.786,1.466,-0.473
1.030,0.266,-0.151,0.873,-1.588,0.748,-0.519
1.030,0.260,-0.155,0.864,-1.359,-0.260,-0.351
1.040,0.253,-0.163,0.862,-1.298,-1.069,-0.153
1.040,0.256,-0.160,0.861,-1.053,-1.389,0.183
1.050,0.253,-0.164,0.863,-0.977,-1.603,0.336
1.050,0.261,-0.160,0.855,-0.779,-1.313,0.595
1.050,0.257,-0.155,0.854,-0.794,-1.649,0.763
1.060,0.262,-0.157,0.851,-1.206,-1.740,0.916
1.060,0.272,-0.158,0.853,-1.573,-1.389,1.084
1.070,0.282,-0.157,0.854,-1.634,-0.611,1.130
1.070,0.286,-0.156,0.864,-2.015,0.107,1.160
1.070,0.279,-0.153,0.862,-1.863,0.351,1.176
1.080,0.284,-0.158,0.856,-1.863,0.840,1.115
1.080,0.287,-0.154,0.865,-1.618,0.244,0.947
1.090,0.292,-0.154,0.873,-1.710,0.076,0.687
1.090,0.302,-0.159,0.865,-1.573,0.489,0.153
1.090,0.292,-0.161,0.869,-1.115,0.824,0.137
1.100,0.297,-0.157,0.867,-1.069,1.023,0.076
1.100,0.291,-0.156,0.867,-1.038,0.595,-0.092
1.110,0.292,-0.155,0.865,-1.023,0.489,0.122
1.110,0.292,-0.157,0.870,-0.901,0.840,0.061
1.110,0.299,-0.153,0.865,-0.809,1.176,0.076
1.120,0.297,-0.153,0.878,-0.641,1.450,-0.153
1.120,0.299,-0.155,0.870,-0.489,1.954,-0.137
1.130,0.299,-0.160,0.881,-0.412,2.580,-0.656
1.130,0.293,-0.156,0.871,-0.137,2.473,-0.840
1.130,0.284,-0.164,0.867,-0.031,2.840,-0.779
1.140,0.287,-0.158,0.862,-0.031,3.282,-1.084
1.140,0.263,-0.156,0.856,0.122,2.504,-0.931
1.150,0.257,-0.158,0.859,0.305,2.000,-0.687
1.150,0.248,-0.156,0.854,0.290,1.405,-0.321
1.150,0.255,-0.156,0.856,-0.015,1.511,-0.168
1.160,0.254,-0.157,0.855,-0.321,1.328,0.260
1.160,0.261,-0.159,0.850,-0.855,1.221,0.000
1.170,0.260,-0.156,0.845,-1.252,1.099,0.122
1.170,0.262,-0.157,0.858,-1.466,0.748,0.000
1.170,0.257,-0.160,0.854,-1.496,0.473,0.229
1.180,0.260,-0.163,0.867,-1.786,-0.076,0.183
1.180,0.263,-0.161,0.868,-1.740,0.336,0.366
1.180,0.269,-0.165,0.875,-1.725,0.534,0.382
1.190,0.266,-0.163,0.869,-1.557,0.809,0.473
1.190,0.276,-0.161,0.862,-1.313,1.389,0.504
1.200,0.281,-0.165,0.862,-1.160,2.000,0.366
1.200,0.273,-0.160,0.867,-0.824,2.519,0.122
1.200,0.266,-0.161,0.868,-0.458,2.779,0.107
1.210,0.262,-0.155,0.858,-0.076,2.412,0.046
1.210,0.259,-0.151,0.862,-0.031,2.153,0.092
1.220,0.258,-0.153,0.859,-0.092,1.756,0.198
1.220,0.250,-0.153,0.855,-0.137,1.313,0.336
1.220,0.254,-0.154,0.854,-0.351,0.901,0.260
1.230,0.261,-0.155,0.850,-0.397,0.840,0.534
1.230,0.267,-0.151,0.856,-0.595,0.901,0.611
1.240,0.260,-0.153,0.859,-0.656,0.962,0.519
1.240,0.266,-0.151,0.848,-0.885,1.099,0.687
1.240,0.269,-0.161,0.851,-1.130,1.160,0.977
1.250,0.271,-0.155,0.858,-1.237,1.038,0.901
1.250,0.281,-0.155,0.867,-1.206,1.573,0.779
1.260,0.276,-0.158,0.867,-1.176,1.695,0.427
1.260,0.284,-0.157,0.871,-1.084,2.321,0.244
1.260,0.286,-0.155,0.887,-0.718,1.344,0.015
1.270,0.313,-0.165,0.919,2.076,1.511,-0.855
1.270,0.281,-0.164,0.873,2.489,0.794,-1.634
1.270,0.234,-0.168,0.852,-0.015,-0.244,-0.870
1.280,0.245,-0.153,0.852,-0.397,-0.962,-0.473
1.280,0.256,-0.168,0.884,0.672,-1.130,-0.214
1.290,0.247,-0.163,0.869,0.718,-1.725,-0.260
1.290,0.249,-0.161,0.871,0.290,-2.275,0.046
1.290,0.249,-0.156,0.853,0.458,-3.405,0.305
1.300,0.250,-0.157,0.856,0.153,-3.893,0.580
1.300,0.259,-0.155,0.851,-0.122,-3.618,0.580
1.310,0.260,-0.152,0.853,0.015,-3.527,0.656
1.310,0.259,-0.149,0.853,0.031,-3.237,0.611
1.310,0.262,-0.154,0.847,-0.061,-2.443,0.916
1.320,0.265,-0.159,0.844,-0.015,-1.634,0.901
1.320,0.259,-0.150,0.847,0.015,-1.802,1.115
1.330,0.262,-0.151,0.839,-0.031,-2.183,1.099
1.330,0.260,-0.153,0.839,0.107,-2.641,1.267
1.330,0.271,-0.154,0.840,0.183,-2.214,1.405
1.340,0.275,-0.152,0.843,0.794,-1.954,1.435
1.340,0.269,-0.151,0.840,1.405,-2.092,1.420
1.350,0.270,-0.152,0.839,2.382,-2.580,1.191
1.350,0.280,-0.143,0.838,1.542,-4.092,0.885
1.350,0.292,-0.137,0.833,-0.122,-4.412,1.008
1.360,0.300,-0.138,0.823,-0.580,-2.611,0.748
1.360,0.292,-0.139,0.821,-0.611,-1.527,0.702
1.370,0.301,-0.142,0.809,-1.344,-0.275,0.626
1.370,0.287,-0.144,0.823,-1.817,-1.420,0.321
1.370,0.281,-0.148,0.835,-1.191,-4.031,0.076
1.380,0.298,-0.144,0.809,-1.740,-2.809,0.076
1.380,0.289,-0.143,0.812,-1.985,-1.405,0.290
1.390,0.285,-0.144,0.813,-1.527,-0.824,0.672
1.390,0.274,-0.147,0.807,1.496,-1.221,-0.198
1.390,0.267,-0.170,0.865,2.153,-5.466,-0.763
1.400,0.287,-0.148,0.790,-2.534,1.435,-0.046
1.400,0.299,-0.130,0.768,-3.466,6.061,0.397
1.410,0.262,-0.154,0.814,-1.924,2.580,0.351
1.410,0.233,-0.151,0.817,-3.221,0.458,0.962
1.410,0.254,-0.146,0.804,-3.954,1.176,1.389
1.420,0.260,-0.140,0.817,-3.863,-0.031,1.435
1.420,0.258,-0.140,0.804,-4.183,-0.198,1.618
1.430,0.264,-0.140,0.804,-4.412,0.260,1.802
1.430,0.263,-0.145,0.805,-4.794,0.076,2.076
1.430,0.270,-0.142,0.799,-4.809,0.046,2.137
1.440,0.269,-0.143,0.796,-4.885,0.351,2.260
1.440,0.276,-0.143,0.787,-5.221,0.626,2.183
1.440,0.279,-0.137,0.772,-5.771,0.565,1.924
1.450,0.281,-0.147,0.783,-6.275,0.580,1.740
1.450,0.285,-0.153,0.778,-6.595,0.427,1.771
1.460,0.285,-0.156,0.783,-6.809,0.061,1.344
1.460,0.292,-0.151,0.779,-7.099,-0.214,0.931
1.460,0.299,-0.153,0.781,-7.267,0.336,0.702
1.470,0.293,-0.161,0.775,-7.389,0.504,-0.031
1.470,0.285,-0.161,0.788,-7.405,-0.153,-0.305
1.480,0.283,-0.166,0.789,-7.496,-0.092,-0.794
1.480,0.278,-0.166,0.783,-7.115,0.153,-0.870
1.480,0.270,-0.161,0.787,-7.191,0.260,-0.733
1.490,0.269,-0.154,0.782,-7.206,0.397,-0.580
1.490,0.267,-0.162,0.787,-7.069,0.855,-0.473
1.500,0.263,-0.155,0.789,-7.252,1.588,-0.214
1.500,0.257,-0.151,0.781,-6.916,2.519,0.336
1.500,0.253,-0.142,0.768,-7.252,3.496,0.840
1.510,0.245,-0.143,0.756,-7.221,4.443,1.511
1.510,0.243,-0.137,0.748,-7.740,4.748,2.107
1.520,0.237,-0.126,0.732,-7.557,5.008,3.069
1.520,0.223,-0.134,0.747,-7.389,2.229,2.626
1.520,0.249,-0.129,0.729,-10.412,5.237,3.405
1.530,0.266,-0.118,0.710,-12.656,8.229,4.244
1.530,0.248,-0.125,0.739,-13.053,5.878,3.802
1.540,0.244,-0.130,0.737,-14.595,3.481,3.588
1.540,0.255,-0.135,0.738,-16.641,2.840,3.450
1.540,0.254,-0.142,0.750,-17.618,0.733,3.115
1.550,0.250,-0.150,0.756,-18.595,-2.031,2.748
1.550,0.255,-0.157,0.774,-19.221,-3.802,2.565
1.560,0.267,-0.163,0.771,-18.382,-3.939,2.443
1.560,0.255,-0.171,0.835,-16.794,-8.489,1.542
1.560,0.275,-0.188,0.808,-17.267,-6.550,1.466
1.570,0.282,-0.170,0.812,-18.443,-4.382,1.771
1.570,0.271,-0.189,0.827,-17.573,-4.626,1.252
1.580,0.263,-0.193,0.823,-17.252,-5.252,1.725
1.580,0.272,-0.195,0.826,-17.435,-3.420,1.908
1.580,0.255,-0.209,0.833,-16.595,-2.015,2.534
1.590,0.252,-0.209,0.836,-15.908,-1.069,3.176
1.590,0.258,-0.214,0.847,-15.252,0.550,3.756
1.600,0.270,-0.216,0.850,-12.260,1.237,3.649
1.600,0.280,-0.240,0.889,-11.649,3.618,3.634
1.600,0.290,-0.228,0.830,-11.679,9.481,4.489
1.610,0.269,-0.231,0.849,-10.061,11.359,4.183
1.610,0.250,-0.235,0.844,-8.198,11.267,4.076
1.620,0.241,-0.238,0.825,-7.481,12.260,4.244
1.620,0.239,-0.240,0.806,-6.779,12.412,4.366
1.620,0.210,-0.243,0.788,-5.649,10.733,4.229
1.630,0.196,-0.254,0.771,-5.267,9.939,4.382
1.630,0.180,-0.253,0.743,-4.580,9.634,4.550
1.640,0.169,-0.254,0.742,-3.832,8.840,4.962
1.640,0.154,-0.251,0.724,-3.450,6.519,5.298
1.640,0.147,-0.239,0.710,-2.809,5.435,5.664
1.650,0.140,-0.235,0.690,-2.611,5.130,6.305
1.650,0.135,-0.232,0.680,-1.954,4.641,7.298
1.660,0.116,-0.220,0.668,-1.725,4.092,8.412
1.660,0.115,-0.214,0.652,-1.985,3.420,10.595
1.660,0.132,-0.201,0.618,-1.786,2.382,12.107
1.670,0.160,-0.200,0.637,-4.382,1.069,13.832
1.670,0.202,-0.187,0.594,-7.847,4.779,15.573
1.680,0.234,-0.182,0.604,-10.137,6.733,15.908
1.680,0.252,-0.192,0.624,-11.954,6.061,15.603
1.680,0.277,-0.195,0.612,-14.748,6.168,15.252
1.690,0.308,-0.203,0.608,-17.740,7.924,14.305
1.690,0.328,-0.201,0.625,-19.695,8.641,12.931
1.700,0.343,-0.214,0.637,-21.023,8.947,11.252
1.700,0.347,-0.228,0.644,-22.168,9.145,9.817
1.700,0.337,-0.233,0.653,-22.550,9.115,8.305
1.710,0.334,-0.241,0.656,-22.550,8.092,6.794
1.710,0.325,-0.249,0.653,-22.168,7.328,5.344
1.720,0.331,-0.255,0.663,-21.435,7.939,4.015
1.720,0.322,-0.262,0.654,-20.809,9.145,2.443
1.720,0.305,-0.267,0.667,-20.031,9.344,0.855
1.730,0.274,-0.275,0.630,-16.855,5.206,-2.153
1.730,0.244,-0.265,0.671,-16.977,2.336,-4.000
1.740,0.205,-0.239,0.634,-16.656,2.198,-4.382
1.740,0.170,-0.230,0.638,-14.595,-1.725,-4.595
1.740,0.128,-0.222,0.618,-13.176,-6.382,-4.305
1.750,0.113,-0.206,0.572,-13.237,-9.252,-3.191
1.750,0.108,-0.198,0.542,-14.443,-10.504,-1.817
1.760,0.086,-0.198,0.520,-14.931,-16.183,-2.015
1.760,0.098,-0.204,0.472,-16.107,-20.580,-1.969
1.770,0.088,-0.195,0.428,-20.366,-24.473,-1.191
1.770,0.077,-0.199,0.414,-24.015,-31.405,-0.901
1.770,0.074,-0.212,0.405,-28.046,-37.069,-0.763
1.780,0.079,-0.220,0.391,-32.168,-42.687,-0.626
1.780,0.067,-0.235,0.386,-36.931,-48.534,-0.412
1.790,0.065,-0.256,0.368,-41.420,-53.634,0.244
1.790,0.045,-0.267,0.357,-44.397,-58.702,2.137
1.800,0.056,-0.271,0.397,-49.344,-62.397,6.763
1.800,0.119,-0.255,0.399,-56.336,-59.466,12.504
1.800,0.223,-0.253,0.439,-62.550,-54.137,16.046
1.810,0.319,-0.248,0.493,-67.176,-46.305,17.252
1.810,0.442,-0.230,0.580,-69.695,-35.359,17.481
1.820,0.504,-0.229,0.631,-68.550,-24.412,16.321
1.820,0.537,-0.240,0.675,-66.565,-14.641,14.122
1.830,0.544,-0.251,0.702,-63.221,-7.344,11.740
1.830,0.510,-0.277,0.716,-57.130,-5.847,8.550
1.830,0.490,-0.287,0.739,-52.840,-7.206,6.595
1.840,0.463,-0.282,0.705,-49.405,-9.328,4.824
1.840,0.419,-0.297,0.703,-45.695,-17.679,2.214
1.850,0.376,-0.298,0.688,-42.260,-31.924,-0.534
1.850,0.353,-0.293,0.652,-41.985,-46.672,-2.931
1.850,0.358,-0.308,0.625,-42.427,-60.183,-5.649
1.860,0.372,-0.315,0.622,-43.634,-70.718,-8.321
1.860,0.365,-0.323,0.602,-45.282,-78.122,-9.786
1.870,0.374,-0.335,0.580,-47.817,-81.985,-10.153
1.870,0.379,-0.341,0.567,-51.237,-80.427,-10.458
1.880,0.387,-0.360,0.548,-54.641,-72.992,-9.878
1.880,0.379,-0.365,0.530,-58.168,-62.168,-8.855
1.880,0.363,-0.369,0.511,-62.183,-49.328,-7.832
1.890,0.323,-0.383,0.503,-66.641,-35.145,-6.412
1.890,0.281,-0.388,0.484,-71.405,-22.412,-4.061
1.900,0.211,-0.410,0.483,-73.573,-16.611,-2.687
1.900,0.164,-0.410,0.480,-78.443,-8.183,1.450
1.910,0.136,-0.396,0.483,-84.565,-0.962,6.321
1.910,0.120,-0.417,0.506,-88.580,0.107,10.595
1.910,0.143,-0.420,0.527,-91.679,0.183,14.183
1.920,0.193,-0.411,0.539,-94.061,1.252,16.962
1.920,0.242,-0.429,0.573,-96.000,-1.038,18.198
1.930,0.335,-0.428,0.578,-99.725,0.962,18.977
1.930,0.407,-0.423,0.604,-102.351,3.191,18.840
1.930,0.465,-0.450,0.672,-102.336,3.359,17.939
1.940,0.509,-0.450,0.681,-102.504,5.176,16.076
1.940,0.582,-0.456,0.699,-102.656,9.282,13.588
1.950,0.613,-0.469,0.708,-102.244,13.496,10.458
1.950,0.626,-0.485,0.699,-101.221,17.954,7.130
1.950,0.635,-0.496,0.687,-100.321,22.214,4.122
1.960,0.631,-0.501,0.665,-99.954,27.802,0.870
1.960,0.614,-0.512,0.666,-99.649,33.130,-1.878
1.970,0.592,-0.518,0.655,-99.191,37.725,-4.519
1.970,0.563,-0.521,0.626,-100.000,41.771,-6.931
1.980,0.533,-0.523,0.599,-101.237,45.267,-9.282
1.980,0.505,-0.536,0.590,-102.534,48.351,-11.893
1.980,0.475,-0.538,0.575,-104.076,51.038,-14.382
1.990,0.426,-0.532,0.554,-106.473,52.076,-16.702
1.990,0.387,-0.538,0.533,-108.443,52.916,-18.504
2.000,0.327,-0.559,0.526,-111.160,52.321,-18.855
2.000,0.266,-0.564,0.525,-113.511,51.542,-17.023
2.010,0.233,-0.566,0.525,-116.595,51.069,-13.908
2.010,0.227,-0.576,0.532,-120.015,51.084,-10.214
2.010,0.232,-0.581,0.525,-123.511,51.313,-7.023
2.020,0.262,-0.604,0.553,-126.519,52.244,-4.840
2.020,0.331,-0.622,0.556,-129.038,54.489,-4.260
2.030,0.373,-0.642,0.572,-131.420,56.641,-4.779
2.030,0.400,-0.664,0.590,-132.687,58.382,-6.702
2.040,0.414,-0.681,0.602,-133.420,59.603,-9.191
2.040,0.413,-0.710,0.594,-133.817,59.252,-11.893
2.040,0.396,-0.723,0.593,-134.061,57.954,-14.718
2.050,0.362,-0.743,0.591,-134.107,55.878,-16.748
2.050,0.339,-0.761,0.575,-134.962,52.519,-17.893
2.060,0.316,-0.787,0.580,-135.863,49.939,-19.221
2.060,0.311,-0.804,0.554,-136.580,47.664,-20.580
2.070,0.307,-0.817,0.559,-138.351,44.397,-22.794
2.070,0.285,-0.840,0.546,-140.840,41.588,-24.809
2.070,0.265,-0.855,0.557,-143.267,38.656,-26.473
2.080,0.244,-0.879,0.561,-145.176,35.084,-28.122
2.080,0.231,-0.888,0.581,-146.443,32.122,-29.634
2.090,0.212,-0.905,0.594,-147.389,30.046,-30.214
2.090,0.190,-0.914,0.617,-147.450,28.870,-29.802
2.100,0.174,-0.921,0.632,-146.366,29.298,-27.802
2.100,0.180,-0.925,0.643,-145.023,30.809,-24.885
2.110,0.181,-0.927,0.656,-143.695,33.710,-22.015
2.110,0.177,-0.945,0.668,-142.214,35.893,-19.084
2.110,0.206,-0.956,0.670,-140.397,38.122,-16.519
2.120,0.237,-0.970,0.666,-138.198,39.893,-14.641
2.120,0.283,-0.980,0.665,-137.282,44.244,-14.244
2.130,0.301,-0.972,0.646,-136.824,47.603,-13.985
2.130,0.322,-0.992,0.639,-136.015,49.466,-14.443
2.140,0.345,-1.002,0.625,-135.160,52.473,-15.557
2.140,0.353,-1.011,0.607,-134.748,56.260,-17.679
2.140,0.399,-1.012,0.606,-133.359,67.603,-21.069
2.150,0.507,-1.008,0.604,-128.260,87.817,-24.397
2.150,0.283,-1.031,0.561,-131.527,78.092,-25.664
2.160,0.206,-1.033,0.521,-134.489,61.863,-27.008
2.160,0.240,-1.041,0.522,-132.870,59.282,-28.382
2.170,0.265,-1.044,0.571,-131.954,60.397,-30.550
2.170,0.224,-1.050,0.501,-134.321,62.580,-31.893
2.170,0.174,-1.035,0.481,-135.160,60.901,-32.656
2.180,0.145,-1.050,0.486,-134.015,59.313,-32.244
2.180,0.135,-1.034,0.467,-134.702,61.542,-31.252
2.190,0.112,-1.040,0.444,-134.885,63.038,-29.878
2.190,0.084,-1.044,0.438,-135.649,64.397,-27.878
2.200,0.062,-1.040,0.449,-134.580,62.534,-27.023
2.200,0.063,-1.028,0.391,-136.443,65.130,-23.695
2.210,0.067,-1.018,0.409,-136.168,72.458,-22.427
2.210,0.080,-1.078,0.411,-133.023,74.947,-19.496
2.210,0.023,-1.055,0.416,-138.015,60.168,-17.191
2.220,0.063,-1.063,0.408,-140.916,49.176,-15.405
2.220,0.118,-1.079,0.432,-141.893,43.985,-14.977
2.230,0.197,-1.084,0.449,-143.588,40.962,-14.412
2.230,0.319,-1.114,0.475,-143.527,45.695,-14.977
2.240,0.406,-1.122,0.542,-140.046,78.580,-13.084
2.240,0.324,-1.131,0.565,-133.664,107.664,-13.206
2.240,0.219,-1.125,0.522,-130.947,105.985,-15.679
2.250,0.218,-1.115,0.490,-126.214,103.344,-14.641
2.250,0.190,-1.113,0.586,-126.901,96.550,-11.756
2.260,0.223,-1.116,0.609,-125.466,97.176,-9.924
2.260,0.232,-1.110,0.536,-124.733,98.656,-11.542
2.270,0.239,-1.104,0.527,-125.908,93.130,-13.725
2.270,0.188,-1.113,0.533,-124.366,79.557,-16.351
2.270,0.146,-1.112,0.545,-121.221,60.153,-18.748
2.280,0.119,-1.113,0.505,-118.275,41.756,-21.023
2.280,0.110,-1.115,0.482,-114.672,22.702,-23.359
2.290,0.146,-1.115,0.461,-110.595,10.214,-26.260
2.290,0.159,-1.118,0.439,-107.176,0.901,-28.489
2.300,0.148,-1.107,0.409,-106.702,-8.550,-29.603
2.300,0.202,-1.108,0.408,-107.252,-8.962,-29.176
2.300,0.227,-1.115,0.410,-108.382,-1.282,-28.534
2.310,0.244,-1.110,0.401,-109.389,11.038,-26.611
2.310,0.224,-1.119,0.394,-110.992,23.359,-25.496
2.320,0.219,-1.106,0.373,-112.534,35.771,-23.237
2.320,0.199,-1.107,0.383,-114.382,47.924,-21.115
2.330,0.187,-1.112,0.362,-116.260,58.565,-19.145
2.330,0.150,-1.116,0.369,-117.771,65.802,-17.176
2.340,0.143,-1.124,0.354,-118.656,71.496,-15.053
2.340,0.141,-1.125,0.348,-117.786,76.534,-13.756
2.340,0.125,-1.141,0.382,-117.710,76.153,-12.656
2.350,0.137,-1.154,0.371,-118.580,77.344,-12.168
2.350,0.140,-1.166,0.390,-118.076,76.031,-12.611
2.360,0.129,-1.164,0.403,-116.489,69.954,-14.885
2.360,0.118,-1.175,0.418,-114.046,61.237,-17.649
2.370,0.106,-1.176,0.417,-111.359,49.649,-20.656
2.370,0.105,-1.178,0.421,-108.885,37.206,-23.817
2.370,0.104,-1.188,0.427,-106.137,23.389,-27.069
2.380,0.097,-1.195,0.446,-102.763,9.832,-30.382
2.380,0.173,-1.199,0.441,-102.275,10.275,-29.924
2.390,0.104,-1.203,0.502,-93.756,0.427,-32.611
2.390,0.115,-1.193,0.467,-89.603,-2.397,-33.038
2.400,0.122,-1.181,0.442,-87.084,-3.053,-32.305
2.400,0.131,-1.175,0.477,-82.198,-4.641,-33.069
2.400,0.122,-1.166,0.441,-79.450,-3.252,-32.458
2.410,0.086,-1.158,0.438,-75.450,-4.962,-30.672
2.410,0.087,-1.154,0.432,-71.466,-7.313,-28.840
2.420,0.094,-1.142,0.398,-68.137,-6.336,-26.580
2.420,0.098,-1.125,0.357,-66.565,-4.137,-24.321
2.430,0.101,-1.110,0.326,-65.847,-1.328,-21.847
2.430,0.105,-1.101,0.311,-65.313,1.832,-19.298
2.430,0.100,-1.102,0.294,-64.443,3.634,-16.962
2.440,0.118,-1.099,0.290,-64.458,6.397,-14.519
2.440,0.152,-1.087,0.270,-64.870,12.366,-11.832
2.450,0.171,-1.098,0.260,-64.275,19.542,-9.969
2.450,0.179,-1.105,0.257,-63.893,26.076,-8.122
2.450,0.183,-1.103,0.260,-62.870,32.336,-6.489
2.460,0.186,-1.097,0.243,-61.588,38.458,-5.176
2.460,0.204,-1.098,0.228,-61.817,47.649,-3.573
2.470,0.209,-1.104,0.234,-60.885,57.038,-1.985
2.470,0.182,-1.099,0.219,-58.794,60.137,-2.672
2.480,0.167,-1.091,0.205,-57.985,62.916,-3.344
2.480,0.134,-1.087,0.212,-56.198,60.198,-2.977
2.480,0.112,-1.092,0.198,-53.817,54.076,-3.573
2.490,0.128,-1.081,0.174,-54.122,51.588,-3.466
2.490,0.112,-1.070,0.177,-52.595,45.389,-3.420
2.500,0.105,-1.080,0.152,-51.634,39.206,-2.794
2.500,0.119,-1.064,0.137,-52.092,35.328,-2.336
2.500,0.125,-1.049,0.138,-52.031,29.588,-2.321
2.510,0.119,-1.049,0.129,-52.137,22.687,-2.611
2.510,0.139,-1.041,0.121,-52.855,18.397,-2.626
2.520,0.148,-1.041,0.125,-53.237,14.916,-3.053
2.520,0.166,-1.041,0.124,-53.954,12.702,-3.252
2.530,0.172,-1.039,0.118,-54.809,11.145,-2.794
2.530,0.183,-1.037,0.111,-55.969,11.496,-2.366
2.530,0.193,-1.042,0.126,-56.168,13.649,-1.786
2.540,0.207,-1.046,0.122,-56.519,17.038,-1.206
2.540,0.218,-1.048,0.123,-57.359,20.626,-0.931
2.550,0.232,-1.054,0.112,-58.351,23.908,-1.038
2.550,0.239,-1.050,0.127,-59.252,26.000,-1.389
2.550,0.245,-1.060,0.132,-59.481,27.939,-1.954
2.560,0.240,-1.060,0.126,-59.847,27.695,-3.771
2.560,0.238,-1.051,0.121,-60.763,25.832,-5.832
2.570,0.233,-1.057,0.119,-61.740,20.840,-8.321
2.570,0.222,-1.052,0.107,-62.534,14.153,-11.313
2.580,0.211,-1.060,0.103,-62.672,5.863,-14.458
2.580,0.196,-1.062,0.097,-63.664,-3.725,-17.298
2.580,0.181,-1.069,0.103,-63.939,-14.855,-19.756
2.590,0.167,-1.072,0.095,-63.359,-24.611,-21.618
2.590,0.159,-1.072,0.089,-63.267,-33.389,-21.847
2.600,0.160,-1.089,0.082,-62.931,-41.069,-22.183
2.600,0.173,-1.079,0.069,-64.198,-45.191,-21.099
2.610,0.165,-1.088,0.049,-66.000,-43.847,-19.725
2.610,0.172,-1.091,0.077,-66.809,-40.947,-17.924
2.610,0.181,-1.089,0.106,-67.450,-36.702,-16.290
2.620,0.177,-1.088,0.101,-67.832,-30.962,-14.305
2.620,0.194,-1.092,0.111,-67.664,-23.466,-11.359
2.630,0.176,-1.119,0.124,-64.489,-18.244,-10.977
2.630,0.173,-1.093,0.106,-64.611,-11.405,-8.366
2.640,0.162,-1.103,0.105,-64.366,-4.366,-6.519
2.640,0.163,-1.102,0.119,-62.733,3.878,-4.061
2.640,0.173,-1.113,0.145,-60.687,12.305,-1.740
2.650,0.153,-1.106,0.148,-57.191,16.748,0.031
2.650,0.143,-1.104,0.144,-53.023,18.672,2.244
2.660,0.146,-1.102,0.151,-48.366,19.023,3.634
2.660,0.139,-1.100,0.129,-43.756,16.427,4.779
2.660,0.148,-1.100,0.117,-39.252,10.321,5.038
2.670,0.161,-1.089,0.100,-34.351,4.519,4.870
2.670,0.186,-1.077,0.095,-29.115,-1.328,3.985
2.680,0.218,-1.076,0.066,-24.718,-7.450,2.550
2.680,0.242,-1.067,0.038,-21.328,-13.206,0.519
2.690,0.277,-1.051,0.002,-19.084,-18.947,-1.725
2.690,0.291,-1.042,-0.031,-17.573,-23.267,-4.107
2.690,0.305,-1.030,-0.048,-16.901,-26.137,-6.229
2.700,0.316,-1.013,-0.112,-17.863,-25.511,-8.031
2.700,0.321,-1.003,-0.137,-19.557,-23.145,-9.863
2.710,0.320,-1.010,-0.145,-21.878,-19.863,-11.206
2.710,0.307,-1.000,-0.150,-23.756,-16.183,-12.351
2.720,0.292,-0.992,-0.158,-25.481,-12.443,-12.992
2.720,0.275,-1.003,-0.176,-27.160,-6.504,-13.130
2.720,0.271,-1.001,-0.186,-29.557,-0.137,-12.580
2.730,0.229,-0.985,-0.182,-31.053,5.206,-11.237
2.730,0.208,-1.001,-0.174,-31.420,9.740,-9.756
2.740,0.197,-1.012,-0.173,-31.878,11.985,-8.092
2.740,0.183,-1.020,-0.170,-32.473,15.282,-5.649
2.750,0.185,-1.025,-0.163,-33.603,18.687,-2.962
2.750,0.187,-1.030,-0.135,-33.542,21.847,-1.053
2.750,0.178,-1.043,-0.111,-32.504,22.931,0.504
2.760,0.174,-1.044,-0.090,-30.992,21.008,1.282
2.760,0.196,-1.041,-0.086,-29.069,18.489,1.710
2.770,0.214,-1.045,-0.082,-27.435,17.099,1.313
2.770,0.215,-1.048,-0.063,-25.313,15.435,0.931
2.780,0.223,-1.051,-0.050,-22.534,12.611,0.580
2.780,0.231,-1.053,-0.055,-20.061,11.282,0.305
2.780,0.242,-1.049,-0.052,-17.557,9.893,0.473
2.790,0.240,-1.051,-0.048,-15.679,8.885,0.244
2.790,0.246,-1.042,-0.065,-14.351,7.954,0.458
2.800,0.255,-1.039,-0.051,-12.824,8.198,0.947
2.800,0.268,-1.035,-0.060,-11.344,8.931,1.282
2.800,0.283,-1.046,-0.070,-10.061,9.817,1.160
2.810,0.306,-1.033,-0.078,-9.466,10.687,0.290
2.810,0.323,-1.031,-0.099,-8.855,12.305,-1.023
2.820,0.330,-1.022,-0.095,-8.748,12.947,-3.038
2.820,0.314,-1.022,-0.117,-9.008,12.153,-4.534
2.820,0.299,-1.023,-0.128,-9.969,10.992,-6.153
2.830,0.279,-1.022,-0.137,-11.221,9.282,-7.038
2.830,0.260,-1.024,-0.137,-12.168,6.794,-8.015
2.840,0.247,-1.028,-0.121,-12.763,4.076,-8.885
2.840,0.242,-1.032,-0.102,-13.038,1.298,-9.542
2.850,0.228,-1.033,-0.100,-12.794,-2.183,-10.183
2.850,0.210,-1.034,-0.091,-12.275,-6.137,-10.565
2.850,0.197,-1.040,-0.092,-11.328,-9.603,-10.351
2.860,0.197,-1.038,-0.081,-10.061,-13.206,-10.260
2.860,0.188,-1.039,-0.088,-9.115,-16.962,-10.183
2.870,0.195,-1.041,-0.086,-8.626,-19.099,-9.802
2.870,0.193,-1.041,-0.075,-7.481,-19.588,-8.947
2.880,0.197,-1.035,-0.065,-6.901,-19.481,-8.107
2.880,0.202,-1.043,-0.062,-5.893,-19.725,-7.542
2.880,0.203,-1.051,-0.053,-4.931,-18.214,-6.412
2.890,0.200,-1.048,-0.050,-3.634,-16.092,-5.008
2.890,0.199,-1.054,-0.044,-2.229,-13.817,-3.649
2.900,0.203,-1.054,-0.036,-0.733,-11.374,-1.817
2.900,0.197,-1.053,-0.040,1.405,-8.595,-0.687
2.910,0.194,-1.049,-0.034,3.252,-5.908,1.038
2.910,0.194,-1.046,-0.037,4.962,-3.252,2.748
2.910,0.208,-1.049,-0.043,7.145,-2.122,3.756
2.920,0.211,-1.045,-0.056,8.641,-2.168,3.939
2.920,0.219,-1.037,-0.069,9.985,-3.252,3.863
2.930,0.227,-1.023,-0.094,10.672,-4.824,3.237
2.930,0.233,-1.019,-0.109,11.206,-6.290,2.443
2.930,0.230,-1.022,-0.108,11.267,-7.496,2.092
2.940,0.236,-1.017,-0.113,10.885,-8.931,1.939
2.940,0.238,-1.020,-0.101,10.779,-9.374,1.786
2.950,0.232,-1.025,-0.092,11.160,-9.435,1.786
2.950,0.224,-1.019,-0.072,11.634,-9.786,2.092
2.950,0.218,-1.028,-0.072,11.893,-8.702,2.718
2.960,0.224,-1.029,-0.045,12.244,-7.008,3.878
2.960,0.219,-1.039,-0.026,13.099,-4.473,5.450
2.970,0.222,-1.042,-0.001,13.863,-1.359,6.840
2.970,0.230,-1.064,0.032,15.695,1.634,7.588
2.970,0.228,-1.065,0.056,17.832,4.595,8.153
2.980,0.238,-1.079,0.073,19.725,7.313,8.198
2.980,0.243,-1.073,0.092,22.137,9.405,8.015
2.990,0.242,-1.083,0.119,25.191,11.084,7.206
2.990,0.227,-1.092,0.123,28.244,12.183,6.550
2.990,0.208,-1.097,0.142,31.740,11.771,6.153
3.000,0.191,-1.108,0.160,34.733,10.443,5.969
3.000,0.175,-1.114,0.170,37.817,8.733,5.740
3.010,0.152,-1.119,0.198,41.435,5.756,5.954
3.010,0.131,-1.124,0.231,45.313,1.496,6.107
3.010,0.137,-1.125,0.251,49.206,-2.427,6.336
3.020,0.140,-1.130,0.262,53.115,-5.603,6.168
3.020,0.148,-1.137,0.272,56.733,-7.389,6.489
3.030,0.139,-1.135,0.266,60.015,-8.779,6.763
3.030,0.138,-1.143,0.280,62.076,-10.366,6.916
3.030,0.149,-1.163,0.290,64.489,-12.534,5.695
3.040,0.143,-1.160,0.312,67.176,-14.611,4.748
3.040,0.152,-1.169,0.302,69.466,-15.939,3.237
3.050,0.175,-1.154,0.274,69.863,-14.595,1.771
3.050,0.206,-1.154,0.262,69.237,-10.626,-0.336
3.050,0.211,-1.165,0.250,68.580,-7.435,-3.176
3.060,0.183,-1.166,0.259,67.985,-6.687,-5.634
3.060,0.155,-1.168,0.253,66.351,-9.176,-7.740
3.070,0.112,-1.190,0.253,64.412,-13.435,-8.947
3.070,0.066,-1.202,0.280,62.473,-19.084,-9.664
3.070,0.038,-1.226,0.305,60.855,-25.878,-9.160
3.080,0.002,-1.239,0.331,60.611,-33.466,-7.313
3.080,-0.018,-1.263,0.374,61.496,-42.260,-4.733
3.090,-0.030,-1.297,0.433,63.527,-51.817,-0.550
3.090,-0.008,-1.321,0.504,67.344,-59.527,1.405
3.100,0.027,-1.334,0.537,72.748,-65.435,4.412
3.100,0.082,-1.366,0.600,80.718,-69.099,5.863
3.100,0.135,-1.377,0.651,89.618,-71.802,7.649
3.110,0.185,-1.390,0.696,99.771,-72.000,8.321
3.110,0.222,-1.373,0.713,108.168,-71.069,9.817
3.120,0.265,-1.417,0.690,118.794,-66.840,9.786
3.120,0.285,-1.399,0.669,127.344,-62.092,9.939
3.120,0.308,-1.395,0.658,135.603,-59.496,8.779
3.130,0.311,-1.382,0.616,144.718,-58.534,6.534
3.130,0.308,-1.372,0.593,151.695,-59.863,4.198
3.140,0.323,-1.361,0.530,155.878,-58.519,1.634
3.140,0.332,-1.345,0.473,158.809,-54.901,-0.626
3.150,0.309,-1.334,0.418,160.977,-53.313,-2.855
3.150,0.275,-1.313,0.389,161.756,-53.893,-4.870
3.150,0.257,-1.312,0.342,161.740,-53.374,-6.290
3.160,0.229,-1.314,0.319,161.496,-52.336,-6.840
3.160,0.195,-1.311,0.285,161.557,-52.702,-7.313
3.170,0.171,-1.296,0.240,159.939,-54.168,-7.206
3.170,0.147,-1.284,0.189,156.580,-54.626,-6.183
3.180,0.129,-1.265,0.169,152.458,-53.557,-4.977
3.180,0.131,-1.263,0.181,148.107,-50.779,-2.779
3.180,0.109,-1.252,0.179,145.008,-48.824,-0.305
3.190,0.089,-1.254,0.196,141.893,-47.008,2.809
3.190,0.095,-1.246,0.206,138.580,-44.595,6.809
3.200,0.099,-1.249,0.214,135.740,-40.290,11.282
3.200,0.126,-1.245,0.251,134.046,-34.901,14.473
3.200,0.136,-1.257,0.290,133.725,-30.504,16.733
3.210,0.158,-1.265,0.322,134.779,-27.802,18.031
3.210,0.173,-1.265,0.343,136.763,-26.168,17.985
3.220,0.181,-1.265,0.362,139.084,-26.046,17.725
3.220,0.187,-1.260,0.375,141.710,-27.985,16.794
3.230,0.184,-1.275,0.393,145.084,-32.229,14.244
3.230,0.172,-1.275,0.399,148.595,-37.099,12.183
3.230,0.161,-1.276,0.410,151.145,-41.847,11.481
3.240,0.139,-1.271,0.419,154.824,-44.748,11.679
3.240,0.136,-1.285,0.424,158.443,-45.756,12.366
3.250,0.137,-1.293,0.434,161.710,-46.031,13.328
3.250,0.130,-1.302,0.428,164.840,-47.435,14.153
3.260,0.127,-1.297,0.412,166.565,-48.000,15.435
3.260,0.125,-1.295,0.412,168.137,-46.672,17.924
3.260,0.126,-1.295,0.414,169.099,-44.458,19.817
3.270,0.141,-1.297,0.420,169.710,-42.168,22.626
3.270,0.153,-1.303,0.412,169.924,-39.267,24.840
3.280,0.190,-1.299,0.428,170.870,-36.046,25.496
3.280,0.225,-1.283,0.412,171.969,-31.527,25.985
3.290,0.231,-1.281,0.404,173.481,-27.878,26.122
3.290,0.229,-1.281,0.385,174.183,-25.115,25.542
3.290,0.213,-1.268,0.369,174.870,-24.290,24.794
3.300,0.209,-1.261,0.375,175.695,-25.847,23.389
3.300,0.190,-1.251,0.359,176.137,-28.947,22.305
3.310,0.183,-1.225,0.357,175.847,-32.534,22.443
3.310,0.191,-1.209,0.366,174.137,-35.084,23.237
3.320,0.209,-1.200,0.389,173.573,-37.206,23.649
3.320,0.247,-1.195,0.411,173.389,-38.580,23.527
3.320,0.275,-1.191,0.434,173.145,-38.916,23.237
3.330,0.318,-1.187,0.457,173.191,-36.916,23.252
3.330,0.353,-1.187,0.488,174.534,-33.053,22.611
3.340,0.375,-1.178,0.504,176.626,-29.511,21.160
3.340,0.383,-1.179,0.512,178.809,-25.908,19.557
3.340,0.398,-1.169,0.495,180.046,-22.183,17.878
3.350,0.396,-1.165,0.477,180.962,-18.855,16.168
3.350,0.392,-1.161,0.482,181.649,-16.382,14.290
3.360,0.368,-1.150,0.472,181.786,-14.901,12.473
3.360,0.353,-1.150,0.457,181.267,-14.183,11.328
3.370,0.327,-1.148,0.445,180.397,-14.550,9.389
3.370,0.302,-1.143,0.425,179.099,-15.893,7.588
3.370,0.249,-1.133,0.415,176.321,-17.450,7.405
3.380,0.215,-1.118,0.428,172.626,-18.748,9.710
3.380,0.208,-1.114,0.457,168.626,-19.099,12.794
3.390,0.232,-1.114,0.495,166.183,-17.588,15.176
3.390,0.290,-1.118,0.540,165.344,-14.229,15.832
3.400,0.323,-1.113,0.583,166.015,-9.099,15.542
3.400,0.324,-1.112,0.596,166.901,-5.038,14.489
3.400,0.306,-1.101,0.601,168.687,-3.069,13.420
3.410,0.292,-1.085,0.593,169.725,-2.305,12.687
3.410,0.260,-1.077,0.583,171.649,-2.626,12.870
3.420,0.235,-1.058,0.574,173.053,-4.290,13.176
3.420,0.202,-1.044,0.566,174.061,-7.939,13.679
3.420,0.179,-1.012,0.568,174.702,-12.458,14.840
3.430,0.175,-0.994,0.576,175.008,-16.244,16.824
3.430,0.182,-0.976,0.564,175.237,-19.405,19.802
3.440,0.205,-0.957,0.569,175.756,-21.985,22.458
3.440,0.250,-0.938,0.561,175.603,-21.557,24.885
3.450,0.309,-0.910,0.561,174.779,-18.656,26.580
3.450,0.388,-0.892,0.568,173.573,-15.542,26.855
3.450,0.456,-0.867,0.565,172.733,-11.924,26.046
3.460,0.510,-0.846,0.569,171.359,-7.344,23.878
3.460,0.570,-0.820,0.572,169.588,-3.389,20.702
3.470,0.593,-0.802,0.556,168.168,-0.260,15.786
3.470,0.598,-0.784,0.570,166.351,0.870,11.069
3.480,0.571,-0.765,0.569,164.855,0.656,6.443
3.480,0.534,-0.752,0.561,163.130,-1.023,2.702
3.480,0.512,-0.729,0.568,161.435,-3.496,-0.626
3.490,0.480,-0.711,0.580,160.183,-6.198,-3.695
3.490,0.455,-0.690,0.563,159.237,-8.641,-6.275
3.500,0.424,-0.682,0.564,158.336,-11.221,-8.473
3.500,0.390,-0.672,0.562,157.359,-13.893,-9.603
3.500,0.351,-0.653,0.576,156.351,-15.786,-10.198
3.510,0.343,-0.632,0.575,156.107,-16.137,-10.061
3.510,0.320,-0.618,0.579,156.580,-15.924,-9.985
3.520,0.304,-0.604,0.577,156.229,-15.282,-9.695
3.520,0.300,-0.584,0.564,155.588,-14.183,-8.931
3.530,0.296,-0.568,0.544,154.702,-12.611,-7.832
3.530,0.299,-0.554,0.531,152.748,-10.626,-7.023
3.530,0.287,-0.535,0.509,150.427,-9.084,-5.939
3.540,0.288,-0.519,0.504,147.786,-8.763,-5.130
3.540,0.287,-0.493,0.500,144.443,-9.130,-4.351
3.550,0.288,-0.470,0.497,141.695,-9.191,-3.511
3.550,0.278,-0.466,0.496,138.779,-10.382,-2.412
3.560,0.271,-0.449,0.485,135.954,-12.748,-1.145
3.560,0.285,-0.432,0.502,132.061,-15.481,-0.626
3.560,0.319,-0.426,0.511,128.534,-17.298,-0.916
3.570,0.343,-0.409,0.518,125.695,-18.366,-1.985
3.570,0.363,-0.395,0.525,122.779,-19.359,-3.466
3.580,0.359,-0.390,0.546,120.565,-20.122,-4.931
3.580,0.360,-0.373,0.541,118.351,-19.924,-5.649
3.590,0.372,-0.352,0.536,116.412,-19.084,-6.382
3.590,0.369,-0.336,0.544,114.702,-17.664,-6.870
3.590,0.368,-0.323,0.535,113.298,-15.435,-7.405
3.600,0.370,-0.307,0.532,112.153,-13.298,-8.046
3.600,0.363,-0.288,0.540,111.038,-10.611,-8.580
3.610,0.353,-0.275,0.530,109.359,-9.023,-8.992
3.610,0.353,-0.260,0.509,107.542,-7.466,-9.389
3.610,0.338,-0.244,0.509,105.435,-5.924,-9.725
3.620,0.332,-0.228,0.501,103.511,-5.664,-9.832
3.620,0.333,-0.215,0.498,100.534,-6.626,-10.107
3.630,0.325,-0.196,0.498,98.046,-7.634,-10.641
3.630,0.332,-0.182,0.482,94.885,-8.351,-10.977
3.640,0.334,-0.181,0.480,91.481,-8.244,-11.328
3.640,0.339,-0.173,0.483,88.748,-8.229,-12.214
3.640,0.342,-0.159,0.485,86.076,-8.122,-12.779
3.650,0.340,-0.159,0.475,83.099,-7.908,-13.344
3.650,0.324,-0.140,0.473,80.305,-6.809,-13.328
3.660,0.306,-0.133,0.462,77.389,-5.145,-12.382
3.660,0.300,-0.120,0.464,74.137,-3.878,-11.252
3.660,0.281,-0.121,0.464,71.374,-2.824,-10.031
3.670,0.280,-0.110,0.472,68.931,-1.084,-8.626
3.670,0.280,-0.115,0.487,66.656,1.328,-7.405
3.680,0.279,-0.115,0.496,64.611,4.290,-6.092
3.680,0.274,-0.122,0.496,62.031,6.458,-4.687
3.690,0.281,-0.109,0.505,59.328,7.298,-3.634
3.690,0.281,-0.113,0.520,57.053,8.947,-2.519
3.690,0.291,-0.112,0.547,55.817,10.229,-2.198
3.700,0.287,-0.116,0.571,55.282,10.626,-2.260
3.700,0.277,-0.115,0.573,54.702,9.191,-3.053
3.710,0.258,-0.104,0.584,54.427,7.313,-3.634
3.710,0.259,-0.106,0.588,54.733,5.664,-4.229
3.710,0.248,-0.096,0.594,55.099,3.313,-4.885
3.720,0.228,-0.085,0.594,55.924,0.122,-5.221
3.720,0.214,-0.074,0.586,56.015,-3.740,-5.405
3.730,0.206,-0.059,0.575,55.908,-6.794,-5.130
3.730,0.199,-0.051,0.560,55.282,-9.328,-4.687
3.730,0.200,-0.042,0.544,54.534,-11.053,-4.153
3.740,0.197,-0.021,0.535,53.267,-12.626,-3.511
3.740,0.203,-0.021,0.536,51.267,-12.748,-2.962
3.750,0.222,-0.014,0.521,49.527,-12.000,-2.366
3.750,0.222,-0.004,0.522,47.603,-10.885,-1.725
3.750,0.215,-0.006,0.515,45.985,-9.603,-0.824
3.760,0.226,0.012,0.512,43.679,-7.969,0.290
3.760,0.220,0.013,0.500,41.756,-6.412,1.435
3.770,0.224,0.021,0.493,39.145,-4.702,2.565
3.770,0.236,0.031,0.490,36.702,-3.511,3.328
3.770,0.239,0.045,0.488,34.305,-2.351,3.893
3.780,0.243,0.048,0.489,31.725,-1.237,4.718
3.780,0.252,0.044,0.487,29.176,-0.366,5.267
3.790,0.257,0.055,0.482,27.023,0.214,5.893
3.790,0.258,0.049,0.492,24.565,0.305,6.153
3.790,0.266,0.042,0.490,21.664,0.107,5.252
3.800,0.268,0.047,0.510,19.908,-1.344,5.786
3.800,0.280,0.048,0.519,17.664,-2.305,4.656
3.800,0.284,0.041,0.538,15.740,-3.466,3.634
3.810,0.296,0.044,0.552,14.229,-4.550,2.321
3.810,0.298,0.039,0.579,13.481,-6.595,0.779
3.820,0.303,0.037,0.590,12.855,-8.397,-0.626
3.820,0.293,0.034,0.601,12.824,-9.771,-1.863
3.820,0.277,0.042,0.619,12.901,-10.824,-2.809
3.830,0.277,0.040,0.620,12.992,-11.527,-3.221
3.830,0.277,0.040,0.616,12.992,-11.695,-3.435
3.840,0.272,0.044,0.607,12.534,-11.252,-3.267
3.840,0.273,0.048,0.599,11.985,-9.802,-2.962
3.840,0.265,0.059,0.596,11.282,-8.168,-2.580
3.850,0.258,0.056,0.595,10.046,-6.641,-1.695
3.850,0.250,0.061,0.589,8.718,-4.992,-0.702
3.860,0.247,0.074,0.581,6.809,-3.344,0.595
3.860,0.251,0.067,0.587,5.328,-2.092,1.634
3.860,0.249,0.069,0.590,3.832,-0.275,2.718
3.870,0.249,0.063,0.596,2.321,0.962,3.664
3.870,0.252,0.065,0.601,1.053,2.183,4.336
3.880,0.261,0.064,0.606,-0.031,2.870,4.733
3.880,0.248,0.063,0.610,-0.855,3.603,4.916
3.880,0.250,0.061,0.628,-1.389,3.832,5.282
3.890,0.250,0.063,0.618,-1.496,3.511,5.924
3.890,0.236,0.057,0.616,-2.015,2.992,6.336
3.890,0.228,0.067,0.619,-2.718,1.573,6.840
3.900,0.223,0.061,0.620,-3.740,-0.107,7.359
3.900,0.226,0.064,0.619,-5.084,-1.160,7.664
3.910,0.233,0.064,0.623,-6.519,-2.397,7.969
3.910,0.235,0.062,0.628,-7.679,-3.756,8.626
3.910,0.230,0.067,0.640,-8.565,-5.191,9.069
3.920,0.231,0.057,0.649,-9.618,-6.733,9.725
3.920,0.232,0.061,0.651,-10.534,-8.015,10.427
3.930,0.240,0.053,0.669,-11.130,-8.550,11.130
3.930,0.248,0.050,0.702,-11.298,-9.237,11.908
3.930,0.249,0.045,0.711,-10.916,-10.260,12.244
3.940,0.266,0.041,0.731,-10.947,-11.099,12.779
3.940,0.274,0.037,0.742,-10.198,-10.244,12.916
3.950,0.271,0.032,0.736,-9.969,-10.092,13.344
3.950,0.273,0.035,0.743,-9.237,-10.046,13.466
3.950,0.282,0.035,0.742,-8.885,-10.275,13.725
3.960,0.287,0.032,0.720,-9.130,-9.924,14.061
3.960,0.288,0.031,0.728,-9.481,-9.588,14.122
3.970,0.286,0.032,0.717,-9.878,-9.282,14.458
3.970,0.294,0.030,0.717,-10.595,-8.977,14.687
3.980,0.310,0.033,0.726,-11.664,-8.641,14.718
3.980,0.315,0.037,0.718,-12.809,-7.893,14.733
3.980,0.321,0.029,0.728,-13.740,-7.725,14.489
3.990,0.327,0.026,0.726,-15.069,-7.557,14.000
3.990,0.346,0.020,0.737,-16.473,-7.450,13.176
4.000,0.353,0.015,0.760,-17.527,-6.733,12.458
4.000,0.361,0.005,0.775,-17.878,-6.122,11.603
4.000,0.363,0.001,0.786,-18.015,-5.710,10.611
4.010,0.364,0.012,0.792,-18.458,-5.557,9.649
4.010,0.354,0.005,0.812,-18.046,-5.359,8.702
4.020,0.354,0.006,0.826,-17.954,-4.947,8.153
4.020,0.343,0.009,0.823,-17.389,-4.809,7.817
4.020,0.351,0.004,0.836,-17.053,-4.550,7.481
4.030,0.353,0.005,0.840,-16.351,-3.847,7.359
4.030,0.350,0.007,0.824,-15.802,-3.069,7.359
4.040,0.340,0.001,0.839,-15.267,-3.344,7.389
4.040,0.342,0.006,0.849,-14.519,-3.679,7.298
4.040,0.354,0.005,0.855,-13.756,-2.626,7.344
4.050,0.370,-0.004,0.857,-12.901,-0.855,7.359
4.050,0.362,-0.003,0.861,-12.214,0.275,7.496
4.060,0.361,-0.003,0.862,-11.710,0.885,7.649
4.060,0.361,-0.011,0.855,-11.069,1.481,7.649
4.060,0.370,-0.008,0.863,-10.779,2.183,7.695
4.070,0.374,-0.008,0.864,-10.550,2.702,7.252
4.070,0.382,-0.008,0.869,-10.321,3.588,6.992
