Time,acce_x,acce_y,acce_z,gyro_x,gyro_y,gyro_z
0.000,0.304,-0.017,0.865,-1.786,1.725,1.237
0.000,0.308,-0.017,0.866,-1.710,1.359,0.992
0.010,0.300,-0.017,0.865,-1.695,1.206,1.160
0.010,0.297,-0.015,0.862,-1.389,0.595,1.130
0.010,0.300,-0.018,0.871,-1.450,0.351,1.176
0.020,0.306,-0.020,0.871,-1.359,-0.183,0.977
0.020,0.308,-0.013,0.857,-1.466,-0.580,0.824
0.020,0.307,-0.020,0.863,-1.313,-1.252,0.763
0.030,0.313,-0.016,0.859,-1.649,-1.924,0.779
0.030,0.317,-0.010,0.864,-1.496,-1.756,0.611
0.030,0.322,-0.018,0.866,-1.588,-1.710,0.718
0.040,0.316,-0.012,0.873,-1.664,-1.679,0.672
0.040,0.319,-0.024,0.870,-1.527,-1.725,0.550
0.040,0.314,-0.024,0.860,-1.466,-1.511,0.885
0.050,0.319,-0.022,0.877,-1.176,-1.313,0.779
0.050,0.319,-0.028,0.882,-0.870,-0.901,1.038
0.050,0.318,-0.027,0.874,-0.656,-0.244,1.328
0.060,0.313,-0.025,0.870,-0.397,0.046,1.405
0.060,0.322,-0.024,0.875,-0.366,0.153,1.634
0.070,0.330,-0.026,0.863,-0.473,0.000,1.359
0.070,0.327,-0.018,0.864,-0.519,0.702,1.176
0.070,0.335,-0.020,0.876,-0.473,1.374,1.282
0.080,0.332,-0.024,0.860,-0.565,1.573,1.130
0.080,0.336,-0.013,0.869,-0.229,1.481,0.992
0.090,0.334,-0.012,0.862,-0.198,2.076,1.115
0.090,0.333,-0.010,0.874,-0.076,2.275,0.947
0.090,0.338,-0.012,0.870,0.214,2.962,0.534
0.100,0.342,-0.011,0.866,0.443,3.145,0.397
0.100,0.332,-0.006,0.868,0.656,3.252,0.229
0.110,0.331,-0.006,0.874,0.992,2.992,0.015
0.110,0.323,-0.002,0.865,0.809,3.206,-0.305
0.110,0.325,-0.002,0.864,0.840,3.420,-0.351
0.120,0.316,-0.005,0.858,0.870,3.634,-0.046
0.120,0.315,-0.000,0.857,0.656,3.405,-0.046
0.120,0.315,0.006,0.843,0.641,3.344,0.168
0.130,0.303,0.000,0.844,0.321,2.992,0.275
0.130,0.317,-0.010,0.845,0.046,2.779,0.168
0.140,0.308,-0.008,0.841,-0.458,3.008,0.244
0.140,0.313,-0.006,0.846,-0.824,3.252,0.183
0.140,0.307,-0.007,0.840,-1.023,3.084,0.244
0.150,0.312,-0.013,0.841,-1.786,2.748,0.351
0.150,0.314,-0.007,0.840,-2.015,2.656,0.351
0.160,0.313,-0.007,0.840,-2.137,2.489,0.260
0.160,0.310,-0.009,0.849,-2.733,1.969,0.351
0.160,0.310,-0.016,0.848,-2.977,1.389,0.443
0.170,0.317,-0.012,0.858,-3.084,0.672,0.244
0.170,0.319,-0.015,0.874,-3.069,0.107,0.076
0.180,0.326,-0.011,0.867,-2.626,0.244,-0.382
0.180,0.326,-0.018,0.876,-2.748,0.229,-0.321
0.180,0.317,-0.016,0.876,-2.107,-0.656,-0.473
0.190,0.321,-0.018,0.868,-1.817,-1.481,-0.687
0.190,0.313,-0.025,0.880,-1.511,-2.137,-0.809
0.200,0.313,-0.025,0.884,-0.947,-1.832,-0.962
0.200,0.312,-0.023,0.870,-0.809,-1.893,-0.656
0.200,0.306,-0.030,0.876,-0.809,-2.198,-0.718
0.210,0.313,-0.032,0.881,-0.779,-2.107,-0.382
0.210,0.316,-0.029,0.872,-0.473,-1.756,-0.412
0.220,0.314,-0.025,0.878,-0.366,-1.573,-0.153
0.220,0.310,-0.033,0.873,-0.641,-1.527,-0.061
0.220,0.324,-0.025,0.871,-0.046,-0.443,0.168
0.230,0.328,-0.027,0.886,0.321,0.275,-0.168
0.230,0.330,-0.031,0.869,0.321,0.947,-0.183
0.240,0.330,-0.024,0.873,0.718,1.420,-0.183
0.240,0.325,-0.032,0.869,0.656,2.061,-0.305
0.240,0.326,-0.029,0.867,0.901,2.534,-0.107
0.250,0.321,-0.027,0.871,0.931,2.962,-0.305
0.250,0.328,-0.023,0.864,0.794,3.145,-0.397
0.260,0.322,-0.027,0.862,0.565,3.435,-0.351
0.260,0.327,-0.027,0.854,0.641,4.137,-0.534
0.260,0.321,-0.028,0.853,0.443,4.565,-0.550
0.270,0.314,-0.026,0.844,0.244,3.832,-0.550
0.270,0.311,-0.024,0.847,0.000,3.282,-0.733
0.270,0.307,-0.022,0.845,-0.107,2.748,-0.595
0.280,0.308,-0.024,0.853,0.092,2.519,-0.504
0.280,0.303,-0.025,0.862,-0.153,2.412,-0.489
0.290,0.299,-0.021,0.849,0.031,1.878,-0.427
0.290,0.305,-0.027,0.858,-0.076,1.939,-0.168
0.290,0.300,-0.021,0.860,0.397,1.802,-0.092
0.300,0.308,-0.022,0.846,0.336,1.924,0.076
0.300,0.308,-0.011,0.860,0.565,1.695,-0.122
0.310,0.310,-0.010,0.853,0.809,1.420,-0.092
0.310,0.306,-0.011,0.846,0.656,1.435,-0.076
0.310,0.305,-0.009,0.842,0.840,1.359,0.015
0.320,0.300,-0.017,0.840,0.779,1.389,0.198
0.320,0.295,-0.012,0.831,0.382,0.534,0.397
0.330,0.300,-0.005,0.835,0.015,0.000,0.504
0.330,0.304,-0.004,0.833,-0.244,-0.107,0.718
0.330,0.311,0.001,0.841,-0.489,-0.168,0.626
0.340,0.309,0.004,0.846,-0.901,-0.779,0.702
0.340,0.308,-0.003,0.836,-1.008,-0.916,0.702
0.350,0.317,0.002,0.841,-1.160,-0.977,0.458
0.350,0.320,-0.003,0.842,-1.435,-1.420,0.244
0.350,0.308,-0.001,0.842,-1.664,-2.031,0.137
0.360,0.314,0.000,0.847,-1.664,-1.969,-0.015
0.360,0.314,-0.003,0.855,-1.802,-1.359,-0.122
0.370,0.313,-0.003,0.841,-1.664,-1.313,0.061
0.370,0.314,-0.001,0.839,-1.786,-1.282,-0.305
0.370,0.314,0.000,0.854,-2.015,-2.229,-0.015
0.380,0.313,-0.008,0.844,-2.275,-2.321,-0.290
0.380,0.315,0.000,0.868,-2.473,-1.618,-0.153
0.390,0.315,-0.005,0.854,-2.565,-1.450,-0.168
0.390,0.310,-0.004,0.852,-2.565,-1.405,0.168
0.390,0.315,-0.009,0.855,-2.840,-1.176,0.321
0.400,0.321,-0.002,0.862,-2.733,-0.901,0.366
0.400,0.330,-0.002,0.861,-2.534,-0.336,-0.031
0.410,0.328,0.001,0.870,-2.565,0.336,-0.031
0.410,0.330,-0.000,0.862,-2.214,0.779,-0.275
0.410,0.328,0.001,0.866,-2.214,0.427,-0.427
0.420,0.323,0.002,0.865,-2.137,-0.031,-0.672
0.420,0.319,-0.001,0.863,-1.802,-0.565,-0.779
0.430,0.325,0.001,0.866,-1.878,-0.794,-1.069
0.430,0.313,-0.003,0.860,-1.496,-0.992,-1.038
0.430,0.312,-0.007,0.850,-1.695,-1.786,-1.221
0.440,0.315,0.001,0.853,-1.954,-2.336,-2.336
0.440,0.314,0.010,0.857,-1.878,-3.511,-1.710
0.450,0.313,0.005,0.862,-2.214,-4.198,-1.985
0.450,0.314,-0.001,0.848,-2.214,-4.489,-2.015
0.450,0.306,-0.002,0.855,-2.534,-4.550,-1.969
0.460,0.314,0.002,0.854,-2.748,-4.565,-2.061
0.460,0.311,0.004,0.854,-2.977,-4.229,-1.969
0.470,0.305,-0.002,0.862,-3.038,-3.863,-1.618
0.470,0.301,-0.003,0.864,-3.191,-3.466,-1.099
0.470,0.305,-0.004,0.864,-3.160,-2.595,-0.992
0.480,0.301,-0.010,0.871,-3.191,-2.366,-0.748
0.480,0.305,-0.008,0.871,-3.069,-1.557,-0.626
0.490,0.314,-0.012,0.876,-2.794,-0.656,-0.824
0.490,0.309,-0.011,0.885,-2.748,0.015,-0.611
0.490,0.303,-0.021,0.875,-2.321,0.260,-0.656
0.500,0.307,-0.020,0.887,-1.878,0.931,-0.702
0.500,0.302,-0.017,0.876,-1.420,1.267,-0.473
0.510,0.297,-0.014,0.878,-1.023,1.328,-0.321
0.510,0.293,-0.016,0.878,-0.733,1.527,-0.183
0.510,0.296,-0.011,0.873,-0.290,1.679,0.015
0.520,0.287,-0.011,0.873,-0.382,1.267,0.031
0.520,0.292,-0.010,0.866,-0.168,1.069,0.198
0.530,0.291,-0.011,0.863,-0.305,1.115,0.351
0.530,0.287,-0.015,0.858,-0.565,0.580,0.443
0.530,0.287,-0.009,0.859,-0.779,0.107,0.489
0.540,0.288,-0.008,0.859,-0.916,-0.580,0.794
0.540,0.280,-0.001,0.849,-1.206,-0.550,1.191
0.550,0.289,-0.006,0.864,-1.313,-0.534,1.573
0.550,0.288,-0.013,0.852,-1.481,-0.336,1.893
0.550,0.291,-0.006,0.862,-1.725,-0.718,2.092
0.560,0.297,-0.012,0.860,-1.573,-0.779,2.641
0.560,0.306,-0.013,0.865,-1.481,-0.015,2.702
0.570,0.312,-0.011,0.862,-1.160,0.550,2.855
0.570,0.316,-0.012,0.866,-0.977,1.115,2.748
0.570,0.318,-0.022,0.870,-0.855,1.328,2.702
0.580,0.323,-0.021,0.875,-0.718,1.649,2.672
0.580,0.331,-0.016,0.855,-0.473,2.046,2.565
0.580,0.338,-0.021,0.851,-0.229,2.565,2.397
0.590,0.337,-0.011,0.854,-0.672,2.351,2.000
0.590,0.340,-0.008,0.856,-0.595,2.809,1.817
0.600,0.341,-0.006,0.855,-0.061,3.084,1.084
0.600,0.326,-0.009,0.860,-0.061,2.504,1.115
0.600,0.322,-0.009,0.850,-0.351,1.145,0.656
0.610,0.327,0.001,0.851,-0.229,-0.473,0.260
0.610,0.322,-0.000,0.847,-0.366,-0.748,0.183
0.620,0.315,0.004,0.856,-0.397,-0.824,0.076
0.620,0.312,0.001,0.843,-0.275,-0.809,0.107
0.620,0.312,-0.004,0.851,-0.351,-0.855,0.092
0.630,0.308,-0.001,0.844,-0.473,-0.412,0.244
0.630,0.317,-0.002,0.835,-0.733,0.000,0.550
0.640,0.315,-0.006,0.830,-1.130,0.473,0.565
0.640,0.319,-0.001,0.840,-1.282,0.977,0.962
0.640,0.316,-0.002,0.843,-1.588,1.206,1.221
0.650,0.320,-0.006,0.848,-1.939,1.847,1.176
0.650,0.325,-0.006,0.847,-2.046,2.351,1.206
0.660,0.322,-0.006,0.847,-1.908,2.595,1.313
0.660,0.322,-0.005,0.850,-1.969,2.092,1.008
0.660,0.329,-0.012,0.855,-2.137,1.466,0.962
0.670,0.335,-0.014,0.851,-2.183,1.008,0.672
0.670,0.333,-0.013,0.856,-2.107,1.160,0.336
0.670,0.334,-0.013,0.864,-1.908,1.221,0.137
0.680,0.328,-0.014,0.868,-1.802,0.794,-0.076
0.680,0.322,-0.011,0.871,-1.496,0.382,-0.366
0.690,0.319,-0.010,0.865,-1.206,-0.046,-0.305
0.690,0.312,-0.006,0.868,-0.992,-0.397,-0.046
0.700,0.306,-0.008,0.860,-0.718,-0.458,-0.031
0.700,0.311,-0.007,0.861,-0.412,-0.107,0.015
0.700,0.304,0.000,0.859,-0.443,0.458,0.351
0.710,0.307,-0.002,0.853,-0.443,1.099,0.595
0.710,0.310,-0.000,0.839,-0.702,1.695,0.931
0.710,0.302,-0.005,0.847,-1.053,2.489,1.405
0.720,0.309,-0.004,0.847,-1.115,3.099,1.725
0.720,0.307,0.000,0.845,-1.405,3.130,2.305
0.730,0.310,-0.002,0.843,-2.046,3.252,2.366
0.730,0.317,-0.002,0.842,-2.458,3.206,2.580
0.730,0.329,-0.005,0.838,-2.611,3.191,2.351
0.740,0.332,-0.003,0.855,-3.069,3.237,2.183
0.740,0.336,-0.014,0.864,-2.962,2.947,1.893
0.750,0.344,-0.009,0.862,-2.916,2.794,1.053
0.750,0.343,-0.019,0.856,-3.084,2.137,0.718
0.750,0.344,-0.020,0.860,-2.977,1.832,-0.015
0.760,0.349,-0.015,0.877,-2.779,1.542,-0.489
0.760,0.341,-0.014,0.869,-2.763,0.779,-1.084
0.770,0.342,-0.020,0.866,-2.550,0.153,-1.511
0.770,0.328,-0.010,0.873,-2.321,-0.275,-1.740
0.770,0.316,-0.013,0.876,-2.321,-0.534,-1.954
0.780,0.315,-0.020,0.871,-1.588,-0.595,-2.137
0.780,0.313,-0.010,0.872,-0.947,-0.336,-2.107
0.790,0.304,-0.015,0.873,-0.824,-0.748,-1.878
0.790,0.299,-0.018,0.875,-0.504,-0.718,-1.679
0.790,0.306,-0.017,0.882,-0.214,0.000,-1.420
0.800,0.298,-0.015,0.871,-0.168,0.687,-1.023
0.800,0.293,-0.013,0.874,-0.229,1.206,-0.748
0.810,0.290,-0.010,0.863,-0.153,1.115,-0.336
0.810,0.293,-0.013,0.862,-0.550,1.405,0.122
0.810,0.305,-0.012,0.870,-0.840,2.168,0.519
0.820,0.305,-0.016,0.870,-0.962,2.962,0.794
0.820,0.311,-0.010,0.865,-1.023,3.511,0.931
0.830,0.310,-0.011,0.863,-1.328,3.863,0.931
0.830,0.321,-0.015,0.867,-1.344,4.336,0.794
0.830,0.319,-0.013,0.866,-1.282,4.855,0.565
0.840,0.313,-0.016,0.873,-0.931,5.160,0.260
0.840,0.313,-0.011,0.876,-0.809,4.870,0.137
0.850,0.308,-0.013,0.868,-0.687,4.092,0.046
0.850,0.304,-0.014,0.872,-0.351,3.099,-0.260
0.850,0.302,-0.014,0.867,-0.290,2.076,-0.427
0.860,0.303,-0.015,0.866,-0.198,2.260,-0.580
0.860,0.300,-0.019,0.863,0.015,2.122,-0.733
0.870,0.297,-0.008,0.870,0.046,2.427,-0.702
0.870,0.302,-0.018,0.864,0.046,2.534,-0.672
0.870,0.297,-0.010,0.869,-0.046,2.641,-0.489
0.880,0.298,-0.014,0.868,-0.061,2.656,-0.504
0.880,0.286,-0.011,0.869,0.198,2.733,-0.366
0.880,0.295,-0.017,0.869,0.260,2.351,-0.122
0.890,0.287,-0.011,0.875,0.198,1.878,-0.122
0.890,0.294,-0.011,0.863,0.275,1.191,0.122
0.900,0.288,-0.013,0.855,0.290,1.099,0.031
0.900,0.292,-0.010,0.860,0.061,1.206,0.046
0.900,0.292,-0.010,0.864,0.092,1.298,0.214
0.910,0.290,-0.019,0.857,0.290,1.069,0.244
0.910,0.285,-0.011,0.854,0.565,0.885,0.366
0.920,0.286,-0.006,0.858,0.458,0.611,0.550
0.920,0.278,-0.011,0.853,0.489,0.840,0.656
0.920,0.282,-0.015,0.854,0.412,0.641,0.977
0.930,0.283,-0.010,0.838,-0.046,0.015,1.405
0.930,0.281,-0.005,0.824,-0.382,-0.473,1.588
0.930,0.290,-0.010,0.833,-0.992,-1.069,1.695
0.940,0.290,-0.004,0.832,-1.710,-1.634,1.527
0.940,0.295,-0.009,0.826,-2.260,-1.847,1.542
0.950,0.297,-0.005,0.840,-2.626,-2.122,1.435
0.950,0.302,-0.010,0.843,-3.038,-2.473,1.603
0.950,0.295,-0.016,0.852,-2.947,-2.779,1.893
0.960,0.303,-0.016,0.853,-2.840,-2.565,1.954
0.960,0.306,-0.013,0.863,-2.763,-2.244,2.076
0.970,0.308,-0.013,0.857,-2.840,-2.382,2.290
0.970,0.309,-0.008,0.851,-2.748,-2.076,2.336
0.970,0.321,-0.007,0.853,-2.519,-2.137,2.153
0.980,0.326,-0.011,0.863,-2.611,-1.603,2.107
0.980,0.334,-0.011,0.854,-2.473,-1.160,1.817
0.990,0.332,-0.012,0.861,-2.321,-0.840,1.695
0.990,0.332,-0.004,0.857,-2.718,-1.115,1.573
0.990,0.337,-0.011,0.858,-2.916,-1.481,1.252
1.000,0.334,-0.011,0.864,-2.885,-1.420,0.855
1.000,0.344,-0.012,0.865,-2.840,-1.618,0.473
1.010,0.340,-0.010,0.860,-3.191,-2.168,-0.061
1.010,0.341,-0.006,0.855,-3.313,-2.122,-0.412
1.010,0.337,-0.014,0.874,-3.221,-2.534,-0.733
1.020,0.340,-0.009,0.861,-2.992,-2.916,-1.053
1.020,0.334,-0.012,0.866,-2.992,-3.084,-1.191
1.030,0.326,-0.011,0.867,-2.901,-3.099,-1.328
1.030,0.334,-0.014,0.868,-2.275,-2.733,-1.527
1.040,0.333,-0.022,0.860,-2.366,-2.290,-1.466
1.040,0.331,-0.021,0.865,-2.504,-2.244,-1.603
1.040,0.322,-0.016,0.866,-2.779,-2.260,-1.756
1.050,0.326,-0.025,0.874,-2.672,-1.282,-1.618
1.050,0.325,-0.024,0.868,-2.702,-0.580,-1.664
1.060,0.315,-0.022,0.872,-2.305,-0.137,-1.557
1.060,0.308,-0.021,0.868,-2.336,-0.244,-1.527
1.060,0.309,-0.023,0.871,-2.275,0.473,-1.374
1.070,0.307,-0.026,0.875,-2.015,0.641,-1.527
1.070,0.312,-0.026,0.875,-1.756,0.840,-1.496
1.080,0.303,-0.015,0.869,-1.618,1.160,-1.481
1.080,0.305,-0.017,0.862,-1.557,1.115,-1.634
1.080,0.301,-0.019,0.868,-1.328,0.504,-1.618
1.090,0.297,-0.015,0.865,-1.450,0.076,-1.695
1.090,0.292,-0.016,0.853,-1.206,-0.321,-1.588
1.100,0.293,-0.010,0.845,-1.359,-0.992,-1.466
1.100,0.287,-0.010,0.855,-1.511,-1.649,-1.328
1.100,0.295,-0.010,0.856,-1.389,-1.405,-1.359
1.110,0.295,-0.003,0.854,-1.573,-1.069,-1.084
1.110,0.294,-0.013,0.851,-1.588,-0.198,-0.947
1.120,0.301,0.002,0.848,-1.679,0.763,-0.489
1.120,0.301,-0.007,0.859,-1.664,2.092,-0.214
1.120,0.302,-0.008,0.851,-2.031,2.794,-0.076
1.130,0.304,-0.004,0.848,-2.061,3.557,0.290
1.130,0.302,-0.003,0.850,-2.122,3.863,0.305
1.140,0.305,-0.005,0.849,-1.954,3.557,0.092
1.140,0.303,-0.003,0.858,-2.458,2.443,-0.214
1.140,0.302,-0.002,0.860,-2.962,1.145,-0.290
1.150,0.314,-0.004,0.867,-2.885,1.160,-0.641
1.150,0.313,-0.005,0.869,-2.565,1.298,-0.824
1.160,0.302,-0.010,0.873,-2.336,0.794,-1.099
1.160,0.299,-0.004,0.869,-2.153,0.244,-1.237
1.160,0.300,-0.012,0.863,-1.740,-0.305,-1.450
1.170,0.295,-0.012,0.860,-1.374,-1.420,-1.496
1.170,0.287,-0.011,0.857,-1.344,-2.351,-1.725
1.180,0.289,-0.004,0.847,-1.466,-3.023,-1.679
1.180,0.278,-0.004,0.850,-2.092,-4.305,-1.603
1.180,0.282,-0.007,0.863,-2.260,-4.397,-1.115
1.190,0.291,-0.006,0.856,-2.595,-3.389,-0.931
1.190,0.292,-0.007,0.866,-2.687,-2.427,-0.534
1.200,0.294,-0.003,0.849,-2.748,-1.939,0.031
1.200,0.293,-0.012,0.845,-2.901,-1.145,0.519
1.200,0.295,-0.011,0.863,-2.901,0.275,0.840
1.210,0.294,-0.005,0.856,-2.611,1.069,1.023
1.210,0.299,-0.011,0.866,-2.534,1.298,1.313
1.220,0.295,-0.007,0.860,-2.351,1.374,1.466
1.220,0.301,-0.011,0.858,-2.458,1.252,1.435
1.220,0.301,-0.013,0.864,-2.473,0.733,1.481
1.230,0.317,-0.014,0.860,-2.534,0.092,0.977
1.230,0.317,-0.018,0.874,-2.382,-0.580,1.023
1.240,0.324,-0.009,0.865,-2.260,-0.947,0.473
1.240,0.323,-0.015,0.878,-1.969,-1.160,0.183
1.240,0.320,-0.016,0.874,-1.527,-1.313,-0.046
1.250,0.317,-0.009,0.864,-1.267,-1.405,0.076
1.250,0.314,-0.015,0.868,-1.435,-1.099,-0.031
1.260,0.319,-0.007,0.859,-1.389,-0.489,-0.183
1.260,0.321,-0.008,0.846,-1.557,-0.214,-0.137
1.260,0.321,-0.010,0.853,-1.771,0.305,-0.198
1.270,0.325,-0.004,0.855,-2.061,1.008,-0.260
1.270,0.327,-0.007,0.855,-2.626,1.832,-0.046
1.280,0.323,-0.007,0.850,-2.779,2.260,-0.061
1.280,0.319,-0.008,0.852,-2.947,2.321,-0.137
1.280,0.323,-0.007,0.863,-3.191,2.656,-0.137
1.290,0.320,-0.008,0.852,-3.053,2.733,-0.229
1.290,0.323,-0.006,0.874,-3.160,2.824,-0.336
1.300,0.324,-0.011,0.882,-2.901,2.733,-0.534
1.300,0.327,-0.008,0.867,-2.427,2.046,-0.885
1.300,0.315,-0.011,0.881,-2.565,1.420,-1.038
1.310,0.311,-0.008,0.884,-2.229,-0.229,-1.496
1.310,0.315,-0.016,0.881,-1.908,-0.595,-1.664
1.320,0.312,-0.010,0.880,-1.405,-1.298,-1.725
1.320,0.310,-0.012,0.878,-1.069,-1.985,-1.802
1.320,0.293,-0.013,0.865,-1.099,-3.115,-1.802
1.330,0.297,-0.011,0.871,-0.855,-3.618,-1.420
1.330,0.295,-0.011,0.862,-0.901,-3.481,-1.176
1.340,0.291,-0.008,0.850,-1.099,-3.328,-0.855
1.340,0.287,-0.008,0.854,-1.237,-3.466,-0.275
1.340,0.297,-0.007,0.849,-1.847,-3.374,0.321
1.350,0.300,-0.010,0.844,-2.229,-2.519,0.702
1.350,0.302,-0.007,0.852,-2.550,-2.153,0.733
1.360,0.308,-0.014,0.852,-2.931,-2.107,0.962
1.360,0.320,-0.012,0.855,-3.115,-1.985,1.282
1.360,0.321,-0.013,0.862,-3.191,-1.649,1.023
1.370,0.326,-0.007,0.854,-3.115,-1.802,0.763
1.370,0.329,-0.003,0.858,-3.130,-2.840,0.458
1.380,0.333,-0.009,0.862,-3.130,-3.206,0.092
1.380,0.344,-0.007,0.868,-2.931,-2.992,-0.244
1.380,0.337,-0.005,0.855,-2.611,-3.130,-0.763
1.390,0.339,-0.008,0.848,-2.519,-3.573,-1.053
1.390,0.337,-0.003,0.842,-2.687,-3.786,-1.405
1.400,0.338,-0.010,0.846,-2.748,-3.618,-1.664
1.400,0.329,-0.003,0.842,-2.656,-3.481,-1.908
1.410,0.330,0.000,0.846,-3.206,-4.015,-1.832
1.410,0.315,-0.007,0.845,-3.344,-4.656,-1.863
1.410,0.327,-0.005,0.841,-3.450,-4.672,-2.336
1.420,0.318,-0.006,0.840,-3.664,-5.115,-2.397
1.420,0.317,-0.010,0.857,-3.878,-5.573,-2.198
1.430,0.320,-0.010,0.848,-3.634,-5.588,-2.443
1.430,0.323,-0.018,0.844,-3.969,-5.069,-2.076
1.430,0.318,-0.016,0.843,-4.244,-4.824,-1.939
1.440,0.317,-0.014,0.850,-4.351,-4.916,-1.573
1.440,0.323,-0.015,0.851,-4.290,-4.427,-1.603
1.450,0.322,-0.014,0.841,-4.519,-4.122,-1.389
1.450,0.329,-0.013,0.845,-4.489,-3.298,-1.573
1.450,0.331,-0.021,0.851,-4.580,-3.023,-1.496
1.460,0.333,-0.027,0.857,-4.656,-2.977,-1.695
1.460,0.330,-0.019,0.847,-4.656,-2.718,-1.847
1.470,0.332,-0.017,0.845,-4.870,-2.763,-2.031
1.470,0.329,-0.023,0.851,-4.824,-3.405,-2.321
1.470,0.324,-0.011,0.839,-4.641,-4.443,-2.580
1.480,0.314,-0.018,0.838,-4.748,-5.496,-2.672
1.480,0.315,-0.013,0.853,-5.008,-6.153,-3.191
1.490,0.325,-0.008,0.847,-5.282,-5.710,-3.695
1.490,0.321,-0.013,0.832,-5.405,-5.771,-3.863
1.490,0.302,-0.020,0.843,-5.282,-7.313,-4.198
1.500,0.306,-0.021,0.836,-4.702,-7.511,-4.229
1.500,0.313,-0.017,0.835,-4.885,-7.115,-4.214
1.510,0.322,-0.016,0.839,-5.420,-6.763,-4.092
1.510,0.324,-0.015,0.846,-5.756,-5.710,-3.802
1.520,0.314,-0.020,0.841,-6.229,-5.817,-3.053
1.520,0.313,-0.018,0.825,-5.832,-4.260,-2.321
1.520,0.300,-0.019,0.833,-6.916,-3.557,-1.130
1.530,0.292,-0.019,0.824,-7.725,-3.206,0.366
1.530,0.295,-0.024,0.840,-7.679,-1.893,1.496
1.540,0.293,-0.025,0.832,-7.725,0.015,2.885
1.540,0.300,-0.024,0.836,-7.969,1.893,4.015
1.540,0.298,-0.027,0.831,-8.031,3.237,4.656
1.550,0.309,-0.028,0.827,-7.908,4.168,4.947
1.550,0.323,-0.021,0.843,-7.969,8.305,4.656
1.550,0.336,-0.031,0.840,-6.519,14.168,4.061
1.560,0.333,-0.031,0.840,-5.695,20.855,3.130
1.560,0.309,-0.019,0.843,-4.122,22.489,4.550
1.570,0.286,-0.019,0.835,-5.817,15.206,4.824
1.570,0.273,-0.016,0.825,-7.908,3.771,4.366
1.570,0.313,-0.009,0.851,-9.435,2.626,5.374
1.580,0.319,-0.031,0.864,-9.618,6.229,5.115
1.580,0.316,-0.037,0.880,-8.580,5.771,4.595
1.590,0.321,-0.024,0.878,-8.092,2.870,3.786
1.590,0.315,-0.025,0.868,-8.107,2.534,3.588
1.590,0.324,-0.034,0.864,-7.634,3.634,2.992
1.600,0.315,-0.031,0.869,-7.191,2.977,2.382
1.600,0.312,-0.028,0.887,-6.122,1.802,1.985
1.610,0.306,-0.033,0.879,-5.481,1.557,1.664
1.610,0.312,-0.026,0.870,-5.099,2.366,1.710
1.610,0.316,-0.021,0.853,-4.626,2.611,1.237
1.620,0.312,-0.019,0.859,-4.382,2.336,1.099
1.620,0.305,-0.021,0.854,-4.458,1.878,1.206
1.630,0.300,-0.025,0.851,-4.656,1.527,1.420
1.630,0.308,-0.017,0.841,-4.779,1.649,1.160
1.630,0.301,-0.018,0.835,-5.008,1.496,1.298
1.640,0.301,-0.024,0.828,-5.511,1.618,0.870
1.640,0.302,-0.019,0.824,-5.924,1.466,1.832
1.650,0.298,-0.039,0.847,-4.122,-1.985,-0.473
1.650,0.324,-0.006,0.813,-6.046,0.183,0.214
1.650,0.306,-0.022,0.829,-5.802,0.031,-0.443
1.660,0.318,-0.028,0.835,-5.176,-0.565,-0.565
1.660,0.303,-0.020,0.834,-5.069,-0.748,-0.641
1.670,0.321,-0.021,0.799,-5.405,0.702,-0.672
1.670,0.315,-0.020,0.812,-5.221,1.099,-0.718
1.670,0.305,-0.021,0.815,-5.496,0.397,-0.809
1.680,0.309,-0.022,0.808,-5.557,0.321,-0.855
1.680,0.318,-0.013,0.800,-5.725,0.244,-0.489
1.690,0.310,-0.017,0.798,-5.939,0.137,-0.366
1.690,0.310,-0.018,0.795,-6.489,-0.626,-0.321
1.690,0.304,-0.018,0.787,-7.252,-2.076,-0.260
1.700,0.318,-0.018,0.780,-7.893,-2.153,-0.412
1.700,0.320,-0.017,0.788,-8.321,-1.450,-0.748
1.710,0.317,-0.019,0.766,-8.702,-1.588,-0.870
1.710,0.311,-0.019,0.764,-9.328,-2.244,-0.916
1.710,0.306,-0.011,0.753,-9.893,-3.099,-0.916
1.720,0.299,-0.021,0.730,-10.840,-4.137,-0.748
1.720,0.292,-0.022,0.737,-11.664,-5.176,-0.611
1.730,0.300,-0.026,0.725,-12.458,-5.695,-0.687
1.730,0.297,-0.020,0.720,-13.359,-5.695,-0.458
1.730,0.303,-0.024,0.705,-13.954,-5.420,-0.534
1.740,0.298,-0.026,0.713,-14.824,-5.282,-0.443
1.740,0.302,-0.035,0.701,-15.069,-5.069,-0.122
1.750,0.303,-0.029,0.708,-16.122,-4.092,-0.031
1.750,0.298,-0.042,0.699,-16.656,-2.779,-0.092
1.760,0.302,-0.039,0.686,-17.191,-1.511,-0.336
1.760,0.299,-0.044,0.671,-17.710,-0.595,-0.580
1.760,0.300,-0.037,0.670,-18.244,0.183,-0.763
1.770,0.292,-0.039,0.659,-19.053,0.885,-1.115
1.770,0.283,-0.038,0.637,-20.168,1.969,-1.084
1.780,0.272,-0.040,0.620,-21.420,2.366,-1.206
1.780,0.260,-0.042,0.604,-22.412,2.290,-1.282
1.780,0.253,-0.051,0.596,-23.481,2.305,-1.664
1.790,0.244,-0.039,0.566,-25.099,2.305,-1.771
1.790,0.232,-0.043,0.549,-26.855,1.908,-1.634
1.800,0.208,-0.051,0.537,-28.458,1.405,-1.542
1.800,0.202,-0.055,0.523,-30.336,0.748,-1.359
1.800,0.185,-0.060,0.503,-31.878,-0.534,-1.313
1.810,0.167,-0.069,0.489,-34.137,-1.740,-0.824
1.810,0.146,-0.085,0.462,-35.893,-3.008,0.061
1.820,0.129,-0.094,0.458,-38.015,-4.076,1.252
1.820,0.121,-0.104,0.434,-40.244,-4.412,2.336
1.820,0.108,-0.105,0.418,-43.023,-4.489,4.137
1.830,0.108,-0.115,0.418,-45.695,-5.420,5.573
1.830,0.095,-0.120,0.404,-48.794,-6.855,7.008
1.840,0.083,-0.119,0.375,-51.618,-9.313,8.382
1.840,0.072,-0.123,0.322,-55.756,-12.244,9.710
1.850,0.072,-0.108,0.254,-61.847,-13.435,11.359
1.850,0.062,-0.112,0.201,-68.779,-14.244,12.748
1.850,0.035,-0.091,0.144,-77.878,-15.756,14.855
1.860,0.011,-0.097,0.092,-88.076,-16.733,16.947
1.860,0.004,-0.112,0.073,-98.046,-18.595,18.702
1.870,0.003,-0.115,0.063,-108.550,-19.939,20.382
1.870,0.006,-0.132,0.054,-118.901,-21.176,22.672
1.880,0.017,-0.150,0.087,-128.718,-23.191,24.672
1.880,0.053,-0.169,0.143,-136.000,-24.916,26.336
1.880,0.089,-0.202,0.191,-141.389,-25.832,28.031
1.890,0.116,-0.213,0.271,-143.832,-25.359,30.580
1.890,0.188,-0.250,0.331,-143.115,-19.206,32.427
1.900,0.195,-0.261,0.315,-145.221,-17.695,35.023
1.900,0.199,-0.268,0.319,-151.725,-21.939,37.985
1.910,0.292,-0.278,0.362,-157.176,-19.649,39.771
1.910,0.383,-0.305,0.438,-158.321,-10.473,40.763
1.910,0.466,-0.312,0.511,-158.015,-0.137,40.672
1.920,0.506,-0.327,0.516,-158.168,9.115,40.168
1.920,0.537,-0.327,0.543,-157.969,18.672,38.641
1.930,0.560,-0.343,0.577,-156.443,27.573,36.779
1.930,0.563,-0.354,0.594,-153.237,34.794,33.924
1.940,0.576,-0.356,0.609,-149.939,41.115,30.947
1.940,0.564,-0.358,0.603,-146.779,44.626,27.466
1.940,0.534,-0.362,0.587,-142.947,44.962,23.160
1.950,0.508,-0.363,0.579,-139.237,41.527,19.145
1.950,0.473,-0.366,0.576,-136.504,35.023,15.725
1.960,0.457,-0.361,0.560,-134.244,26.427,11.878
1.960,0.453,-0.358,0.548,-132.611,18.046,8.702
1.970,0.453,-0.370,0.553,-131.557,9.527,5.664
1.970,0.446,-0.370,0.541,-130.397,1.908,2.763
1.970,0.452,-0.391,0.531,-129.588,-4.229,0.198
1.980,0.448,-0.402,0.523,-129.099,-9.160,-2.641
1.980,0.442,-0.411,0.513,-130.031,-11.878,-5.084
1.990,0.412,-0.437,0.496,-130.153,-14.870,-6.748
1.990,0.398,-0.445,0.491,-131.053,-15.985,-7.634
1.990,0.385,-0.449,0.457,-132.733,-15.298,-8.015
2.000,0.346,-0.476,0.428,-135.573,-14.321,-7.649
2.000,0.324,-0.465,0.400,-140.947,-9.786,-4.214
2.010,0.297,-0.517,0.429,-141.420,-11.756,-2.183
2.010,0.324,-0.534,0.443,-143.847,-10.382,1.618
2.020,0.355,-0.537,0.392,-148.885,-2.244,5.053
2.020,0.398,-0.555,0.409,-153.099,5.786,7.603
2.020,0.410,-0.578,0.437,-156.076,12.534,9.282
2.030,0.414,-0.582,0.438,-159.237,19.542,10.458
2.030,0.404,-0.590,0.437,-162.275,26.046,11.847
2.040,0.388,-0.607,0.440,-164.168,30.901,12.947
2.040,0.371,-0.623,0.448,-165.847,35.252,14.733
2.050,0.365,-0.637,0.445,-167.573,38.901,16.763
2.050,0.384,-0.648,0.425,-170.122,43.160,18.519
2.050,0.426,-0.659,0.427,-172.809,48.382,19.160
2.060,0.445,-0.681,0.424,-174.672,53.481,19.160
2.060,0.457,-0.702,0.427,-176.107,57.740,17.847
2.070,0.461,-0.731,0.435,-177.603,60.275,16.198
2.070,0.460,-0.760,0.437,-179.115,61.176,13.832
2.080,0.450,-0.780,0.437,-179.634,60.321,10.855
2.080,0.442,-0.820,0.455,-180.382,58.275,7.832
2.080,0.432,-0.844,0.443,-181.389,55.450,4.962
2.090,0.407,-0.865,0.430,-181.664,51.527,1.664
2.090,0.399,-0.889,0.415,-182.504,46.336,-1.557
2.100,0.374,-0.925,0.414,-183.374,39.695,-4.992
2.100,0.351,-0.952,0.398,-184.519,33.206,-8.397
2.110,0.335,-0.975,0.397,-185.466,26.427,-11.634
2.110,0.302,-1.002,0.371,-186.824,18.840,-14.153
2.110,0.284,-1.030,0.371,-188.611,11.359,-15.924
2.120,0.283,-1.060,0.363,-190.076,6.046,-16.137
2.120,0.291,-1.082,0.379,-192.046,3.847,-15.267
2.130,0.309,-1.107,0.385,-194.229,4.977,-13.924
2.130,0.345,-1.127,0.410,-196.412,8.595,-12.733
2.140,0.366,-1.151,0.442,-196.779,12.840,-12.321
2.140,0.376,-1.170,0.485,-196.504,18.916,-12.641
2.140,0.378,-1.178,0.487,-195.481,27.237,-12.595
2.150,0.371,-1.183,0.495,-194.092,35.603,-13.267
2.150,0.348,-1.198,0.496,-191.466,41.695,-14.687
2.160,0.290,-1.220,0.465,-187.573,45.344,-16.641
2.160,0.219,-1.231,0.451,-183.328,43.985,-18.489
2.170,0.156,-1.252,0.399,-179.817,38.870,-20.092
2.170,0.117,-1.261,0.382,-176.656,31.695,-21.847
2.170,0.088,-1.273,0.335,-173.511,22.550,-23.298
2.180,0.060,-1.295,0.278,-171.924,12.977,-24.641
2.180,0.038,-1.301,0.248,-171.908,2.595,-25.740
2.190,0.029,-1.303,0.208,-172.870,-7.069,-25.802
2.190,0.040,-1.312,0.191,-174.641,-15.908,-25.542
2.200,0.054,-1.324,0.199,-176.611,-22.718,-24.397
2.200,0.065,-1.330,0.217,-179.557,-27.374,-21.786
2.200,0.113,-1.332,0.261,-182.534,-28.489,-17.786
2.210,0.171,-1.333,0.283,-185.160,-25.252,-14.076
2.210,0.240,-1.333,0.350,-186.962,-18.748,-10.412
2.220,0.288,-1.340,0.388,-187.115,-10.305,-5.695
2.220,0.330,-1.336,0.432,-188.305,3.221,-0.779
2.230,0.388,-1.336,0.475,-188.718,17.939,3.878
2.230,0.424,-1.339,0.516,-187.481,32.473,7.176
2.230,0.441,-1.340,0.553,-184.550,47.282,9.679
2.240,0.440,-1.337,0.583,-180.763,60.366,11.679
2.240,0.430,-1.335,0.611,-175.740,70.794,12.931
2.250,0.422,-1.322,0.621,-169.817,79.115,13.344
2.250,0.396,-1.325,0.612,-163.527,85.038,13.389
2.260,0.365,-1.310,0.595,-157.053,87.924,13.008
2.260,0.337,-1.293,0.585,-149.527,87.924,11.817
2.260,0.309,-1.284,0.573,-142.290,84.855,10.168
2.270,0.273,-1.270,0.521,-135.908,80.321,7.863
2.270,0.259,-1.261,0.475,-130.641,73.924,5.466
2.280,0.240,-1.256,0.412,-126.031,66.092,2.427
2.280,0.218,-1.250,0.365,-121.496,56.198,-1.664
2.290,0.184,-1.235,0.282,-118.840,44.336,-5.725
2.290,0.157,-1.227,0.226,-118.168,31.908,-9.420
2.290,0.119,-1.228,0.169,-117.863,19.420,-12.382
2.300,0.071,-1.222,0.119,-118.595,5.588,-14.565
2.300,0.026,-1.214,0.068,-121.038,-8.153,-15.603
2.310,-0.004,-1.216,0.011,-124.748,-22.260,-15.832
2.310,-0.025,-1.211,-0.048,-129.603,-34.153,-14.794
2.320,-0.032,-1.216,-0.041,-135.008,-45.771,-12.427
2.320,-0.029,-1.227,-0.002,-138.397,-55.099,-9.084
2.330,-0.030,-1.251,0.066,-136.977,-63.740,-5.099
2.330,-0.014,-1.240,0.093,-138.870,-66.901,1.237
2.330,0.011,-1.269,0.093,-136.198,-67.939,5.618
2.340,0.048,-1.260,0.120,-136.611,-61.771,11.603
2.340,0.091,-1.257,0.147,-137.527,-49.435,18.076
2.350,0.111,-1.271,0.193,-134.748,-36.916,23.802
2.350,0.128,-1.288,0.204,-130.916,-24.809,29.298
2.360,0.134,-1.298,0.226,-126.183,-13.924,32.748
2.360,0.137,-1.288,0.242,-122.275,-5.939,36.595
2.360,0.159,-1.282,0.204,-119.786,3.908,38.244
2.370,0.212,-1.269,0.174,-117.802,17.603,38.794
2.370,0.226,-1.282,0.194,-113.511,28.229,39.008
2.380,0.165,-1.292,0.219,-110.244,20.504,37.450
2.380,0.188,-1.274,0.131,-109.603,18.366,35.740
2.390,0.200,-1.260,0.075,-110.809,21.878,34.321
2.390,0.184,-1.250,0.103,-110.763,18.412,33.145
2.390,0.154,-1.251,0.124,-109.084,10.458,30.641
2.400,0.177,-1.245,0.113,-107.664,7.588,28.046
2.400,0.236,-1.243,0.139,-107.802,10.427,27.099
2.410,0.218,-1.244,0.129,-103.603,5.420,24.061
2.410,0.176,-1.243,0.113,-99.481,-2.534,21.557
2.410,0.161,-1.234,0.106,-98.183,-9.023,20.198
2.420,0.176,-1.200,0.066,-99.511,-9.924,20.046
2.420,0.191,-1.216,0.082,-97.771,-13.069,18.489
2.430,0.187,-1.219,0.116,-94.779,-18.763,17.069
2.430,0.201,-1.203,0.130,-92.122,-22.153,15.969
2.440,0.229,-1.210,0.119,-89.511,-23.206,14.992
2.440,0.269,-1.207,0.117,-86.977,-19.969,14.931
2.440,0.293,-1.216,0.146,-82.565,-14.366,13.786
2.450,0.287,-1.210,0.134,-77.313,-10.947,12.977
2.450,0.260,-1.163,0.117,-75.008,-8.901,12.809
2.460,0.263,-1.190,0.079,-71.618,-4.076,12.611
2.460,0.280,-1.177,0.090,-69.160,1.847,12.916
2.470,0.260,-1.180,0.091,-65.695,6.031,13.557
2.470,0.235,-1.184,0.078,-62.198,10.153,15.130
2.470,0.213,-1.175,0.052,-59.725,14.824,17.557
2.480,0.205,-1.168,0.020,-57.695,20.733,19.756
2.480,0.193,-1.159,0.006,-55.511,26.748,22.321
2.490,0.182,-1.150,-0.011,-54.229,30.870,24.840
2.490,0.172,-1.147,-0.038,-52.733,35.405,27.206
2.490,0.168,-1.137,-0.072,-51.786,40.198,29.389
2.500,0.163,-1.130,-0.106,-51.252,43.557,30.794
2.500,0.146,-1.122,-0.143,-51.817,45.176,31.695
2.510,0.132,-1.117,-0.167,-53.496,45.267,32.702
2.510,0.133,-1.114,-0.184,-55.130,44.550,32.885
2.520,0.136,-1.101,-0.201,-56.992,43.008,32.473
2.520,0.132,-1.102,-0.201,-58.107,40.885,31.160
2.520,0.138,-1.104,-0.199,-59.313,36.947,29.817
2.530,0.155,-1.101,-0.193,-60.305,32.137,27.252
2.530,0.160,-1.109,-0.190,-60.397,26.794,24.015
2.540,0.154,-1.120,-0.211,-60.519,20.656,20.977
2.540,0.155,-1.114,-0.211,-61.191,14.504,18.305
2.550,0.162,-1.113,-0.195,-61.863,9.740,16.046
2.550,0.178,-1.117,-0.188,-62.229,6.580,13.679
2.550,0.191,-1.119,-0.163,-61.588,4.565,11.527
2.560,0.189,-1.122,-0.146,-60.947,2.916,9.481
2.560,0.196,-1.117,-0.126,-59.802,2.275,7.496
2.570,0.198,-1.122,-0.121,-58.534,3.206,5.695
2.570,0.189,-1.119,-0.122,-56.565,4.763,4.473
2.570,0.175,-1.114,-0.124,-54.458,5.237,3.389
2.580,0.160,-1.104,-0.120,-52.550,5.817,2.672
2.580,0.155,-1.095,-0.119,-49.832,6.443,2.397
2.590,0.131,-1.090,-0.140,-47.573,6.290,2.443
2.590,0.116,-1.085,-0.171,-46.137,5.573,2.962
2.590,0.114,-1.079,-0.180,-45.710,4.992,3.664
2.600,0.115,-1.075,-0.188,-45.389,4.305,4.092
2.600,0.130,-1.071,-0.215,-44.763,3.924,4.351
2.610,0.130,-1.062,-0.225,-44.977,2.840,4.504
2.610,0.125,-1.068,-0.229,-45.344,2.351,4.626
2.620,0.130,-1.073,-0.233,-45.573,1.649,4.809
2.620,0.146,-1.072,-0.235,-45.420,0.885,4.183
2.620,0.154,-1.068,-0.230,-45.542,0.656,3.328
2.630,0.155,-1.074,-0.229,-45.878,-0.458,2.626
2.630,0.164,-1.075,-0.226,-45.710,-1.863,1.130
2.640,0.162,-1.074,-0.224,-45.481,-2.504,0.000
2.640,0.170,-1.078,-0.210,-45.023,-2.931,-1.145
2.640,0.172,-1.081,-0.209,-44.565,-3.847,-2.809
2.650,0.179,-1.078,-0.205,-43.695,-3.786,-4.275
2.650,0.177,-1.077,-0.191,-42.687,-3.771,-5.160
2.660,0.162,-1.072,-0.178,-41.252,-3.908,-6.260
2.660,0.163,-1.066,-0.190,-39.771,-4.748,-7.511
2.670,0.148,-1.071,-0.196,-37.985,-4.870,-8.473
2.670,0.144,-1.073,-0.197,-36.183,-6.092,-9.053
2.670,0.126,-1.075,-0.200,-34.458,-7.511,-9.863
2.680,0.122,-1.073,-0.198,-32.473,-9.511,-10.595
2.680,0.112,-1.065,-0.220,-31.069,-11.618,-11.298
2.690,0.089,-1.072,-0.224,-29.725,-15.069,-11.618
2.690,0.087,-1.074,-0.244,-27.695,-19.298,-12.382
2.700,0.094,-1.061,-0.223,-27.420,-22.534,-12.489
2.700,0.099,-1.064,-0.264,-28.198,-20.397,-12.458
2.700,0.083,-1.079,-0.246,-26.702,-23.679,-13.084
2.710,0.083,-1.084,-0.237,-25.542,-29.084,-14.275
2.710,0.103,-1.079,-0.246,-24.092,-31.420,-15.466
2.720,0.094,-1.080,-0.250,-23.160,-35.344,-17.405
2.720,0.096,-1.084,-0.260,-22.595,-40.550,-18.962
2.730,0.096,-1.085,-0.259,-22.260,-44.214,-20.626
2.730,0.097,-1.083,-0.247,-21.252,-48.748,-23.191
2.740,0.096,-1.083,-0.258,-20.031,-54.611,-25.496
2.740,0.078,-1.089,-0.275,-19.374,-60.794,-27.939
2.740,0.070,-1.080,-0.279,-18.641,-66.015,-29.557
2.750,0.061,-1.082,-0.274,-18.122,-70.595,-30.427
2.750,0.049,-1.076,-0.282,-17.695,-74.198,-30.183
2.760,0.052,-1.078,-0.280,-17.267,-75.664,-29.237
2.760,0.044,-1.067,-0.287,-16.565,-75.924,-27.344
2.770,0.047,-1.064,-0.295,-16.183,-74.947,-24.779
2.770,0.038,-1.057,-0.294,-15.771,-71.756,-21.084
2.780,0.056,-1.045,-0.296,-15.221,-67.328,-16.702
2.780,0.077,-1.031,-0.309,-15.328,-61.618,-12.702
2.780,0.100,-1.031,-0.302,-14.580,-54.107,-8.122
2.790,0.122,-1.028,-0.285,-14.565,-47.038,-2.901
2.790,0.151,-1.049,-0.302,-12.153,-39.359,-1.191
2.800,0.157,-1.015,-0.299,-11.725,-32.137,2.076
2.800,0.175,-1.020,-0.318,-11.359,-26.336,4.473
2.810,0.189,-1.024,-0.318,-10.565,-21.481,6.412
2.810,0.222,-1.012,-0.306,-9.282,-18.107,6.687
2.810,0.237,-1.006,-0.298,-7.985,-16.137,6.382
2.820,0.241,-1.006,-0.311,-6.687,-15.420,5.282
2.820,0.259,-1.003,-0.315,-5.099,-16.061,3.664
2.830,0.261,-1.000,-0.328,-4.015,-18.733,1.328
2.830,0.274,-0.997,-0.322,-3.160,-21.802,-1.389
2.840,0.289,-0.997,-0.319,-1.893,-25.221,-4.550
2.840,0.290,-1.002,-0.325,-0.382,-29.069,-7.634
2.840,0.300,-0.999,-0.314,0.550,-31.160,-10.489
2.850,0.287,-0.989,-0.332,1.878,-33.023,-13.252
2.850,0.279,-0.992,-0.339,2.718,-35.176,-15.679
2.860,0.268,-0.998,-0.350,3.267,-36.427,-17.420
2.860,0.261,-0.991,-0.370,3.756,-35.527,-18.443
2.870,0.241,-0.984,-0.388,3.679,-33.038,-18.382
2.870,0.216,-0.986,-0.412,3.466,-30.214,-17.725
2.870,0.200,-0.994,-0.406,2.672,-27.466,-16.183
2.880,0.179,-0.992,-0.413,1.740,-24.412,-14.382
2.880,0.167,-0.997,-0.437,0.565,-21.359,-12.336
2.890,0.163,-0.997,-0.440,-0.947,-17.664,-10.351
2.890,0.164,-0.995,-0.442,-2.763,-14.076,-8.183
2.900,0.159,-1.006,-0.425,-4.214,-11.038,-6.305
2.900,0.176,-1.019,-0.414,-5.710,-7.313,-4.534
2.900,0.187,-1.024,-0.395,-6.458,-4.153,-3.176
2.910,0.213,-1.039,-0.353,-6.870,-1.496,-2.275
2.910,0.233,-1.054,-0.318,-6.534,0.122,-2.198
2.920,0.251,-1.054,-0.271,-5.099,1.038,-3.221
2.920,0.270,-1.070,-0.236,-2.305,0.366,-5.115
2.920,0.283,-1.039,-0.209,-0.229,-2.000,-7.267
2.930,0.294,-1.079,-0.208,3.527,-5.084,-10.473
2.930,0.294,-1.070,-0.209,6.397,-7.557,-13.099
2.940,0.297,-1.072,-0.199,9.160,-10.122,-15.237
2.940,0.295,-1.078,-0.187,12.061,-12.061,-17.435
2.950,0.295,-1.081,-0.173,14.947,-13.008,-19.237
2.950,0.298,-1.092,-0.155,17.847,-12.992,-20.534
2.950,0.292,-1.107,-0.126,21.313,-13.267,-21.634
2.960,0.311,-1.119,-0.103,24.275,-12.443,-22.214
2.960,0.311,-1.135,-0.084,27.725,-10.595,-23.130
2.970,0.330,-1.140,-0.052,31.206,-7.893,-24.061
2.970,0.341,-1.160,-0.035,35.084,-5.725,-24.885
2.980,0.343,-1.174,-0.016,39.160,-3.679,-25.740
2.980,0.339,-1.180,0.001,42.931,-1.313,-26.443
2.980,0.354,-1.193,0.021,46.550,0.168,-27.359
2.990,0.370,-1.204,0.040,49.756,1.618,-28.260
2.990,0.380,-1.226,0.061,53.313,1.695,-29.328
3.000,0.338,-1.244,0.090,54.672,-4.290,-30.733
3.000,0.433,-1.251,0.141,59.893,-1.893,-32.916
3.000,0.473,-1.276,0.202,67.939,2.336,-36.519
3.010,0.439,-1.284,0.230,75.466,2.565,-40.214
3.010,0.443,-1.288,0.229,82.733,0.779,-44.305
3.020,0.444,-1.299,0.211,89.237,-2.305,-49.191
3.020,0.425,-1.320,0.213,97.053,-6.412,-53.466
3.020,0.403,-1.324,0.199,102.061,-11.557,-57.893
3.030,0.402,-1.327,0.199,107.893,-17.542,-62.840
3.030,0.400,-1.339,0.179,113.069,-25.374,-68.427
3.040,0.418,-1.335,0.157,117.099,-33.893,-74.824
3.040,0.448,-1.350,0.141,121.725,-40.092,-82.412
3.050,0.448,-1.359,0.129,125.359,-44.840,-89.130
3.050,0.450,-1.362,0.104,127.237,-47.771,-94.580
3.060,0.477,-1.366,0.091,127.634,-47.420,-99.481
3.060,0.512,-1.374,0.119,128.214,-47.985,-104.580
3.060,0.534,-1.377,0.135,128.901,-48.046,-110.198
3.070,0.523,-1.389,0.130,128.962,-44.198,-114.718
3.070,0.498,-1.393,0.127,128.702,-37.420,-116.229
3.080,0.431,-1.391,0.131,129.008,-29.603,-115.053
3.080,0.373,-1.396,0.140,128.565,-22.519,-111.618
3.090,0.324,-1.412,0.141,129.237,-15.221,-107.176
3.090,0.287,-1.418,0.129,130.168,-8.366,-102.656
3.090,0.249,-1.425,0.142,130.641,-2.962,-97.756
3.100,0.229,-1.431,0.139,131.420,2.550,-92.718
3.100,0.218,-1.433,0.158,132.382,7.160,-88.168
3.110,0.212,-1.432,0.201,133.847,8.336,-84.794
3.110,0.218,-1.444,0.225,136.046,6.672,-83.450
3.120,0.225,-1.447,0.254,139.115,3.924,-82.168
3.120,0.224,-1.458,0.283,143.191,1.481,-80.565
3.120,0.245,-1.466,0.326,147.557,-1.206,-80.107
3.130,0.267,-1.454,0.326,152.183,-4.336,-82.061
3.130,0.268,-1.469,0.342,158.992,-8.397,-86.336
3.140,0.205,-1.473,0.329,165.695,-15.511,-89.206
3.140,0.111,-1.479,0.314,171.939,-25.542,-89.557
3.150,0.053,-1.485,0.274,177.695,-36.885,-87.588
3.150,0.024,-1.483,0.232,181.298,-45.786,-83.221
3.150,0.023,-1.469,0.203,182.504,-51.939,-77.710
3.160,0.044,-1.468,0.200,182.565,-54.260,-71.069
3.160,0.077,-1.461,0.204,183.160,-51.527,-63.115
3.170,0.137,-1.464,0.223,183.725,-43.786,-54.519
3.170,0.222,-1.454,0.231,183.847,-32.931,-45.374
3.180,0.319,-1.455,0.254,184.229,-18.183,-38.656
3.180,0.443,-1.447,0.265,185.725,-1.511,-34.382
3.180,0.494,-1.448,0.267,187.756,15.420,-31.878
3.190,0.540,-1.427,0.272,190.000,30.427,-31.252
3.190,0.543,-1.424,0.263,192.611,40.885,-32.290
3.200,0.512,-1.408,0.257,195.771,45.939,-33.969
3.200,0.463,-1.395,0.258,198.595,46.198,-34.595
3.210,0.400,-1.379,0.240,200.779,43.405,-34.427
3.210,0.384,-1.361,0.224,202.611,38.122,-34.885
3.210,0.374,-1.341,0.220,203.695,31.817,-36.489
3.220,0.371,-1.334,0.206,205.618,23.023,-38.305
3.220,0.348,-1.312,0.215,206.809,14.366,-39.084
3.230,0.353,-1.299,0.182,206.809,10.092,-38.718
3.230,0.351,-1.285,0.154,205.435,9.786,-37.130
3.240,0.356,-1.277,0.145,203.588,10.779,-34.611
3.240,0.354,-1.270,0.148,202.198,13.450,-31.252
3.240,0.370,-1.254,0.153,199.191,19.023,-27.267
3.250,0.422,-1.243,0.133,195.985,27.527,-23.756
3.250,0.458,-1.230,0.154,192.702,36.229,-21.069
3.260,0.474,-1.224,0.156,190.061,44.229,-20.107
3.260,0.458,-1.213,0.158,187.664,49.313,-19.481
3.270,0.426,-1.199,0.147,185.649,52.092,-18.794
3.270,0.393,-1.195,0.157,183.664,53.038,-16.702
3.270,0.370,-1.187,0.183,182.290,51.511,-15.145
3.280,0.360,-1.185,0.197,181.847,48.702,-13.557
3.280,0.352,-1.170,0.205,181.969,43.847,-12.153
3.290,0.377,-1.159,0.217,182.427,38.168,-12.275
3.290,0.402,-1.149,0.229,182.626,33.786,-13.145
3.300,0.405,-1.134,0.227,182.550,29.618,-13.740
3.300,0.398,-1.120,0.233,182.122,25.817,-13.863
3.300,0.398,-1.105,0.250,181.466,23.908,-13.435
3.310,0.407,-1.085,0.245,180.611,19.664,-12.061
3.310,0.393,-1.063,0.250,177.237,14.214,-11.634
3.320,0.503,-1.051,0.237,177.084,25.267,-12.366
3.320,0.499,-1.039,0.255,177.252,35.038,-11.969
3.320,0.462,-1.023,0.245,176.214,38.153,-10.076
3.330,0.448,-1.006,0.221,173.542,42.489,-7.344
3.330,0.469,-0.992,0.219,170.901,48.000,-4.733
3.340,0.474,-0.969,0.239,168.580,52.580,-3.221
3.340,0.490,-0.964,0.239,165.542,56.305,-2.015
3.350,0.457,-0.966,0.238,164.260,56.580,-1.282
3.350,0.455,-0.949,0.259,161.344,55.267,0.046
3.350,0.468,-0.940,0.232,157.603,55.099,0.733
3.360,0.497,-0.932,0.259,153.145,54.290,0.580
3.360,0.478,-0.936,0.255,149.374,47.206,-0.168
3.370,0.463,-0.912,0.303,145.069,36.809,-2.931
3.370,0.546,-0.920,0.335,144.244,37.832,-5.740
3.370,0.554,-0.916,0.359,143.053,38.000,-8.962
3.380,0.525,-0.928,0.361,142.198,33.481,-12.489
3.380,0.486,-0.904,0.379,139.863,27.084,-14.504
3.390,0.412,-0.906,0.351,135.527,13.023,-16.122
3.390,0.414,-0.867,0.403,134.947,5.160,-17.344
3.400,0.476,-0.871,0.449,135.832,4.656,-18.137
3.400,0.455,-0.847,0.426,135.420,4.458,-18.489
3.400,0.445,-0.830,0.432,134.733,3.969,-16.840
3.410,0.456,-0.814,0.434,134.565,3.618,-14.763
3.410,0.508,-0.799,0.439,133.328,8.183,-13.053
3.420,0.572,-0.784,0.447,131.954,16.412,-11.725
3.420,0.583,-0.802,0.503,135.099,24.198,-11.481
3.430,0.613,-0.800,0.521,139.511,32.733,-11.405
3.430,0.646,-0.800,0.526,143.038,42.015,-12.137
3.430,0.635,-0.794,0.509,145.786,48.473,-14.015
3.440,0.615,-0.786,0.517,147.573,50.565,-15.985
3.440,0.593,-0.779,0.503,148.198,50.809,-19.115
3.450,0.568,-0.770,0.505,148.489,49.328,-22.046
3.450,0.515,-0.753,0.495,149.618,45.176,-24.947
3.450,0.470,-0.742,0.474,151.038,38.015,-26.611
3.460,0.417,-0.713,0.458,151.893,30.229,-27.802
3.460,0.390,-0.696,0.443,152.046,23.221,-28.275
3.470,0.356,-0.663,0.436,150.748,16.885,-26.519
3.470,0.331,-0.639,0.399,149.832,11.374,-24.672
3.480,0.326,-0.616,0.404,148.611,3.878,-22.183
3.480,0.340,-0.581,0.400,144.916,2.305,-20.153
3.480,0.415,-0.552,0.391,142.977,10.473,-17.191
3.490,0.418,-0.543,0.395,141.496,15.695,-14.718
3.490,0.415,-0.516,0.386,138.534,18.595,-12.382
3.500,0.431,-0.489,0.373,135.435,24.443,-9.817
3.500,0.437,-0.480,0.375,132.412,29.832,-7.634
3.510,0.446,-0.462,0.373,128.901,33.893,-5.939
3.510,0.428,-0.460,0.388,125.252,36.153,-4.092
3.510,0.423,-0.448,0.401,121.573,37.191,-2.153
3.520,0.422,-0.440,0.419,118.672,37.664,-0.412
3.520,0.436,-0.441,0.442,116.611,37.893,0.137
3.530,0.441,-0.435,0.461,114.992,36.687,0.076
3.530,0.442,-0.432,0.486,114.748,35.084,-0.489
3.530,0.452,-0.418,0.501,114.046,33.191,-1.389
3.540,0.437,-0.411,0.517,113.985,31.847,-2.214
3.540,0.425,-0.405,0.536,114.718,30.534,-2.443
3.550,0.408,-0.401,0.541,115.542,28.779,-2.458
3.550,0.402,-0.399,0.543,115.435,26.962,-2.550
3.560,0.387,-0.379,0.554,115.527,24.290,-2.763
3.560,0.382,-0.375,0.558,115.435,21.420,-3.053
3.560,0.374,-0.363,0.549,115.069,18.473,-3.420
3.570,0.375,-0.349,0.547,114.092,16.168,-3.511
3.570,0.388,-0.334,0.547,112.656,13.756,-3.863
3.580,0.394,-0.316,0.545,111.542,12.061,-4.672
3.580,0.392,-0.307,0.545,110.916,9.832,-5.481
3.580,0.385,-0.295,0.542,109.634,7.771,-6.000
3.590,0.381,-0.272,0.535,108.901,7.344,-5.893
3.590,0.381,-0.265,0.536,107.969,6.916,-5.679
3.600,0.379,-0.255,0.517,107.069,6.107,-5.084
3.600,0.387,-0.239,0.510,104.901,6.504,-4.412
3.600,0.398,-0.222,0.490,102.870,8.031,-3.969
3.610,0.403,-0.210,0.475,100.519,9.969,-3.511
3.610,0.396,-0.199,0.475,97.344,11.740,-3.191
3.620,0.403,-0.177,0.471,94.061,14.366,-2.275
3.620,0.404,-0.163,0.474,90.305,16.931,-1.344
3.630,0.404,-0.157,0.484,87.038,19.038,-0.489
3.630,0.408,-0.144,0.494,83.954,21.389,0.031
3.630,0.412,-0.136,0.500,81.298,23.908,0.443
3.640,0.397,-0.138,0.506,78.916,25.359,0.519
3.640,0.401,-0.128,0.507,77.023,27.008,0.580
3.650,0.389,-0.114,0.520,75.389,28.290,0.855
3.650,0.388,-0.104,0.525,73.969,28.992,1.145
3.650,0.389,-0.100,0.523,72.015,29.176,1.023
3.660,0.385,-0.097,0.516,70.382,29.954,0.702
3.660,0.392,-0.097,0.509,68.962,30.305,-0.260
3.670,0.393,-0.090,0.533,67.328,29.649,-1.679
3.670,0.398,-0.093,0.517,66.000,28.214,-2.992
3.670,0.374,-0.073,0.523,63.618,27.344,-3.939
3.680,0.361,-0.070,0.525,61.969,25.832,-4.824
3.680,0.358,-0.059,0.520,60.412,23.450,-6.534
3.690,0.334,-0.057,0.537,58.321,19.893,-7.435
3.690,0.313,-0.051,0.530,56.702,17.038,-8.366
3.690,0.292,-0.046,0.539,55.389,13.481,-9.038
3.700,0.287,-0.037,0.541,54.031,10.275,-9.405
3.700,0.273,-0.035,0.520,52.122,8.153,-9.099
3.710,0.262,-0.041,0.530,50.153,6.107,-8.824
3.710,0.264,-0.029,0.527,47.817,4.031,-8.534
3.710,0.273,-0.026,0.528,46.046,2.931,-8.107
3.720,0.271,-0.023,0.521,43.924,2.229,-7.710
3.720,0.259,-0.017,0.521,41.893,2.183,-6.870
3.730,0.258,-0.011,0.519,39.527,3.008,-5.908
3.730,0.250,-0.011,0.511,37.160,3.618,-4.641
3.730,0.244,-0.001,0.513,34.809,4.061,-2.855
3.740,0.231,-0.000,0.520,32.275,4.550,-0.687
3.740,0.249,0.001,0.514,29.481,7.359,1.817
3.750,0.257,0.014,0.523,26.962,10.168,4.031
3.750,0.267,0.019,0.537,24.458,12.626,5.924
3.750,0.283,0.012,0.531,22.046,15.527,7.496
3.760,0.297,0.021,0.553,19.924,18.366,8.641
3.760,0.303,0.024,0.555,18.000,20.718,9.374
3.770,0.306,0.028,0.559,16.229,23.847,8.092
3.770,0.304,0.039,0.576,14.977,24.198,9.573
3.770,0.312,0.028,0.576,14.000,24.855,9.069
3.780,0.309,0.018,0.577,12.840,25.267,8.153
3.780,0.307,0.021,0.579,11.969,24.519,6.901
3.780,0.296,0.026,0.595,10.809,22.840,6.382
3.790,0.301,0.019,0.602,10.122,21.191,4.580
3.790,0.292,0.018,0.608,9.267,18.412,3.298
3.800,0.288,0.015,0.622,8.321,15.145,1.802
3.800,0.283,0.013,0.617,7.542,11.786,0.244
3.800,0.282,0.007,0.623,6.885,8.809,-0.992
3.810,0.274,0.003,0.637,6.366,5.847,-2.046
3.810,0.269,0.000,0.645,6.000,3.023,-3.023
3.820,0.262,-0.002,0.651,5.771,0.504,-3.374
3.820,0.267,0.002,0.659,5.634,-1.725,-3.954
3.820,0.250,-0.000,0.655,5.130,-3.542,-3.893
3.830,0.251,-0.005,0.655,4.534,-4.626,-3.603
3.830,0.237,0.008,0.656,3.740,-5.893,-3.115
3.840,0.237,0.001,0.665,2.534,-6.046,-2.183
3.840,0.250,0.012,0.660,1.237,-4.962,-1.252
3.840,0.237,0.010,0.658,-0.076,-3.466,-0.214
3.850,0.248,0.013,0.662,-1.420,-2.137,1.221
3.850,0.245,0.015,0.664,-2.611,-1.160,2.412
3.850,0.248,0.018,0.663,-4.107,0.611,3.710
3.860,0.248,0.022,0.668,-5.450,1.969,4.916
3.860,0.252,0.015,0.677,-6.962,3.084,5.969
3.870,0.260,0.021,0.678,-8.122,3.450,6.840
3.870,0.256,0.010,0.686,-9.176,4.244,7.527
3.870,0.261,0.012,0.692,-10.046,4.794,8.137
3.880,0.255,0.008,0.692,-10.885,4.718,8.687
3.880,0.264,0.005,0.704,-11.740,4.153,8.992
3.890,0.278,0.002,0.703,-12.595,3.420,9.023
3.890,0.278,-0.004,0.714,-12.916,2.824,8.870
3.890,0.281,-0.001,0.716,-13.145,1.908,8.916
3.900,0.289,-0.001,0.728,-13.160,1.008,8.656
3.900,0.286,-0.006,0.732,-13.191,0.244,8.687
3.910,0.290,-0.006,0.741,-13.206,0.046,8.687
3.910,0.289,-0.007,0.743,-13.634,-0.565,8.977
3.910,0.295,-0.003,0.747,-14.092,-1.023,8.779
3.920,0.317,-0.014,0.758,-14.534,-1.069,8.641
3.920,0.321,-0.011,0.768,-14.779,-0.489,8.244
3.930,0.324,-0.016,0.767,-14.947,0.397,7.985
3.930,0.322,-0.011,0.778,-15.420,0.000,8.015
3.930,0.321,-0.012,0.783,-15.863,0.122,7.847
3.940,0.323,-0.006,0.784,-16.473,0.977,8.122
3.940,0.316,-0.005,0.789,-16.992,1.420,8.107
3.950,0.328,-0.009,0.789,-17.328,2.153,8.290
3.950,0.330,-0.016,0.797,-17.969,2.992,8.214
3.950,0.338,-0.019,0.806,-18.412,4.031,8.092
3.960,0.344,-0.027,0.812,-18.305,5.176,7.206
3.960,0.339,-0.026,0.823,-18.290,5.786,6.580
3.970,0.338,-0.031,0.823,-18.061,6.015,5.710
3.970,0.339,-0.033,0.820,-18.229,4.992,4.672
3.970,0.328,-0.026,0.818,-18.000,4.275,3.420
3.980,0.328,-0.042,0.836,-17.664,3.282,2.198
3.980,0.318,-0.039,0.840,-17.252,2.382,1.115
3.990,0.315,-0.050,0.853,-16.611,0.763,-0.580
3.990,0.305,-0.042,0.847,-16.183,-1.115,-1.618
3.990,0.299,-0.051,0.853,-16.000,-2.794,-2.947
4.000,0.294,-0.052,0.856,-15.053,-3.221,-3.603
4.000,0.282,-0.061,0.847,-14.885,-3.847,-4.168
4.010,0.272,-0.067,0.843,-14.504,-3.710,-4.427
4.010,0.285,-0.062,0.850,-13.863,1.771,-4.992
4.010,0.286,-0.073,0.842,-12.656,4.595,-4.198
4.020,0.217,-0.061,0.834,-14.504,-2.794,-2.855
4.020,0.223,-0.053,0.823,-16.153,-6.748,-1.053
4.030,0.259,-0.057,0.840,-17.099,-4.763,0.427
4.030,0.274,-0.052,0.853,-17.603,-2.214,1.420
4.040,0.280,-0.057,0.866,-17.527,-0.687,2.366
4.040,0.289,-0.049,0.868,-18.031,0.977,3.328
4.040,0.299,-0.053,0.857,-18.412,3.481,4.031
4.050,0.306,-0.047,0.867,-18.366,5.542,4.351
4.050,0.307,-0.054,0.875,-18.137,6.550,4.550
4.060,0.316,-0.044,0.871,-18.092,6.794,4.473
4.060,0.317,-0.043,0.870,-17.710,7.435,4.580
4.060,0.316,-0.049,0.891,-17.221,6.351,4.779
4.070,0.316,-0.046,0.887,-16.947,7.115,4.763
4.070,0.322,-0.044,0.898,-16.519,6.626,4.840
4.080,0.328,-0.041,0.907,-15.985,5.282,4.626
4.080,0.331,-0.048,0.913,-15.481,4.840,4.275
4.080,0.346,-0.052,0.921,-14.916,4.397,4.046
