Time,acce_x,acce_y,acce_z,gyro_x,gyro_y, gyro_z
0.000,0.193,-0.094,0.883,-0.748,8.015,-3.405
0.000,0.186,-0.098,0.879,-0.504,7.252,-3.405
0.010,0.180,-0.101,0.866,-0.763,5.954,-3.099
0.010,0.177,-0.102,0.865,-0.931,5.191,-2.840
0.010,0.174,-0.097,0.866,-1.176,4.183,-2.855
0.020,0.163,-0.101,0.857,-1.481,3.252,-2.397
0.020,0.155,-0.099,0.848,-1.939,2.244,-2.122
0.020,0.159,-0.097,0.855,-2.427,0.947,-1.695
0.030,0.164,-0.096,0.856,-3.313,-0.229,-1.389
0.030,0.171,-0.101,0.858,-3.863,-0.504,-0.855
0.030,0.176,-0.108,0.854,-4.366,-0.672,-0.611
0.040,0.178,-0.108,0.867,-4.794,-1.115,-0.183
0.040,0.184,-0.111,0.872,-4.992,-1.542,0.168
0.040,0.190,-0.107,0.881,-5.176,-1.191,0.275
0.050,0.190,-0.115,0.885,-5.130,-1.130,0.565
0.050,0.195,-0.118,0.902,-4.947,-1.282,0.763
0.060,0.201,-0.124,0.893,-4.687,-0.595,0.947
0.060,0.205,-0.119,0.911,-4.260,0.031,0.992
0.060,0.203,-0.122,0.918,-3.954,0.565,1.191
0.070,0.208,-0.123,0.905,-3.573,0.947,1.359
0.070,0.202,-0.119,0.901,-3.023,0.534,1.588
0.080,0.209,-0.125,0.912,-3.038,-0.366,1.710
0.080,0.216,-0.118,0.911,-2.977,-0.443,1.664
0.080,0.225,-0.111,0.907,-3.023,0.092,1.756
0.090,0.233,-0.118,0.907,-3.130,0.473,1.832
0.090,0.225,-0.116,0.908,-3.374,0.122,1.603
0.090,0.228,-0.118,0.908,-3.527,-0.015,1.542
0.100,0.225,-0.115,0.897,-3.450,-0.122,1.664
0.100,0.227,-0.123,0.913,-3.389,-0.397,1.542
0.110,0.226,-0.124,0.915,-3.221,-0.366,1.649
0.110,0.229,-0.122,0.917,-2.947,-0.855,1.435
0.110,0.237,-0.123,0.929,-2.779,-1.038,1.130
0.120,0.237,-0.127,0.935,-2.336,-0.916,0.916
0.120,0.237,-0.131,0.938,-1.740,-1.298,0.473
0.130,0.237,-0.132,0.942,-1.328,-1.496,0.229
0.130,0.235,-0.133,0.939,-0.824,-1.496,0.153
0.130,0.229,-0.141,0.951,0.092,-1.771,0.122
0.140,0.224,-0.138,0.952,1.191,-2.107,0.198
0.140,0.221,-0.136,0.938,2.061,-3.099,0.229
0.150,0.211,-0.136,0.926,2.611,-4.901,0.550
0.150,0.215,-0.123,0.922,3.176,-6.412,0.443
0.150,0.229,-0.128,0.921,3.573,-6.947,0.321
0.160,0.235,-0.122,0.919,3.802,-6.412,0.015
0.160,0.240,-0.132,0.914,4.076,-5.786,-0.244
0.170,0.236,-0.122,0.896,4.443,-5.786,-0.122
0.170,0.238,-0.120,0.894,4.443,-5.466,-0.611
0.170,0.244,-0.115,0.881,4.198,-4.397,-0.763
0.180,0.252,-0.120,0.875,4.244,-3.664,-0.977
0.180,0.244,-0.118,0.868,4.046,-2.443,-1.466
0.190,0.244,-0.112,0.868,4.046,-1.374,-1.588
0.190,0.237,-0.115,0.858,3.710,-0.565,-1.802
0.190,0.237,-0.109,0.853,2.794,-0.107,-1.893
0.200,0.227,-0.103,0.853,2.336,0.458,-2.031
0.200,0.225,-0.103,0.842,1.588,0.672,-1.908
0.210,0.227,-0.098,0.845,1.252,0.809,-1.954
0.210,0.215,-0.100,0.838,0.779,0.427,-1.939
0.210,0.219,-0.102,0.844,0.733,-0.107,-1.908
0.220,0.214,-0.101,0.848,0.641,0.214,-1.725
0.220,0.216,-0.097,0.835,0.244,0.153,-2.031
0.230,0.216,-0.103,0.846,0.031,-0.107,-1.924
0.230,0.221,-0.101,0.855,-0.504,0.107,-2.229
0.230,0.212,-0.100,0.837,-0.870,-0.198,-2.321
0.240,0.214,-0.099,0.849,-0.992,-0.275,-2.427
0.240,0.210,-0.102,0.853,-1.496,-0.870,-2.779
0.250,0.202,-0.104,0.857,-2.122,-1.634,-2.550
0.250,0.208,-0.105,0.859,-2.198,-2.244,-2.565
0.250,0.206,-0.106,0.863,-2.595,-2.489,-2.595
0.260,0.215,-0.110,0.865,-2.855,-2.534,-2.565
0.260,0.209,-0.109,0.868,-3.038,-3.130,-2.336
0.270,0.207,-0.114,0.874,-2.977,-3.008,-2.229
0.270,0.217,-0.117,0.873,-2.733,-2.794,-1.954
0.270,0.211,-0.121,0.886,-2.351,-2.366,-1.893
0.280,0.217,-0.118,0.886,-2.275,-2.275,-1.511
0.280,0.221,-0.127,0.897,-1.893,-2.321,-1.389
0.290,0.230,-0.123,0.887,-1.313,-1.939,-1.481
0.290,0.228,-0.122,0.887,-1.267,-1.802,-1.282
0.290,0.236,-0.122,0.888,-1.130,-1.420,-1.527
0.300,0.237,-0.123,0.889,-1.038,-1.267,-1.618
0.300,0.229,-0.119,0.897,-0.885,-1.160,-1.832
0.310,0.231,-0.121,0.884,-0.885,-0.855,-2.153
0.310,0.231,-0.108,0.880,-0.748,-0.840,-2.260
0.320,0.227,-0.116,0.884,-0.473,-0.718,-2.336
0.320,0.224,-0.111,0.883,-0.397,-0.947,-2.718
0.320,0.235,-0.105,0.879,-0.214,-0.626,-2.702
0.330,0.228,-0.103,0.877,-0.458,-1.038,-3.191
0.330,0.221,-0.105,0.865,-0.779,-1.405,-3.511
0.340,0.231,-0.095,0.872,-0.885,-1.817,-3.466
0.340,0.224,-0.094,0.866,-1.221,-1.328,-3.710
0.340,0.221,-0.094,0.869,-1.603,-1.389,-3.511
0.350,0.219,-0.096,0.874,-1.573,-1.053,-3.527
0.350,0.222,-0.103,0.868,-1.344,-0.794,-3.282
0.360,0.222,-0.099,0.872,-1.191,-0.412,-3.023
0.360,0.223,-0.098,0.874,-1.420,-0.718,-3.038
0.360,0.234,-0.095,0.876,-1.191,-0.366,-3.023
0.370,0.237,-0.103,0.890,-1.145,0.382,-3.191
0.370,0.233,-0.094,0.888,-1.023,0.718,-3.298
0.380,0.234,-0.094,0.878,-0.779,0.672,-3.374
0.380,0.224,-0.095,0.885,-0.824,0.534,-3.389
0.380,0.225,-0.092,0.888,-0.321,0.183,-3.344
0.390,0.223,-0.092,0.881,-0.046,0.198,-3.405
0.390,0.219,-0.095,0.878,-0.168,-0.336,-3.359
0.400,0.221,-0.090,0.886,-0.168,-0.687,-3.405
0.400,0.221,-0.090,0.877,-0.336,-1.069,-3.359
0.400,0.220,-0.087,0.878,-0.611,-1.282,-3.557
0.410,0.223,-0.094,0.885,-0.611,-1.267,-3.527
0.410,0.219,-0.084,0.882,-0.397,-1.389,-3.237
0.420,0.219,-0.086,0.882,-0.489,-0.947,-3.221
0.420,0.219,-0.082,0.880,-0.504,-0.504,-3.053
0.420,0.213,-0.089,0.895,-0.397,-0.626,-2.763
0.430,0.215,-0.084,0.882,-0.321,-0.458,-2.718
0.430,0.212,-0.086,0.879,-0.336,-0.397,-2.626
0.440,0.215,-0.085,0.887,-0.534,0.046,-2.550
0.440,0.209,-0.083,0.876,-0.595,0.137,-2.550
0.440,0.210,-0.086,0.872,-0.641,0.214,-2.519
0.450,0.209,-0.078,0.882,-0.931,0.260,-2.260
0.450,0.203,-0.081,0.878,-0.901,-0.244,-2.092
0.460,0.200,-0.086,0.885,-1.115,-0.366,-1.939
0.460,0.206,-0.087,0.875,-0.977,-0.702,-1.878
0.470,0.198,-0.089,0.873,-0.870,-0.733,-1.802
0.470,0.198,-0.083,0.888,-1.069,-0.824,-1.481
0.470,0.199,-0.083,0.881,-0.947,-0.656,-1.344
0.480,0.198,-0.094,0.883,-1.160,-0.916,-1.206
0.480,0.200,-0.086,0.882,-1.481,-0.855,-0.992
0.490,0.190,-0.083,0.876,-1.573,-1.176,-0.702
0.490,0.186,-0.093,0.879,-1.496,-1.389,-0.092
0.490,0.193,-0.088,0.876,-1.511,-1.450,-0.015
0.500,0.190,-0.093,0.876,-1.679,-1.359,0.260
0.500,0.190,-0.091,0.873,-1.557,-1.145,0.137
0.510,0.188,-0.090,0.874,-1.588,-2.015,0.534
0.510,0.200,-0.094,0.881,-1.847,-2.824,0.565
0.510,0.200,-0.095,0.893,-1.908,-2.519,0.672
0.520,0.207,-0.102,0.887,-1.878,-2.397,0.718
0.520,0.205,-0.093,0.894,-1.878,-2.977,0.687
0.530,0.206,-0.100,0.904,-1.786,-3.313,1.084
0.530,0.205,-0.104,0.901,-1.450,-3.191,1.206
0.530,0.202,-0.095,0.889,-0.977,-3.206,1.450
0.540,0.205,-0.099,0.891,-0.824,-3.527,1.603
0.540,0.205,-0.101,0.894,-0.611,-3.832,1.481
0.550,0.206,-0.097,0.899,-0.458,-4.092,1.710
0.550,0.211,-0.092,0.884,-0.595,-4.366,1.634
0.550,0.217,-0.096,0.888,-0.763,-4.504,1.573
0.560,0.218,-0.098,0.891,-0.748,-4.901,1.588
0.560,0.223,-0.099,0.889,-0.641,-5.038,1.603
0.570,0.225,-0.103,0.897,-0.519,-4.947,1.542
0.570,0.232,-0.107,0.890,-0.198,-4.702,1.618
0.570,0.234,-0.103,0.889,-0.031,-4.076,1.420
0.580,0.234,-0.098,0.887,0.244,-3.740,1.725
0.580,0.238,-0.101,0.900,0.580,-3.328,1.573
0.590,0.239,-0.104,0.893,0.992,-2.489,1.695
0.590,0.240,-0.109,0.885,1.374,-1.618,1.542
0.590,0.239,-0.108,0.903,1.740,-1.496,1.405
0.600,0.243,-0.112,0.899,2.183,-1.649,1.542
0.600,0.252,-0.111,0.899,2.656,-0.931,1.084
0.610,0.249,-0.109,0.904,3.298,-0.656,0.947
0.610,0.241,-0.109,0.900,3.267,-0.260,0.824
0.610,0.229,-0.113,0.890,3.725,0.275,0.672
0.620,0.227,-0.112,0.894,3.924,0.458,0.870
0.620,0.225,-0.111,0.890,4.107,0.412,0.855
0.620,0.229,-0.107,0.878,4.229,0.382,0.962
0.630,0.230,-0.109,0.872,4.366,0.565,1.145
0.630,0.235,-0.108,0.878,4.290,0.534,1.191
0.640,0.233,-0.098,0.863,4.290,0.366,1.282
0.640,0.244,-0.102,0.861,3.649,0.794,1.206
0.640,0.239,-0.103,0.856,3.695,0.809,1.160
0.650,0.234,-0.098,0.853,3.084,0.718,0.885
0.650,0.235,-0.096,0.848,2.885,0.168,0.794
0.650,0.241,-0.100,0.849,2.137,-0.015,0.733
0.660,0.241,-0.091,0.851,1.756,0.153,0.840
0.660,0.244,-0.088,0.852,1.450,0.061,0.763
0.670,0.243,-0.090,0.861,1.405,-0.092,0.580
0.670,0.249,-0.086,0.849,1.450,0.061,0.351
0.670,0.263,-0.089,0.856,1.267,0.092,0.229
0.680,0.255,-0.089,0.863,1.374,0.260,-0.076
0.680,0.264,-0.085,0.859,1.450,0.916,-0.107
0.690,0.261,-0.080,0.870,1.527,0.992,-0.229
0.690,0.253,-0.086,0.859,1.863,1.130,-0.489
0.690,0.248,-0.078,0.845,1.832,0.855,-0.748
0.700,0.250,-0.081,0.859,1.649,0.611,-0.672
0.700,0.250,-0.079,0.854,1.313,0.626,-0.901
0.710,0.248,-0.079,0.855,1.252,1.374,-0.718
0.710,0.246,-0.074,0.846,1.115,1.908,-0.916
0.710,0.247,-0.077,0.850,0.977,1.969,-0.748
0.720,0.246,-0.074,0.862,0.733,2.504,-0.962
0.720,0.248,-0.078,0.858,0.992,3.115,-0.931
0.720,0.251,-0.075,0.855,0.748,3.328,-1.084
0.730,0.247,-0.079,0.852,0.489,3.176,-1.313
0.730,0.249,-0.085,0.860,0.397,3.435,-1.557
0.740,0.248,-0.083,0.854,0.122,3.206,-1.908
0.740,0.254,-0.078,0.863,0.046,3.099,-2.290
0.740,0.241,-0.086,0.864,-0.076,2.412,-2.519
0.750,0.242,-0.085,0.856,-0.183,1.832,-2.489
0.750,0.234,-0.078,0.857,-0.336,1.023,-2.901
0.760,0.234,-0.082,0.870,-0.427,0.260,-2.885
0.760,0.233,-0.083,0.855,-0.412,-0.076,-2.901
0.760,0.228,-0.081,0.861,-0.260,-0.183,-3.038
0.770,0.234,-0.085,0.856,-0.718,-0.351,-3.328
0.770,0.232,-0.085,0.853,-0.885,-0.504,-3.435
0.780,0.229,-0.084,0.859,-1.176,-0.336,-3.405
0.780,0.220,-0.086,0.857,-1.252,-0.412,-3.450
0.780,0.217,-0.084,0.866,-1.267,-0.336,-3.252
0.790,0.218,-0.085,0.856,-1.313,0.107,-3.038
0.790,0.217,-0.083,0.866,-1.603,0.366,-2.992
0.800,0.209,-0.074,0.863,-1.908,0.550,-2.748
0.800,0.204,-0.078,0.860,-2.061,0.687,-2.534
0.800,0.205,-0.081,0.860,-2.015,1.252,-2.351
0.810,0.204,-0.081,0.865,-1.924,1.740,-2.275
0.810,0.198,-0.079,0.861,-1.664,1.863,-1.969
0.820,0.198,-0.083,0.861,-1.695,1.511,-1.649
0.820,0.203,-0.083,0.864,-1.603,2.000,-1.481
0.820,0.204,-0.084,0.870,-1.603,2.458,-1.145
0.830,0.208,-0.081,0.852,-1.618,2.260,-1.008
0.830,0.213,-0.084,0.852,-2.092,1.924,-0.809
0.840,0.217,-0.080,0.856,-2.656,1.542,-0.641
0.840,0.218,-0.084,0.855,-2.947,1.511,-0.611
0.840,0.222,-0.079,0.861,-3.511,1.237,-0.840
0.850,0.231,-0.090,0.870,-3.618,1.145,-0.916
0.850,0.227,-0.095,0.876,-4.046,1.405,-0.855
0.860,0.228,-0.090,0.879,-3.649,1.450,-0.718
0.860,0.226,-0.095,0.881,-3.481,1.695,-0.626
0.860,0.228,-0.099,0.885,-2.901,2.122,-0.840
0.870,0.235,-0.098,0.893,-2.565,2.565,-0.672
0.870,0.237,-0.102,0.882,-1.710,3.069,-0.550
0.880,0.234,-0.094,0.887,-1.145,3.710,-0.565
0.880,0.232,-0.092,0.870,-0.519,3.924,-0.748
0.880,0.234,-0.091,0.868,-0.427,4.260,-0.947
0.890,0.240,-0.097,0.866,0.015,4.916,-1.206
0.890,0.241,-0.086,0.866,0.122,5.344,-1.328
0.900,0.234,-0.083,0.851,0.366,5.634,-1.664
0.900,0.230,-0.083,0.837,0.214,5.832,-2.046
0.900,0.226,-0.077,0.834,0.122,6.046,-1.954
0.910,0.217,-0.072,0.825,-0.351,5.466,-1.908
0.910,0.214,-0.065,0.827,-0.763,5.191,-1.878
0.920,0.220,-0.063,0.815,-1.115,4.687,-1.740
0.920,0.220,-0.069,0.819,-1.878,4.214,-1.756
0.920,0.207,-0.069,0.810,-2.641,3.038,-1.298
0.930,0.222,-0.064,0.816,-3.618,2.641,-1.282
0.930,0.224,-0.063,0.814,-4.611,2.992,-1.527
0.940,0.230,-0.063,0.809,-5.573,2.427,-1.588
0.940,0.229,-0.066,0.811,-6.565,2.000,-1.435
0.940,0.232,-0.065,0.817,-7.557,2.351,-1.466
0.950,0.238,-0.069,0.828,-8.076,3.466,-1.221
0.950,0.234,-0.067,0.824,-8.443,3.908,-1.145
0.960,0.239,-0.072,0.835,-8.336,4.702,-0.931
0.960,0.234,-0.074,0.840,-8.504,5.863,-0.595
0.960,0.238,-0.072,0.837,-8.183,6.656,-0.565
0.970,0.241,-0.070,0.835,-8.366,7.786,-0.550
0.970,0.248,-0.070,0.834,-7.985,8.794,-0.885
0.980,0.245,-0.074,0.836,-7.954,9.695,-1.053
0.980,0.237,-0.075,0.830,-7.924,9.893,-1.527
0.980,0.236,-0.071,0.816,-7.863,9.252,-1.618
0.990,0.233,-0.072,0.825,-8.122,8.672,-1.954
0.990,0.233,-0.068,0.817,-7.969,8.779,-2.489
1.000,0.242,-0.067,0.814,-7.939,8.046,-2.855
1.000,0.238,-0.066,0.800,-8.504,6.656,-3.511
1.000,0.235,-0.066,0.796,-8.885,5.466,-4.229
1.010,0.240,-0.062,0.770,-9.664,3.863,-5.115
1.010,0.242,-0.061,0.779,-9.969,3.405,-5.832
1.020,0.241,-0.063,0.763,-10.840,2.870,-6.580
1.020,0.229,-0.065,0.772,-11.008,1.405,-7.237
1.020,0.223,-0.062,0.763,-11.679,-0.763,-7.710
1.030,0.230,-0.062,0.753,-12.672,-2.137,-8.198
1.030,0.224,-0.060,0.739,-13.573,-2.092,-8.885
1.040,0.235,-0.062,0.744,-14.046,-1.115,-9.817
1.040,0.223,-0.071,0.756,-13.893,-0.351,-10.321
1.050,0.227,-0.076,0.764,-13.084,1.374,-11.115
1.050,0.223,-0.082,0.752,-11.359,2.534,-11.924
1.050,0.219,-0.086,0.765,-9.725,2.519,-13.053
1.060,0.213,-0.096,0.775,-7.176,1.542,-14.718
1.060,0.224,-0.109,0.787,-3.939,2.290,-16.382
1.070,0.227,-0.106,0.781,-0.290,2.672,-18.672
1.070,0.211,-0.115,0.775,3.252,0.458,-21.542
1.070,0.206,-0.118,0.751,6.015,-3.176,-24.000
1.080,0.176,-0.125,0.735,8.580,-7.679,-26.550
1.080,0.165,-0.117,0.729,11.176,-13.450,-28.779
1.090,0.167,-0.113,0.699,13.450,-17.725,-31.221
1.090,0.183,-0.097,0.664,14.595,-16.107,-34.626
1.090,0.228,-0.091,0.633,16.702,0.427,-41.023
1.100,0.206,-0.111,0.555,16.275,8.931,-39.298
1.100,0.035,-0.026,0.568,10.992,-14.427,-33.924
1.110,0.083,-0.049,0.498,6.992,-25.847,-31.756
1.110,0.155,-0.030,0.476,1.954,-20.885,-33.420
1.120,0.245,0.003,0.488,-2.733,-10.519,-30.473
1.120,0.235,-0.015,0.480,-6.427,-5.420,-30.183
1.120,0.238,0.002,0.427,-11.756,0.076,-29.863
1.130,0.245,-0.007,0.432,-16.763,5.450,-29.115
1.130,0.198,-0.179,0.445,-17.084,-2.382,-33.267
1.140,0.430,0.013,0.259,-25.985,32.214,-28.427
1.140,0.329,0.036,0.315,-36.656,45.786,-30.214
1.140,0.301,0.026,0.331,-41.573,50.458,-30.748
1.150,0.328,0.016,0.366,-43.481,53.038,-31.359
1.150,0.306,0.008,0.360,-46.443,52.626,-33.267
1.160,0.286,-0.006,0.333,-50.809,50.656,-35.237
1.160,0.238,-0.007,0.347,-54.901,42.611,-36.931
1.170,0.220,-0.038,0.361,-57.359,32.534,-38.122
1.170,0.226,-0.044,0.367,-59.359,22.687,-39.435
1.170,0.233,-0.052,0.369,-60.885,13.313,-40.229
1.180,0.216,-0.075,0.380,-62.718,3.649,-40.870
1.180,0.211,-0.093,0.416,-64.443,-7.420,-41.588
1.190,0.214,-0.103,0.416,-64.718,-16.229,-42.382
1.190,0.225,-0.114,0.433,-65.237,-22.290,-42.824
1.200,0.231,-0.128,0.416,-67.328,-22.870,-41.832
1.200,0.215,-0.138,0.400,-69.084,-21.206,-39.893
1.200,0.177,-0.154,0.418,-69.313,-21.908,-38.229
1.210,0.170,-0.171,0.414,-71.634,-21.145,-36.763
1.210,0.169,-0.166,0.374,-73.023,-19.130,-34.687
1.220,0.158,-0.172,0.361,-74.672,-16.336,-32.076
1.220,0.155,-0.178,0.330,-77.420,-16.061,-29.756
1.230,0.168,-0.192,0.315,-81.252,-16.901,-28.168
1.230,0.181,-0.195,0.285,-86.321,-15.893,-27.573
1.230,0.190,-0.204,0.250,-92.519,-13.664,-26.947
1.240,0.169,-0.217,0.260,-98.046,-15.084,-26.198
1.240,0.213,-0.219,0.229,-104.611,-15.282,-26.763
1.250,0.248,-0.242,0.223,-111.099,-14.183,-27.511
1.250,0.229,-0.249,0.232,-117.405,-15.359,-27.145
1.260,0.212,-0.265,0.236,-124.947,-16.626,-26.153
1.260,0.219,-0.294,0.231,-134.092,-17.496,-25.573
1.270,0.221,-0.298,0.207,-141.954,-17.634,-24.351
1.270,0.218,-0.336,0.289,-149.481,-21.298,-22.641
1.270,0.251,-0.361,0.289,-157.160,-21.695,-21.496
1.280,0.276,-0.393,0.347,-163.771,-20.366,-20.473
1.280,0.267,-0.433,0.389,-168.427,-20.931,-19.191
1.290,0.265,-0.465,0.442,-171.817,-20.397,-17.786
1.290,0.271,-0.500,0.462,-173.878,-20.137,-16.351
1.300,0.278,-0.529,0.508,-174.473,-20.275,-15.450
1.300,0.288,-0.551,0.547,-174.473,-20.687,-14.916
1.310,0.283,-0.586,0.577,-173.038,-21.847,-14.595
1.310,0.281,-0.610,0.607,-171.115,-22.733,-14.458
1.310,0.276,-0.631,0.597,-169.802,-24.153,-14.031
1.320,0.273,-0.656,0.602,-169.145,-25.771,-14.046
1.320,0.274,-0.680,0.604,-169.221,-27.588,-13.969
1.330,0.260,-0.701,0.597,-169.206,-28.198,-13.496
1.330,0.239,-0.725,0.592,-169.985,-27.435,-12.336
1.340,0.231,-0.743,0.588,-171.527,-26.321,-10.992
1.340,0.219,-0.767,0.576,-172.962,-24.748,-9.802
1.340,0.217,-0.782,0.560,-174.718,-22.137,-8.672
1.350,0.204,-0.811,0.546,-177.237,-19.389,-7.176
1.350,0.180,-0.829,0.511,-180.275,-16.122,-5.115
1.360,0.173,-0.840,0.507,-184.046,-13.313,-2.580
1.360,0.175,-0.863,0.494,-187.954,-10.947,-0.336
1.370,0.184,-0.881,0.483,-191.878,-8.794,1.878
1.370,0.178,-0.902,0.483,-195.557,-7.832,3.802
1.370,0.170,-0.927,0.486,-198.534,-8.504,5.771
1.380,0.166,-0.955,0.533,-200.733,-9.786,8.290
1.380,0.175,-0.971,0.554,-202.550,-9.817,10.595
1.390,0.178,-0.995,0.565,-204.015,-10.901,12.672
1.390,0.184,-1.017,0.592,-204.290,-13.832,14.611
1.400,0.190,-1.044,0.595,-204.779,-17.191,15.695
1.400,0.204,-1.067,0.613,-204.809,-20.565,17.160
1.400,0.204,-1.088,0.627,-204.397,-23.756,18.504
1.410,0.217,-1.102,0.640,-203.786,-26.687,20.214
1.410,0.233,-1.136,0.657,-201.832,-28.641,21.282
1.420,0.262,-1.148,0.649,-200.489,-28.748,22.443
1.420,0.287,-1.161,0.635,-199.588,-27.679,22.519
1.430,0.323,-1.170,0.631,-198.443,-25.939,22.061
1.430,0.344,-1.179,0.619,-197.863,-23.481,21.221
1.440,0.361,-1.192,0.629,-197.405,-20.229,19.771
1.440,0.370,-1.208,0.629,-196.565,-17.679,18.000
1.440,0.373,-1.216,0.619,-196.458,-14.672,16.550
1.450,0.361,-1.214,0.608,-196.977,-12.000,15.023
1.450,0.364,-1.216,0.602,-197.725,-11.237,13.817
1.460,0.375,-1.216,0.599,-198.504,-10.840,11.603
1.460,0.385,-1.222,0.600,-198.870,-9.786,9.206
1.470,0.392,-1.232,0.601,-199.252,-8.855,7.267
1.470,0.378,-1.234,0.597,-199.176,-8.794,5.496
1.470,0.367,-1.237,0.573,-198.779,-9.664,3.542
1.480,0.361,-1.236,0.575,-198.565,-11.511,2.244
1.480,0.356,-1.237,0.576,-198.168,-13.679,1.038
1.490,0.366,-1.237,0.570,-197.374,-15.603,-0.275
1.490,0.371,-1.232,0.587,-196.794,-17.603,-1.588
1.500,0.381,-1.241,0.590,-195.725,-19.466,-3.008
1.500,0.389,-1.244,0.599,-194.137,-21.527,-4.229
1.500,0.396,-1.237,0.602,-193.069,-23.328,-5.282
1.510,0.405,-1.242,0.600,-191.573,-24.550,-6.656
1.510,0.407,-1.225,0.597,-189.924,-24.885,-7.389
1.520,0.428,-1.233,0.603,-188.244,-25.313,-8.443
1.520,0.424,-1.230,0.594,-186.076,-25.389,-9.588
1.530,0.436,-1.224,0.583,-183.939,-23.802,-10.000
1.530,0.459,-1.207,0.551,-184.015,-17.359,-11.282
1.530,0.456,-1.205,0.541,-182.519,-12.763,-12.183
1.540,0.411,-1.203,0.541,-180.565,-11.008,-13.160
1.540,0.438,-1.218,0.524,-179.939,-9.496,-12.458
1.550,0.535,-1.193,0.554,-179.603,11.298,-8.824
1.550,0.519,-1.235,0.550,-172.702,36.962,-12.351
1.560,0.411,-1.238,0.505,-168.336,36.718,-14.656
1.560,0.350,-1.216,0.480,-167.267,29.466,-14.397
1.560,0.444,-1.210,0.447,-166.000,47.725,-14.351
1.570,0.381,-1.222,0.450,-161.771,56.595,-14.855
1.570,0.272,-1.227,0.438,-157.496,47.420,-14.916
1.580,0.253,-1.219,0.390,-154.611,42.626,-14.458
1.580,0.271,-1.223,0.351,-151.481,41.359,-14.733
1.590,0.249,-1.224,0.345,-148.137,37.053,-14.855
1.590,0.208,-1.226,0.340,-143.878,28.809,-14.779
1.600,0.198,-1.221,0.302,-140.031,19.802,-14.763
1.600,0.201,-1.215,0.246,-137.481,10.885,-14.763
1.600,0.215,-1.200,0.220,-135.618,3.725,-15.053
1.610,0.216,-1.195,0.192,-134.641,-3.878,-15.008
1.610,0.206,-1.193,0.153,-133.267,-11.786,-14.641
1.620,0.210,-1.192,0.135,-133.069,-19.084,-14.000
1.620,0.221,-1.189,0.116,-132.733,-23.863,-13.267
1.630,0.227,-1.194,0.111,-132.779,-27.557,-12.427
1.630,0.229,-1.189,0.075,-132.626,-30.702,-11.496
1.630,0.220,-1.192,0.056,-132.107,-30.229,-10.000
1.640,0.248,-1.198,0.078,-132.809,-25.756,-7.786
1.640,0.283,-1.215,0.090,-131.450,-26.107,-5.985
1.650,0.283,-1.205,0.083,-128.366,-24.153,-5.511
1.650,0.296,-1.205,0.102,-125.542,-20.031,-5.863
1.660,0.272,-1.217,0.112,-122.015,-21.878,-6.290
1.660,0.273,-1.214,0.109,-118.550,-26.656,-7.557
1.670,0.270,-1.220,0.120,-114.580,-32.183,-8.779
1.670,0.257,-1.218,0.109,-110.290,-37.786,-10.031
1.670,0.251,-1.221,0.107,-105.038,-44.046,-11.573
1.680,0.262,-1.215,0.130,-99.542,-47.573,-12.611
1.680,0.247,-1.235,0.131,-92.977,-55.878,-14.031
1.690,0.212,-1.215,0.107,-86.962,-69.053,-15.328
1.690,0.210,-1.200,0.058,-83.115,-79.939,-16.244
1.700,0.211,-1.189,0.026,-81.359,-88.565,-16.153
1.700,0.206,-1.177,0.004,-80.656,-98.183,-15.359
1.700,0.220,-1.171,-0.015,-81.130,-107.267,-14.122
1.710,0.240,-1.171,-0.023,-82.000,-112.336,-11.802
1.710,0.275,-1.171,-0.031,-83.130,-111.924,-8.733
1.720,0.297,-1.171,-0.026,-84.031,-107.634,-5.527
1.720,0.312,-1.167,-0.029,-83.481,-100.656,-1.924
1.730,0.347,-1.162,-0.022,-83.771,-90.992,1.359
1.730,0.370,-1.161,-0.025,-83.603,-79.908,4.443
1.740,0.386,-1.152,-0.027,-83.771,-67.145,7.557
1.740,0.387,-1.149,-0.022,-83.466,-53.817,10.672
1.740,0.382,-1.156,-0.027,-82.824,-40.550,13.603
1.750,0.383,-1.149,-0.035,-82.198,-28.214,16.168
1.750,0.392,-1.142,-0.036,-82.198,-17.053,18.351
1.760,0.399,-1.140,-0.026,-82.198,-6.763,20.061
1.760,0.393,-1.143,-0.023,-81.954,1.221,21.176
1.770,0.385,-1.135,-0.007,-81.618,7.542,21.756
1.770,0.381,-1.139,-0.005,-80.962,12.351,22.229
1.770,0.387,-1.138,0.008,-80.290,16.809,22.122
1.780,0.385,-1.132,0.019,-78.641,20.183,21.527
1.780,0.380,-1.138,0.032,-76.687,22.183,20.000
1.790,0.374,-1.134,0.052,-73.908,22.916,18.061
1.790,0.354,-1.139,0.045,-70.855,21.908,15.847
1.790,0.343,-1.129,0.039,-67.863,20.000,13.481
1.800,0.327,-1.114,0.038,-65.160,17.893,11.450
1.800,0.308,-1.113,0.048,-62.443,14.885,9.450
1.810,0.272,-1.111,0.038,-59.359,9.084,7.420
1.810,0.257,-1.112,0.047,-56.427,2.183,5.771
1.810,0.248,-1.107,0.044,-53.786,-4.412,5.008
1.820,0.237,-1.105,0.026,-51.878,-10.779,3.847
1.820,0.225,-1.099,0.014,-49.802,-16.183,3.099
1.830,0.240,-1.091,0.005,-47.634,-19.725,3.282
1.830,0.219,-1.089,-0.002,-45.847,-23.267,4.275
1.840,0.220,-1.086,-0.017,-44.595,-25.924,5.420
1.840,0.232,-1.083,-0.032,-43.863,-25.237,6.733
1.840,0.233,-1.079,-0.040,-43.664,-23.588,8.473
1.850,0.243,-1.073,-0.052,-43.817,-20.534,10.580
1.850,0.254,-1.061,-0.042,-44.107,-15.985,12.412
1.860,0.265,-1.072,-0.039,-43.985,-11.206,13.695
1.860,0.279,-1.072,-0.045,-43.756,-5.802,14.779
1.870,0.283,-1.073,-0.029,-43.221,-0.763,15.679
1.870,0.276,-1.073,-0.038,-42.870,2.595,16.382
1.870,0.281,-1.069,-0.042,-42.626,4.290,16.427
1.880,0.297,-1.064,-0.034,-42.214,5.649,16.595
1.880,0.294,-1.065,-0.017,-41.496,6.733,15.939
1.890,0.301,-1.063,-0.009,-40.153,7.725,15.634
1.890,0.292,-1.061,-0.013,-38.687,8.305,15.206
1.890,0.300,-1.067,-0.010,-37.344,8.931,15.298
1.900,0.289,-1.067,-0.009,-35.939,8.931,14.595
1.900,0.297,-1.071,-0.001,-33.969,9.649,13.969
1.910,0.298,-1.070,0.019,-31.679,9.817,12.702
1.910,0.286,-1.076,0.021,-29.313,8.122,11.038
1.920,0.284,-1.074,0.016,-26.076,5.298,9.038
1.920,0.269,-1.073,0.002,-23.771,0.824,7.160
1.920,0.256,-1.072,-0.008,-22.382,-4.504,5.466
1.930,0.259,-1.056,-0.013,-21.145,-8.321,3.939
1.930,0.264,-1.067,-0.023,-19.740,-12.366,2.275
1.940,0.266,-1.063,-0.031,-18.244,-15.511,1.466
1.940,0.260,-1.067,-0.032,-17.511,-17.298,1.206
1.940,0.255,-1.062,-0.038,-16.443,-19.145,0.916
1.950,0.266,-1.059,-0.040,-15.649,-19.893,1.267
1.950,0.262,-1.059,-0.031,-14.656,-18.763,1.863
1.960,0.268,-1.052,-0.039,-13.038,-18.122,2.855
1.960,0.279,-1.056,-0.041,-11.847,-16.336,3.649
1.970,0.287,-1.056,-0.045,-10.519,-13.282,4.382
1.970,0.289,-1.055,-0.044,-9.237,-10.565,5.191
1.970,0.296,-1.050,-0.035,-8.076,-8.855,5.756
1.980,0.306,-1.052,-0.036,-6.427,-6.244,5.893
1.980,0.309,-1.056,-0.042,-4.519,-4.473,5.771
1.990,0.309,-1.057,-0.049,-2.901,-4.137,5.603
1.990,0.304,-1.063,-0.041,-1.527,-4.519,4.595
1.990,0.304,-1.061,-0.049,0.580,-5.802,3.282
2.000,0.308,-1.059,-0.053,2.733,-8.382,1.802
2.000,0.298,-1.066,-0.053,4.885,-11.969,0.168
2.010,0.298,-1.062,-0.082,6.580,-17.527,-1.832
2.010,0.294,-1.051,-0.094,7.679,-22.336,-3.557
2.020,0.296,-1.053,-0.094,9.038,-26.870,-5.313
2.020,0.305,-1.053,-0.080,10.504,-31.282,-7.603
2.020,0.307,-1.055,-0.093,12.489,-36.137,-10.351
2.030,0.294,-1.053,-0.092,14.351,-42.153,-13.374
2.030,0.287,-1.057,-0.094,16.382,-48.397,-15.985
2.040,0.290,-1.063,-0.104,18.672,-53.649,-18.107
2.040,0.281,-1.060,-0.110,20.733,-58.092,-19.649
2.050,0.284,-1.061,-0.109,22.718,-60.748,-20.840
2.050,0.282,-1.063,-0.111,24.580,-62.748,-21.542
2.050,0.284,-1.061,-0.121,26.137,-64.718,-21.863
2.060,0.282,-1.049,-0.128,26.947,-66.702,-21.817
2.060,0.288,-1.042,-0.129,27.221,-68.000,-21.756
2.070,0.298,-1.032,-0.146,27.252,-67.252,-21.603
2.070,0.317,-1.031,-0.136,27.298,-66.153,-21.252
2.080,0.331,-1.033,-0.139,27.420,-64.489,-21.038
2.080,0.345,-1.029,-0.135,27.527,-62.260,-20.687
2.080,0.361,-1.024,-0.137,27.649,-60.702,-20.504
2.090,0.386,-1.020,-0.135,27.649,-57.802,-20.275
2.090,0.410,-1.016,-0.121,27.298,-53.802,-20.824
2.100,0.429,-1.017,-0.113,27.695,-49.710,-21.160
2.100,0.440,-1.017,-0.098,28.183,-46.565,-21.863
2.110,0.446,-1.013,-0.095,28.031,-43.481,-22.473
2.110,0.466,-1.016,-0.081,28.153,-39.771,-23.160
2.110,0.486,-1.026,-0.069,28.977,-36.244,-25.481
2.120,0.498,-1.034,-0.051,31.160,-32.687,-27.481
2.120,0.474,-1.025,-0.061,33.038,-31.618,-29.542
2.130,0.480,-1.046,-0.055,33.985,-30.489,-31.481
2.130,0.460,-1.035,-0.052,34.656,-30.107,-32.290
2.140,0.459,-1.052,-0.022,35.573,-29.130,-32.824
2.140,0.454,-1.066,0.022,37.145,-30.565,-33.466
2.140,0.467,-1.070,0.050,39.252,-32.244,-34.412
2.150,0.480,-1.080,0.082,40.916,-32.550,-34.611
2.150,0.504,-1.076,0.108,42.229,-31.832,-34.305
2.160,0.521,-1.091,0.127,44.458,-29.527,-34.702
2.160,0.559,-1.096,0.146,46.992,-24.305,-35.527
2.170,0.586,-1.128,0.175,50.000,-19.206,-36.092
2.170,0.576,-1.139,0.193,53.863,-14.504,-37.466
2.170,0.575,-1.147,0.201,57.206,-7.649,-38.092
2.180,0.549,-1.167,0.237,60.641,-4.321,-38.565
2.180,0.571,-1.177,0.250,64.702,1.160,-39.069
2.190,0.571,-1.181,0.261,68.718,5.573,-40.733
2.190,0.558,-1.195,0.271,73.832,8.229,-42.870
2.200,0.530,-1.216,0.276,78.763,8.779,-44.763
2.200,0.488,-1.223,0.282,84.626,7.832,-46.580
2.200,0.453,-1.230,0.273,89.740,4.290,-47.740
2.210,0.443,-1.228,0.259,93.206,-0.183,-48.672
2.210,0.451,-1.243,0.259,97.069,-3.130,-49.802
2.220,0.455,-1.246,0.256,101.038,-5.282,-50.626
2.220,0.454,-1.242,0.257,104.046,-6.611,-50.626
2.220,0.457,-1.249,0.256,106.443,-7.206,-49.756
2.230,0.473,-1.250,0.255,107.786,-5.282,-48.595
2.230,0.496,-1.253,0.263,109.160,-1.847,-46.733
2.240,0.536,-1.248,0.282,109.450,5.237,-44.977
2.240,0.560,-1.256,0.281,110.290,13.344,-43.053
2.250,0.596,-1.264,0.276,111.023,24.290,-42.000
2.250,0.610,-1.280,0.298,112.901,34.962,-41.847
2.250,0.619,-1.279,0.322,115.237,43.634,-41.573
2.260,0.631,-1.295,0.323,117.786,52.687,-42.321
2.260,0.643,-1.299,0.316,120.550,59.481,-43.649
2.270,0.644,-1.307,0.325,124.290,62.458,-46.366
2.270,0.621,-1.325,0.341,128.687,60.947,-49.771
2.280,0.590,-1.327,0.336,133.878,57.389,-53.145
2.280,0.562,-1.333,0.351,138.229,53.985,-56.168
2.280,0.532,-1.343,0.333,144.473,46.626,-60.153
2.290,0.493,-1.340,0.339,149.176,33.328,-63.832
2.290,0.480,-1.348,0.323,153.847,23.389,-67.252
2.300,0.483,-1.348,0.318,158.244,17.237,-69.206
2.300,0.459,-1.343,0.311,161.725,11.786,-69.863
2.310,0.452,-1.330,0.271,162.916,7.252,-69.374
2.310,0.456,-1.330,0.254,163.115,7.450,-68.443
2.310,0.471,-1.324,0.251,163.588,11.481,-66.702
2.320,0.489,-1.333,0.262,163.267,17.710,-63.695
2.320,0.505,-1.329,0.255,163.466,25.496,-61.099
2.330,0.539,-1.326,0.250,162.107,35.710,-58.198
2.330,0.562,-1.310,0.240,161.053,48.794,-55.344
2.330,0.582,-1.307,0.223,159.985,61.344,-53.481
2.340,0.574,-1.301,0.217,159.359,71.160,-53.420
2.340,0.563,-1.299,0.226,159.832,80.962,-53.466
2.350,0.512,-1.304,0.224,161.344,85.771,-53.496
2.350,0.470,-1.298,0.221,162.061,85.267,-53.695
2.360,0.431,-1.292,0.209,163.511,82.244,-54.168
2.360,0.385,-1.278,0.212,165.450,77.267,-53.985
2.360,0.336,-1.271,0.219,166.809,69.053,-52.168
2.370,0.301,-1.267,0.209,166.992,60.397,-48.916
2.370,0.311,-1.262,0.213,166.229,52.595,-44.794
2.380,0.350,-1.256,0.220,164.840,47.389,-41.481
2.380,0.410,-1.257,0.229,163.450,44.260,-39.786
2.390,0.485,-1.259,0.251,162.183,43.298,-39.115
2.390,0.532,-1.263,0.265,161.374,44.305,-39.695
2.390,0.556,-1.270,0.287,161.160,47.084,-40.779
2.400,0.579,-1.273,0.302,161.557,50.321,-41.786
2.400,0.583,-1.268,0.312,161.985,53.344,-42.977
2.410,0.559,-1.266,0.313,163.359,57.069,-43.542
2.410,0.534,-1.264,0.315,165.252,60.366,-43.664
2.420,0.501,-1.247,0.303,166.931,62.427,-42.916
2.420,0.474,-1.230,0.303,168.198,62.290,-41.817
2.420,0.459,-1.208,0.290,169.405,62.519,-40.672
2.430,0.452,-1.199,0.283,170.244,61.939,-39.786
2.430,0.440,-1.173,0.284,170.763,60.168,-38.687
2.440,0.419,-1.148,0.282,171.191,57.511,-36.565
2.440,0.429,-1.134,0.273,170.458,55.878,-34.412
2.450,0.445,-1.106,0.264,169.969,55.481,-33.282
2.450,0.458,-1.090,0.267,170.000,54.672,-32.137
2.450,0.460,-1.076,0.263,169.695,54.122,-31.084
2.460,0.470,-1.070,0.238,168.275,54.504,-30.214
2.460,0.488,-1.048,0.244,166.870,55.817,-29.405
2.470,0.485,-1.047,0.227,165.435,55.588,-29.084
2.470,0.475,-1.032,0.237,164.305,54.611,-29.038
2.480,0.462,-1.024,0.228,162.672,53.115,-28.504
2.480,0.461,-1.011,0.222,160.931,51.206,-27.511
2.480,0.462,-1.007,0.239,159.023,48.916,-26.840
2.490,0.469,-1.003,0.249,157.725,46.550,-27.023
2.490,0.468,-0.990,0.263,157.053,43.573,-27.496
2.500,0.467,-0.980,0.277,156.229,40.534,-27.802
2.500,0.469,-0.961,0.280,156.046,38.153,-27.939
2.500,0.457,-0.948,0.291,155.710,36.641,-27.740
2.510,0.436,-0.931,0.281,154.748,33.878,-26.672
2.510,0.444,-0.909,0.286,153.069,31.084,-24.916
2.520,0.473,-0.889,0.294,151.115,30.244,-24.000
2.520,0.503,-0.877,0.314,149.710,31.450,-23.847
2.530,0.507,-0.872,0.333,148.641,32.290,-23.863
2.530,0.516,-0.851,0.345,147.878,33.435,-23.389
2.530,0.520,-0.838,0.350,146.779,35.099,-22.855
2.540,0.533,-0.835,0.363,146.626,37.786,-23.298
2.540,0.523,-0.825,0.370,146.305,39.191,-24.046
2.550,0.510,-0.815,0.374,146.382,38.885,-25.191
2.550,0.488,-0.816,0.378,146.473,38.443,-25.282
2.560,0.456,-0.811,0.396,146.641,37.740,-25.511
2.560,0.435,-0.801,0.391,146.840,35.817,-25.359
2.560,0.420,-0.793,0.387,146.626,32.824,-25.344
2.570,0.399,-0.785,0.388,146.305,30.290,-24.840
2.570,0.373,-0.767,0.376,146.198,27.786,-23.282
2.580,0.369,-0.752,0.371,144.611,25.344,-21.695
2.580,0.384,-0.736,0.353,142.748,23.725,-20.321
2.590,0.398,-0.714,0.352,140.611,23.099,-19.450
2.590,0.396,-0.695,0.352,138.137,21.893,-18.489
2.590,0.404,-0.670,0.357,134.656,21.282,-17.405
2.600,0.412,-0.658,0.346,131.664,20.672,-16.870
2.600,0.426,-0.647,0.363,129.115,20.107,-16.458
2.610,0.432,-0.630,0.396,127.221,19.878,-15.893
2.610,0.432,-0.629,0.416,125.634,19.985,-14.977
2.620,0.441,-0.618,0.431,124.214,19.924,-13.496
2.620,0.467,-0.602,0.438,122.824,20.366,-12.947
2.620,0.508,-0.581,0.457,121.252,21.267,-13.069
2.630,0.527,-0.583,0.469,120.733,22.947,-14.076
2.630,0.530,-0.567,0.476,120.382,24.504,-15.023
2.640,0.517,-0.550,0.484,120.168,25.664,-15.649
2.640,0.508,-0.537,0.482,119.710,26.641,-16.214
2.650,0.500,-0.523,0.484,118.916,27.527,-16.794
2.650,0.482,-0.508,0.473,118.015,28.183,-17.725
2.650,0.473,-0.501,0.459,116.885,28.305,-18.611
2.660,0.456,-0.489,0.455,114.947,28.183,-18.962
2.660,0.434,-0.475,0.450,113.084,27.771,-19.115
2.670,0.415,-0.470,0.446,111.344,26.458,-19.878
2.670,0.391,-0.470,0.449,109.679,23.359,-20.748
2.670,0.360,-0.460,0.462,107.939,19.618,-20.992
2.680,0.335,-0.452,0.468,105.359,15.985,-20.443
2.680,0.326,-0.440,0.479,102.733,12.641,-19.053
2.690,0.345,-0.435,0.485,100.260,10.565,-17.725
2.690,0.362,-0.422,0.510,98.718,10.412,-17.282
2.700,0.372,-0.413,0.508,96.473,10.901,-16.672
2.700,0.365,-0.398,0.518,96.076,11.588,-15.740
2.700,0.354,-0.386,0.529,93.939,12.107,-14.015
2.710,0.351,-0.374,0.534,91.313,13.527,-12.458
2.710,0.355,-0.368,0.546,89.679,15.221,-10.763
2.720,0.356,-0.359,0.556,88.519,17.237,-9.069
2.720,0.354,-0.350,0.566,87.725,19.221,-7.130
2.730,0.362,-0.336,0.574,86.947,21.527,-5.160
2.730,0.368,-0.328,0.580,86.275,24.046,-3.573
2.730,0.372,-0.312,0.566,85.817,26.046,-2.046
2.740,0.364,-0.308,0.565,85.008,27.282,-0.840
2.740,0.369,-0.292,0.566,83.939,28.260,-0.046
2.750,0.372,-0.279,0.563,82.977,28.519,0.779
2.750,0.385,-0.278,0.570,82.214,28.305,0.901
2.750,0.392,-0.262,0.585,81.328,26.611,0.595
2.760,0.408,-0.245,0.577,80.336,25.160,-0.366
2.760,0.411,-0.243,0.578,78.977,23.359,-1.771
2.770,0.397,-0.239,0.574,77.481,21.084,-3.389
2.770,0.392,-0.229,0.564,75.878,17.679,-4.687
2.770,0.366,-0.219,0.569,74.366,14.046,-5.527
2.780,0.351,-0.210,0.575,72.733,10.931,-5.588
2.780,0.342,-0.203,0.568,71.221,9.023,-5.115
2.790,0.338,-0.195,0.585,69.863,7.267,-4.519
2.790,0.341,-0.181,0.585,68.336,5.939,-3.603
2.790,0.352,-0.174,0.591,67.130,6.107,-2.977
2.800,0.359,-0.160,0.607,65.435,7.267,-1.893
2.800,0.363,-0.160,0.607,63.893,8.870,-1.038
2.810,0.367,-0.150,0.613,62.626,11.069,0.336
2.810,0.383,-0.151,0.612,61.435,14.168,1.038
2.810,0.379,-0.152,0.621,60.443,16.595,1.695
2.820,0.380,-0.144,0.623,58.870,18.702,1.817
2.820,0.378,-0.144,0.627,57.435,19.985,2.321
2.830,0.366,-0.133,0.630,56.107,21.176,2.489
2.830,0.367,-0.133,0.652,55.527,21.969,2.992
2.830,0.356,-0.129,0.653,55.267,22.458,3.237
2.840,0.352,-0.127,0.668,55.359,22.656,3.695
2.840,0.333,-0.115,0.657,55.069,22.214,4.275
2.850,0.332,-0.110,0.655,55.160,22.321,4.809
2.850,0.326,-0.096,0.655,54.885,22.458,5.450
2.850,0.328,-0.090,0.644,54.580,22.733,6.168
2.860,0.322,-0.076,0.637,54.489,22.885,6.763
2.860,0.319,-0.056,0.622,53.863,22.748,7.023
2.870,0.321,-0.052,0.613,52.550,22.305,7.695
2.870,0.328,-0.040,0.607,50.901,22.580,7.832
2.870,0.324,-0.038,0.610,49.191,22.260,8.153
2.880,0.320,-0.030,0.604,47.420,21.374,8.489
2.880,0.315,-0.022,0.598,45.695,20.489,8.809
2.890,0.313,-0.019,0.609,43.863,20.290,9.084
2.890,0.327,-0.017,0.610,42.260,19.695,9.542
2.890,0.339,-0.008,0.608,40.672,19.282,9.344
2.900,0.345,-0.003,0.607,38.916,19.206,8.931
2.900,0.348,-0.005,0.617,37.252,18.947,8.183
2.910,0.352,-0.003,0.597,35.496,18.046,7.389
2.910,0.343,0.007,0.609,33.710,16.672,6.290
2.910,0.331,0.010,0.614,31.954,14.733,5.389
2.920,0.316,0.018,0.610,30.092,12.046,5.053
2.920,0.306,0.015,0.618,28.550,8.901,4.458
2.930,0.312,0.021,0.623,26.611,6.000,4.382
2.930,0.300,0.028,0.631,24.687,3.603,4.458
2.930,0.307,0.029,0.635,22.824,2.290,5.145
2.940,0.322,0.030,0.649,21.099,1.160,5.557
2.940,0.336,0.032,0.663,20.046,0.809,5.878
2.940,0.337,0.026,0.675,19.282,1.176,6.397
2.950,0.349,0.027,0.686,18.504,1.954,7.359
2.950,0.352,0.019,0.697,17.771,2.779,8.198
2.960,0.367,0.021,0.713,17.374,4.641,8.504
2.960,0.379,0.026,0.707,16.962,6.824,8.794
2.960,0.389,0.019,0.718,16.611,8.916,8.397
2.970,0.390,0.021,0.715,16.366,10.504,7.771
2.970,0.383,0.022,0.714,15.893,11.740,7.267
2.980,0.382,0.026,0.717,15.695,13.053,6.748
2.980,0.374,0.029,0.716,15.496,13.618,6.214
2.980,0.346,0.035,0.716,15.282,13.557,5.939
2.990,0.325,0.037,0.712,15.313,13.053,6.076
2.990,0.316,0.038,0.708,15.298,11.802,6.885
2.990,0.313,0.033,0.707,14.840,10.916,7.496
3.000,0.310,0.034,0.696,14.290,10.015,8.061
3.000,0.317,0.040,0.695,13.008,9.221,8.519
3.010,0.330,0.042,0.698,11.679,8.763,8.794
3.010,0.333,0.036,0.708,10.229,8.641,8.794
3.010,0.339,0.042,0.711,9.176,9.160,8.565
3.020,0.333,0.036,0.708,7.847,9.664,8.519
3.020,0.342,0.038,0.711,6.824,10.107,8.473
3.030,0.337,0.041,0.721,5.725,10.443,8.412
3.030,0.331,0.037,0.708,4.870,10.733,8.580
3.030,0.319,0.044,0.714,3.664,9.985,8.672
3.040,0.324,0.042,0.725,2.626,9.863,8.718
3.040,0.328,0.037,0.735,1.557,9.924,8.702
3.040,0.330,0.041,0.733,0.534,10.504,8.626
3.050,0.319,0.029,0.745,0.214,10.260,8.885
3.050,0.309,0.035,0.748,-0.031,9.191,9.191
3.060,0.301,0.038,0.755,-0.779,8.107,9.832
3.060,0.296,0.032,0.750,-1.160,7.115,10.427
3.060,0.310,0.030,0.753,-1.588,6.427,11.160
3.070,0.310,0.030,0.745,-2.061,5.664,11.618
3.070,0.317,0.031,0.764,-3.084,5.359,12.382
3.070,0.346,0.027,0.766,-3.908,6.382,12.351
3.080,0.363,0.021,0.780,-4.977,7.710,12.473
3.080,0.367,0.025,0.793,-5.679,9.160,12.550
3.090,0.367,0.022,0.804,-6.336,10.916,12.656
3.090,0.370,0.018,0.802,-6.702,12.107,12.901
3.090,0.371,0.019,0.830,-6.840,13.771,12.931
3.100,0.367,0.009,0.839,-6.214,15.435,13.267
3.100,0.371,0.014,0.855,-5.542,16.794,13.221
3.110,0.372,0.014,0.865,-4.397,17.466,13.084
3.110,0.379,0.014,0.863,-3.511,18.290,12.321
3.110,0.385,0.011,0.873,-2.458,19.130,11.481
3.120,0.358,0.021,0.863,-1.176,18.962,10.885
3.120,0.352,0.016,0.865,0.000,18.137,10.214
3.130,0.353,0.022,0.857,1.160,16.626,9.084
3.130,0.342,0.020,0.848,1.924,14.824,7.634
3.130,0.327,0.015,0.840,2.473,12.214,6.473
3.140,0.314,0.023,0.829,2.992,8.702,5.466
3.140,0.302,0.024,0.830,3.511,4.809,4.076
3.150,0.284,0.021,0.821,3.649,0.214,3.542
3.150,0.279,0.030,0.830,3.710,-4.290,2.947
3.150,0.283,0.030,0.823,3.756,-7.649,2.519
3.160,0.290,0.031,0.833,3.511,-9.710,2.336
3.160,0.301,0.027,0.822,2.947,-11.527,2.351
3.160,0.314,0.025,0.832,2.748,-12.244,2.351
3.170,0.326,0.017,0.833,2.275,-12.061,2.321
3.170,0.334,0.020,0.832,1.908,-11.252,2.519
3.180,0.336,0.016,0.838,1.679,-10.443,2.779
3.180,0.337,0.023,0.837,1.573,-9.099,3.176
3.180,0.341,0.013,0.845,1.405,-7.878,3.618
3.190,0.339,0.014,0.869,1.099,-6.565,4.107
3.190,0.343,0.014,0.872,1.298,-4.840,4.763
3.200,0.340,0.012,0.869,1.344,-3.420,5.053
3.200,0.341,0.009,0.865,1.756,-2.321,5.298
3.200,0.344,0.008,0.866,2.412,-1.481,5.282
3.210,0.339,0.005,0.870,2.718,-1.237,5.221
3.210,0.336,0.005,0.865,3.634,-0.916,5.069
3.210,0.326,0.012,0.866,4.412,-1.527,4.885
3.220,0.323,0.010,0.855,4.809,-3.130,4.855
3.220,0.323,0.022,0.859,5.374,-4.336,4.687
3.230,0.321,0.018,0.842,5.588,-5.282,4.748
3.230,0.326,0.030,0.843,5.420,-6.366,4.947
3.230,0.335,0.027,0.830,5.038,-7.038,4.977
3.240,0.345,0.028,0.834,4.550,-7.099,4.427
3.240,0.353,0.035,0.819,3.603,-7.115,4.260
3.250,0.354,0.023,0.815,2.672,-7.405,3.817
3.250,0.358,0.029,0.808,1.481,-6.718,3.344
3.250,0.365,0.031,0.809,0.473,-5.954,3.344
3.260,0.361,0.031,0.815,-0.473,-4.962,3.328
3.260,0.359,0.027,0.824,-1.084,-4.092,3.649
3.260,0.361,0.024,0.826,-1.817,-2.763,3.771
3.270,0.353,0.023,0.841,-1.664,-1.038,4.183
3.270,0.355,0.017,0.840,-1.725,0.534,4.580
3.280,0.351,0.022,0.830,-1.740,2.198,4.977
3.280,0.349,0.020,0.840,-1.450,4.076,5.267
3.280,0.344,0.021,0.833,-1.328,5.466,5.908
3.290,0.340,0.024,0.831,-0.763,6.305,6.229
3.290,0.340,0.023,0.823,-0.397,6.901,6.702
3.300,0.337,0.022,0.818,-0.443,7.359,6.366
3.300,0.340,0.019,0.809,-0.733,7.206,5.893
3.300,0.333,0.005,0.807,-1.145,6.168,5.496
3.310,0.325,0.015,0.819,-1.588,4.718,4.672
3.310,0.324,0.017,0.815,-2.153,3.160,3.924
3.310,0.315,-0.003,0.814,-2.473,0.992,3.160
3.320,0.302,-0.003,0.832,-2.305,-1.679,2.794
3.320,0.296,-0.010,0.832,-2.626,-4.412,2.550
3.330,0.296,-0.015,0.846,-3.099,-7.221,2.534
3.330,0.305,-0.018,0.838,-3.389,-8.947,2.305
3.330,0.304,-0.020,0.851,-3.832,-10.061,2.382
3.340,0.315,-0.028,0.865,-3.771,-10.687,2.412
3.340,0.314,-0.027,0.877,-4.000,-10.565,2.397
3.350,0.312,-0.030,0.883,-3.359,-9.817,2.824
3.350,0.311,-0.030,0.892,-2.947,-9.282,3.481
3.350,0.321,-0.027,0.886,-2.718,-7.939,3.893
3.360,0.330,-0.022,0.889,-2.580,-6.718,4.473
3.360,0.324,-0.016,0.885,-2.275,-4.977,4.809
3.370,0.327,-0.020,0.892,-1.740,-3.496,5.374
3.370,0.325,-0.008,0.871,-1.664,-2.626,6.061
3.370,0.331,-0.008,0.870,-1.466,-1.527,6.443
3.380,0.335,-0.007,0.865,-1.252,-0.031,7.160
3.380,0.331,0.002,0.868,-0.687,0.962,7.695
3.390,0.337,0.006,0.866,-0.473,1.710,8.305
3.390,0.340,0.005,0.849,-0.168,2.626,8.626
3.390,0.351,0.016,0.841,-0.214,4.504,9.374
3.400,0.354,0.015,0.848,-0.107,6.244,10.061
3.400,0.351,0.026,0.842,0.061,7.786,10.382
3.410,0.360,0.025,0.827,-0.107,9.573,10.641
3.410,0.356,0.030,0.813,-0.641,10.336,10.748
3.410,0.368,0.030,0.807,-1.771,11.237,10.321
3.420,0.379,0.033,0.809,-2.779,11.908,9.832
3.420,0.374,0.033,0.806,-3.481,11.802,9.008
3.420,0.364,0.033,0.814,-4.122,11.084,8.382
3.430,0.359,0.032,0.804,-4.672,9.466,8.015
3.430,0.351,0.027,0.811,-4.855,8.183,7.771
3.440,0.369,0.024,0.823,-5.176,6.733,7.084
3.440,0.367,0.017,0.828,-5.618,5.542,6.260
3.440,0.369,0.014,0.829,-6.122,3.282,5.023
3.450,0.365,0.004,0.838,-6.168,1.115,4.244
3.450,0.371,0.005,0.854,-6.061,-1.588,3.145
3.460,0.369,0.002,0.866,-5.313,-4.275,2.305
3.460,0.369,-0.004,0.887,-5.115,-6.565,1.710
3.460,0.372,-0.005,0.878,-4.550,-7.893,1.374
3.470,0.378,-0.014,0.896,-3.618,-7.893,0.977
3.470,0.387,-0.014,0.905,-2.366,-6.534,0.565
3.480,0.381,-0.012,0.890,-1.282,-5.679,0.290
3.480,0.381,-0.013,0.902,-0.137,-5.084,-0.031
3.480,0.377,-0.012,0.898,0.718,-3.817,0.046
3.490,0.378,-0.009,0.897,2.122,-1.511,-0.290
3.490,0.371,-0.003,0.881,3.359,0.000,0.046
3.500,0.362,0.001,0.879,4.244,1.206,-0.031
3.500,0.356,-0.000,0.868,4.794,1.863,0.489
3.500,0.356,0.006,0.865,5.069,2.366,0.565
3.510,0.355,0.013,0.858,5.145,3.496,0.718
3.510,0.357,0.020,0.834,4.916,4.321,0.626
3.510,0.353,0.020,0.823,4.779,4.962,0.840
3.520,0.354,0.022,0.824,4.397,5.405,0.519
3.520,0.348,0.025,0.816,3.878,5.939,0.443
3.530,0.346,0.030,0.807,3.374,6.580,0.534
3.530,0.347,0.034,0.801,2.779,7.389,0.305
3.530,0.343,0.030,0.818,2.214,7.969,0.244
3.540,0.334,0.035,0.807,1.634,7.954,0.366
3.540,0.330,0.035,0.799,0.977,7.756,0.550
3.540,0.330,0.034,0.792,0.076,7.511,0.214
3.550,0.330,0.034,0.793,-0.901,7.542,0.290
3.550,0.319,0.042,0.803,-2.015,7.511,0.214
3.560,0.325,0.030,0.803,-2.718,7.389,0.122
3.560,0.322,0.028,0.811,-3.389,6.794,0.183
3.560,0.324,0.026,0.813,-4.137,6.214,0.153
3.570,0.318,0.018,0.827,-4.611,6.107,0.244
3.570,0.315,0.016,0.841,-4.656,5.695,0.183
3.570,0.312,0.010,0.848,-4.809,5.435,0.565
3.580,0.315,0.021,0.850,-4.565,5.817,0.870
3.580,0.315,0.012,0.859,-4.443,5.725,1.145
3.590,0.311,0.015,0.863,-4.153,6.260,1.481
3.590,0.313,0.021,0.854,-4.153,6.672,1.832
3.590,0.313,0.020,0.855,-4.198,6.733,2.061
3.600,0.325,0.013,0.856,-4.290,6.901,2.305
3.600,0.331,0.016,0.858,-4.183,7.557,2.260
3.600,0.334,0.005,0.852,-4.244,8.305,1.847
3.610,0.330,0.003,0.858,-4.183,8.641,1.359
3.610,0.332,-0.003,0.873,-4.504,8.046,0.733
3.620,0.322,-0.014,0.866,-4.351,7.344,0.397
3.620,0.307,-0.010,0.874,-4.366,5.618,0.046
3.620,0.308,-0.016,0.895,-4.122,3.374,-0.046
3.630,0.321,-0.023,0.901,-4.061,2.824,-0.489
3.630,0.332,-0.033,0.911,-3.160,1.908,-0.962
3.640,0.328,-0.040,0.924,-3.023,0.153,-1.481
3.640,0.324,-0.040,0.920,-2.183,-1.359,-1.802
3.640,0.321,-0.044,0.943,-1.252,-2.351,-2.412
3.650,0.306,-0.051,0.947,-0.107,-2.947,-2.718
3.650,0.304,-0.041,0.948,1.221,-3.099,-2.443
3.660,0.299,-0.042,0.949,1.802,-3.710,-1.954
3.660,0.302,-0.032,0.940,2.870,-3.450,-1.573
3.660,0.305,-0.038,0.939,3.649,-2.870,-1.450
3.670,0.295,-0.031,0.922,4.015,-2.290,-0.504
3.670,0.294,-0.029,0.917,4.260,-2.046,-0.061
3.680,0.310,-0.021,0.913,4.260,-1.053,0.519
3.680,0.306,-0.022,0.900,4.626,-0.137,1.282
3.680,0.302,-0.016,0.883,4.718,0.550,1.893
3.690,0.307,-0.005,0.881,5.130,0.977,2.397
3.690,0.313,-0.003,0.881,5.038,0.855,2.840
3.700,0.316,0.003,0.874,5.053,1.221,3.298
3.700,0.323,0.006,0.857,5.115,1.664,3.542
3.700,0.328,0.006,0.868,5.053,1.832,3.969
3.710,0.328,0.011,0.858,5.099,1.924,4.351
3.710,0.339,0.014,0.854,5.160,1.924,4.779
3.710,0.328,0.024,0.843,5.328,1.969,4.779
3.720,0.335,0.028,0.849,5.359,1.954,4.977
3.720,0.336,0.040,0.824,5.466,1.771,4.931
3.730,0.333,0.041,0.819,5.221,0.947,5.115
3.730,0.342,0.044,0.820,4.443,0.641,5.160
3.730,0.349,0.046,0.807,3.969,0.748,4.870
3.740,0.363,0.046,0.797,3.298,0.290,4.550
3.740,0.361,0.049,0.792,2.382,-0.840,4.015
3.740,0.363,0.049,0.788,1.695,-1.573,3.298
3.750,0.361,0.048,0.794,0.763,-2.260,2.763
3.750,0.357,0.047,0.782,-0.260,-3.573,1.847
3.760,0.357,0.045,0.793,-1.038,-5.008,0.794
3.760,0.356,0.032,0.793,-1.542,-5.863,0.076
3.760,0.344,0.036,0.789,-1.740,-6.870,-0.275
3.770,0.336,0.021,0.807,-2.244,-7.832,-0.412
3.770,0.330,0.020,0.825,-2.290,-7.756,0.000
3.780,0.339,0.019,0.836,-1.725,-6.947,0.229
3.780,0.335,0.019,0.848,-1.405,-6.550,0.748
3.780,0.336,0.010,0.844,-1.038,-6.183,0.992
3.790,0.342,0.021,0.835,-0.595,-5.420,1.466
3.790,0.351,0.024,0.833,-0.672,-3.542,1.573
3.800,0.363,0.019,0.841,-0.550,-1.511,1.802
3.800,0.365,0.022,0.830,-0.763,-0.382,1.939
3.800,0.355,0.027,0.816,-1.145,0.397,1.939
3.810,0.360,0.021,0.817,-1.740,1.008,1.985
3.810,0.354,0.023,0.819,-1.878,1.924,2.321
3.810,0.365,0.020,0.804,-2.550,2.611,2.336
3.820,0.357,0.025,0.802,-2.611,2.534,2.382
3.820,0.359,0.023,0.801,-3.359,2.153,2.183
3.830,0.358,0.020,0.805,-3.802,2.198,1.725
3.830,0.370,0.023,0.809,-4.305,1.618,1.450
3.830,0.376,0.025,0.809,-4.687,1.374,1.084
3.840,0.371,0.023,0.816,-5.221,1.618,0.626
3.840,0.366,0.018,0.823,-5.344,1.359,0.351
3.840,0.359,0.014,0.821,-5.328,0.534,-0.290
3.850,0.360,0.007,0.824,-5.420,-0.473,-0.992
3.850,0.353,0.000,0.832,-5.557,-0.885,-1.496
3.860,0.363,0.001,0.837,-5.389,-1.191,-2.107
3.860,0.354,-0.005,0.839,-5.130,-1.924,-2.718
3.860,0.354,-0.007,0.848,-5.206,-2.687,-3.038
3.870,0.349,-0.008,0.845,-4.885,-3.023,-3.267
3.870,0.344,-0.005,0.858,-4.947,-2.702,-3.191
3.880,0.338,-0.004,0.854,-4.595,-2.076,-2.992
3.880,0.337,-0.011,0.851,-4.168,-0.840,-2.931
3.890,0.333,-0.001,0.854,-4.092,0.275,-2.824
3.890,0.330,-0.004,0.848,-3.847,1.298,-2.534
3.890,0.328,-0.008,0.844,-3.756,2.183,-2.305
3.900,0.318,-0.004,0.833,-3.389,2.305,-2.290
3.900,0.322,0.003,0.838,-3.573,2.611,-2.275
3.910,0.319,0.009,0.829,-4.046,2.168,-2.260
3.910,0.317,0.008,0.837,-4.244,2.198,-2.290
3.910,0.307,0.008,0.838,-4.519,2.076,-1.908
3.920,0.304,0.010,0.824,-4.733,1.985,-1.618
3.920,0.307,0.010,0.825,-5.145,1.786,-1.237
3.920,0.307,0.007,0.825,-5.511,1.847,-0.763
3.930,0.314,0.013,0.817,-5.603,1.939,-0.580
3.930,0.311,0.014,0.835,-5.740,2.137,-0.107
3.940,0.320,0.004,0.837,-6.046,1.099,0.076
3.940,0.332,0.012,0.844,-6.290,0.153,-0.015
3.940,0.341,0.007,0.834,-6.397,0.687,-0.275
3.950,0.342,0.007,0.853,-6.229,0.962,-0.458
3.950,0.340,0.002,0.866,-5.832,1.160,-0.733
3.960,0.341,-0.005,0.868,-5.099,1.511,-1.099
3.960,0.337,0.002,0.868,-4.763,1.740,-1.817
3.960,0.333,-0.007,0.860,-4.260,1.588,-1.954
3.970,0.318,-0.006,0.867,-3.878,0.947,-2.153
3.970,0.320,-0.011,0.860,-3.023,0.092,-2.519
3.980,0.314,-0.007,0.878,-2.794,-0.672,-2.595
3.980,0.313,-0.015,0.868,-2.321,-0.641,-2.458
3.980,0.305,-0.008,0.865,-2.183,-1.237,-2.397
3.990,0.300,-0.017,0.865,-2.107,-2.076,-2.107
3.990,0.299,-0.009,0.860,-2.427,-2.534,-1.847
4.000,0.299,-0.013,0.867,-2.351,-2.412,-1.557
4.000,0.305,-0.014,0.877,-2.321,-2.046,-0.977
4.000,0.306,-0.009,0.863,-2.321,-1.695,-0.595
4.010,0.307,-0.009,0.865,-2.626,-0.733,-0.183
4.010,0.308,-0.010,0.859,-2.702,0.107,0.382
4.020,0.313,-0.020,0.853,-2.626,1.023,0.656
4.020,0.320,-0.004,0.862,-2.412,2.504,0.992
4.020,0.326,-0.013,0.872,-2.641,3.924,1.023
4.030,0.330,-0.010,0.862,-2.656,5.267,1.099
4.030,0.319,-0.014,0.861,-2.366,5.924,1.145
4.040,0.319,-0.014,0.859,-2.122,6.870,1.328
4.040,0.313,-0.014,0.858,-2.107,7.252,1.679
4.040,0.313,-0.007,0.843,-2.122,7.603,1.878
4.050,0.320,-0.007,0.857,-2.275,7.435,1.985
4.050,0.317,-0.004,0.856,-2.305,6.916,1.954
4.060,0.315,0.001,0.841,-2.473,6.000,1.679
