Time,acce_x,acce_y,acce_z,gyro_x,gyro_y,gyro_z
0.0,680.0,-2128.0,16648.0,-135.0,514.0,-22281.0
0.0,680.0,-2128.0,16648.0,-135.0,514.0,-22281.0
0.0,680.0,-2128.0,16648.0,-135.0,514.0,-22281.0
0.0,680.0,-2128.0,16648.0,-135.0,514.0,-22281.0
0.0,680.0,-2128.0,16648.0,-135.0,514.0,-22281.0
0.0,680.0,-2128.0,16648.0,-135.0,514.0,-22281.0
0.0,680.0,-2128.0,16648.0,-135.0,514.0,-22281.0
0.0,680.0,-2128.0,16648.0,-135.0,514.0,-22281.0
0.0,680.0,-2128.0,16648.0,-135.0,514.0,-22281.0
0.0,680.0,-2128.0,16648.0,-135.0,514.0,-22281.0
0.0,680.0,-2128.0,16648.0,-135.0,514.0,-22281.0
0.0,680.0,-2128.0,16648.0,-135.0,514.0,-22281.0
0.0,680.0,-2128.0,16648.0,-135.0,514.0,-22281.0
0.0,680.0,-2128.0,16648.0,-135.0,514.0,-22281.0
0.0,680.0,-2128.0,16648.0,-135.0,514.0,-22281.0
0.0,680.0,-2128.0,16648.0,-135.0,514.0,-22281.0
0.0,680.0,-2128.0,16648.0,-135.0,514.0,-22281.0
0.0,680.0,-2128.0,16648.0,-135.0,514.0,-22281.0
0.0,680.0,-2128.0,16648.0,-135.0,514.0,-22281.0
0.0,680.0,-2128.0,16648.0,-135.0,514.0,-22281.0
0.0,680.0,-2128.0,16648.0,-135.0,514.0,-22281.0
0.0,680.0,-2128.0,16648.0,-135.0,514.0,-22281.0
0.0,680.0,-2128.0,16648.0,-135.0,514.0,-22281.0
0.0,680.0,-2128.0,16648.0,-135.0,514.0,-22281.0
0.0,680.0,-2128.0,16648.0,-135.0,514.0,-22281.0
0.0,680.0,-2128.0,16648.0,-135.0,514.0,-22281.0
0.0,680.0,-2128.0,16648.0,-135.0,514.0,-22281.0
0.0,680.0,-2128.0,16648.0,-135.0,514.0,-22281.0
0.0,680.0,-2128.0,16648.0,-135.0,514.0,-22281.0
0.0,680.0,-2128.0,16648.0,-135.0,514.0,-22281.0
0.0,680.0,-2128.0,16648.0,-135.0,514.0,-22281.0
0.0,680.0,-2128.0,16648.0,-135.0,514.0,-22281.0
0.0,680.0,-2128.0,16648.0,-135.0,514.0,-22281.0
0.0,680.0,-2128.0,16648.0,-135.0,514.0,-22281.0
0.0,680.0,-2128.0,16648.0,-135.0,514.0,-22281.0
0.0,680.0,-2128.0,16648.0,-135.0,514.0,-22281.0
0.0,680.0,-2128.0,16648.0,-135.0,514.0,-22281.0
0.0,680.0,-2128.0,16648.0,-135.0,514.0,-22281.0
0.0,680.0,-2128.0,16648.0,-135.0,514.0,-22281.0
0.0,680.0,-2128.0,16648.0,-135.0,514.0,-22281.0
0.0,680.0,-2128.0,16648.0,-135.0,514.0,-22281.0
0.0,680.0,-2128.0,16648.0,-135.0,514.0,-22281.0
0.0,680.0,-2128.0,16648.0,-135.0,514.0,-22281.0
0.0,680.0,-2128.0,16648.0,-135.0,514.0,-22281.0
0.0,680.0,-2128.0,16648.0,-135.0,514.0,-22281.0
0.0,680.0,-2128.0,16648.0,-135.0,514.0,-22281.0
0.0,680.0,-2128.0,16648.0,-135.0,514.0,-22281.0
0.0,680.0,-2128.0,16648.0,-135.0,514.0,-22281.0
0.0,680.0,-2128.0,16648.0,-135.0,514.0,-22281.0
0.0,680.0,-2128.0,16648.0,-135.0,514.0,-22281.0
0.0,680.0,-2128.0,16648.0,-135.0,514.0,-22281.0
0.01,640.0,-2104.0,16708.0,-236.0,514.0,-32521.0
0.02,452.0,-2048.0,16616.0,-338.0,513.0,-15112.0
0.03,340.0,-2040.0,16588.0,-331.0,257.0,21752.0
0.04,332.0,-2192.0,16508.0,-262.0,257.0,19703.0
0.05,508.0,-2236.0,16616.0,-363.0,1.0,-777.0
0.06,512.0,-2164.0,16916.0,-281.0,-254.0,247.0
0.07,1008.0,-2212.0,16700.0,-192.0,-253.0,-3849.0
0.08,1120.0,-1964.0,16740.0,-223.0,4.0,24824.0
0.09,1088.0,-1932.0,16548.0,-291.0,4.0,16632.0
0.1,888.0,-1996.0,16596.0,-423.0,3.0,30968.0
0.11,748.0,-2088.0,16640.0,-471.0,2.0,-4873.0
0.12,860.0,-2232.0,16536.0,-481.0,3.0,23799.0
0.13,1000.0,-2236.0,16616.0,-486.0,259.0,-5897.0
0.14,900.0,-2380.0,16644.0,-525.0,259.0,-31498.0
0.15,984.0,-2284.0,16708.0,-495.0,259.0,-9993.0
0.16,912.0,-2332.0,16592.0,-345.0,259.0,-28426.0
0.17,860.0,-2076.0,16588.0,-318.0,259.0,23799.0
0.18,912.0,-1948.0,16644.0,-415.0,259.0,-28424.0
0.19,980.0,-2248.0,16684.0,-476.0,259.0,-11017.0
0.2,1004.0,-2240.0,16652.0,-496.0,259.0,-4873.0
0.21,756.0,-1976.0,16620.0,-551.0,258.0,-2824.0
0.22,776.0,-1848.0,16404.0,-645.0,259.0,2296.0
0.23,772.0,-2060.0,16412.0,-689.0,259.0,1271.0
0.24,1068.0,-2104.0,16428.0,-649.0,260.0,11511.0
0.25,1048.0,-2324.0,16516.0,-601.0,260.0,6390.0
0.26,1040.0,-2284.0,16468.0,-521.0,260.0,4343.0
0.27,808.0,-2324.0,16732.0,-473.0,259.0,10486.0
0.28,840.0,-2224.0,16556.0,-459.0,259.0,18679.0
0.29,512.0,-2196.0,16772.0,-508.0,258.0,247.0
0.3,632.0,-2308.0,16720.0,-482.0,2.0,30966.0
0.31,584.0,-2376.0,16684.0,-484.0,258.0,18678.0
0.32,528.0,-2244.0,16704.0,-482.0,2.0,4343.0
0.33,512.0,-2052.0,16512.0,-507.0,2.0,247.0
0.34,652.0,-2056.0,16504.0,-667.0,2.0,-29449.0
0.35,756.0,-2320.0,16756.0,-747.0,2.0,-2826.0
0.36,428.0,-2444.0,16804.0,-730.0,257.0,-21258.0
0.37,532.0,-2576.0,17064.0,-607.0,2.0,5365.0
0.38,644.0,-2488.0,17012.0,-573.0,2.0,-31498.0
0.39,680.0,-2512.0,16884.0,-580.0,258.0,-22282.0
0.4,688.0,-2376.0,16852.0,-578.0,258.0,-20234.0
0.41,660.0,-2420.0,16752.0,-586.0,514.0,-27402.0
0.42,388.0,-2456.0,16864.0,-593.0,513.0,-31498.0
0.43,176.0,-2416.0,16980.0,-560.0,256.0,-20234.0
0.44,160.0,-2356.0,16848.0,-552.0,256.0,-24330.0
0.45,224.0,-2312.0,16852.0,-718.0,0.0,-7946.0
0.46,308.0,-2836.0,16908.0,-719.0,1.0,13556.0
0.47,240.0,-2912.0,16888.0,-537.0,0.0,-3852.0
0.48,420.0,-2636.0,16860.0,-356.0,-255.0,-23307.0
0.49,536.0,-2312.0,16988.0,-376.0,-254.0,6390.0
0.5,852.0,-2396.0,16992.0,-477.0,3.0,21750.0
0.51,748.0,-2524.0,17092.0,-400.0,258.0,-4874.0
0.52,504.0,-2480.0,17040.0,-372.0,257.0,-1802.0
0.53,396.0,-2636.0,17084.0,-290.0,257.0,-29451.0
0.54,352.0,-2448.0,16928.0,-178.0,257.0,24822.0
0.55,128.0,-2236.0,16924.0,-237.0,0.0,-32521.0
0.56,312.0,-2512.0,16688.0,-317.0,1.0,14582.0
0.57,484.0,-2520.0,16824.0,-360.0,1.0,-6922.0
0.58,312.0,-2660.0,16748.0,-251.0,1.0,14581.0
0.59,320.0,-2484.0,16868.0,-173.0,1.0,16630.0
0.6,192.0,-2288.0,16780.0,-165.0,0.0,-16137.0
0.61,424.0,-2216.0,16628.0,-208.0,1.0,-22281.0
0.62,668.0,-2232.0,16696.0,-317.0,2.0,-25353.0
0.63,512.0,-2300.0,16832.0,-350.0,258.0,247.0
0.64,484.0,-2260.0,16896.0,-351.0,257.0,-6921.0
0.65,180.0,-2460.0,16888.0,-287.0,256.0,-19210.0
0.66,-40.0,-2536.0,16772.0,-237.0,511.0,-9994.0
0.67,-120.0,-2376.0,16596.0,-300.0,511.0,-30474.0
0.68,-232.0,-2356.0,16688.0,-463.0,767.0,6390.0
0.69,-200.0,-2292.0,16600.0,-544.0,767.0,14583.0
0.7,-612.0,-2380.0,16620.0,-668.0,1021.0,-25354.0
0.71,-1044.0,-2232.0,16556.0,-772.0,1019.0,-4873.0
0.72,-1440.0,-2324.0,16744.0,-805.0,762.0,24822.0
0.73,-1668.0,-2336.0,16864.0,-724.0,761.0,31990.0
0.74,-1968.0,-2224.0,16996.0,-695.0,760.0,20727.0
0.75,-2240.0,-2044.0,16972.0,-794.0,1015.0,16632.0
0.76,-2880.0,-2000.0,17140.0,-1058.0,1268.0,-16136.0
0.77,-3220.0,-2132.0,17336.0,-1212.0,1267.0,27895.0
0.78,-3644.0,-2420.0,17616.0,-1259.0,1521.0,-15114.0
0.79,-4040.0,-2760.0,17816.0,-1215.0,1520.0,14581.0
0.8,-4400.0,-3232.0,18032.0,-999.0,1262.0,-12045.0
0.81,-4504.0,-3408.0,18192.0,-587.0,750.0,26866.0
0.82,-4408.0,-3308.0,17976.0,-294.0,750.0,-14093.0
0.83,-4080.0,-3368.0,17828.0,-32.0,752.0,4338.0
0.84,-3808.0,-3184.0,17744.0,274.0,1009.0,8435.0
0.85,-3968.0,-2620.0,17344.0,393.0,1008.0,-32523.0
0.86,-4136.0,-2112.0,17164.0,275.0,751.0,-9993.0
0.87,-3996.0,-1896.0,16956.0,127.0,496.0,25848.0
0.88,-3928.0,-1716.0,17028.0,-37.0,240.0,-22279.0
0.89,-3440.0,-2024.0,16884.0,-142.0,242.0,-28424.0
0.9,-3272.0,-2028.0,16956.0,-287.0,499.0,14584.0
0.91,-3280.0,-2184.0,17080.0,-374.0,755.0,12535.0
0.92,-3488.0,-2320.0,17004.0,-270.0,1010.0,24822.0
0.93,-3736.0,-2252.0,17144.0,-417.0,1265.0,26871.0
0.94,-3324.0,-3400.0,18360.0,-401.0,2547.0,1266.0
0.95,-3544.0,-1636.0,17932.0,938.0,1522.0,10489.0
0.96,-5348.0,-2080.0,17060.0,-394.0,747.0,7415.0
0.97,-5180.0,-3056.0,16980.0,-735.0,491.0,-15116.0
0.98,-4844.0,-2992.0,17164.0,-126.0,-275.0,5364.0
0.99,-4824.0,-2924.0,16768.0,-121.0,-531.0,10484.0
1.0,-3944.0,-3200.0,16708.0,-178.0,-784.0,-26381.0
1.01,-4004.0,-3176.0,16536.0,-65.0,-784.0,23795.0
1.02,-3544.0,-3000.0,16492.0,130.0,-782.0,10484.0
1.03,-3600.0,-2764.0,16036.0,-42.0,-1039.0,-3851.0
1.04,-3712.0,-2752.0,15920.0,-342.0,-1295.0,-32523.0
1.05,-3356.0,-2856.0,15904.0,-370.0,-1806.0,-6924.0
1.06,-4096.0,-2760.0,15592.0,-801.0,-2064.0,245.0
1.07,-3300.0,-3292.0,15712.0,-1015.0,-2829.0,7411.0
1.08,-2836.0,-3724.0,15928.0,-849.0,-3340.0,-4879.0
1.09,-2396.0,-3728.0,15964.0,-674.0,-3594.0,-23311.0
1.1,-1844.0,-3648.0,15876.0,-466.0,-3592.0,-13071.0
1.11,-2364.0,-3008.0,15272.0,-830.0,-3850.0,-15116.0
1.12,-2084.0,-3112.0,15296.0,-691.0,-3593.0,-8973.0
1.13,-1544.0,-3160.0,15632.0,-838.0,-3591.0,-1805.0
1.14,-1840.0,-3432.0,15736.0,-1238.0,-3592.0,-12046.0
1.15,-1256.0,-4204.0,16148.0,-1120.0,-3589.0,6383.0
1.16,-1804.0,-3904.0,15780.0,-1477.0,-3848.0,-2832.0
1.17,-1080.0,-4072.0,16340.0,-1132.0,-4357.0,-14096.0
1.18,-976.0,-4712.0,16168.0,-730.0,-4612.0,12525.0
1.19,-596.0,-5144.0,16252.0,-632.0,-4355.0,-21269.0
1.2,52.0,-4188.0,17128.0,-994.0,-4096.0,13551.0
1.21,-544.0,-3720.0,16352.0,-402.0,-4099.0,-7951.0
1.22,108.0,-4492.0,16116.0,-318.0,-4096.0,27886.0
1.23,-1684.0,-4920.0,14936.0,-610.0,-4103.0,27884.0
1.24,-1944.0,-4124.0,15824.0,-823.0,-4104.0,26863.0
1.25,-1592.0,-3736.0,15832.0,-965.0,-4359.0,-14095.0
1.26,656.0,-5064.0,19708.0,-919.0,-3582.0,-28436.0
1.27,-1148.0,-4500.0,16304.0,-1081.0,-4357.0,-31506.0
1.28,-212.0,-4416.0,16780.0,-647.0,-4865.0,11502.0
1.29,484.0,-4900.0,16928.0,-311.0,-5119.0,-6932.0
1.3,1312.0,-5020.0,17268.0,252.0,-5115.0,8428.0
1.31,1408.0,-5248.0,16356.0,644.0,-5115.0,-32533.0
1.32,2484.0,-5252.0,17476.0,763.0,-4087.0,-19221.0
1.33,2280.0,-3436.0,17492.0,702.0,-4088.0,-5902.0
1.34,3064.0,-3956.0,16640.0,571.0,-3829.0,-1808.0
1.35,3408.0,-3884.0,16964.0,424.0,-2803.0,20720.0
1.36,3820.0,-3736.0,17000.0,424.0,-2034.0,-4879.0
1.37,3536.0,-3700.0,16724.0,262.0,-1011.0,-12047.0
1.38,3372.0,-3844.0,16536.0,99.0,13.0,11504.0
1.39,2468.0,-4116.0,16764.0,36.0,777.0,-23313.0
1.4,1056.0,-4612.0,16784.0,188.0,772.0,8429.0
1.41,132.0,-4876.0,17080.0,437.0,0.0,-31508.0
1.42,-248.0,-4936.0,17004.0,692.0,-769.0,2284.0
1.43,168.0,-4716.0,17364.0,936.0,-1536.0,-22291.0
1.44,684.0,-4512.0,20924.0,839.0,-2814.0,-21266.0
1.45,-344.0,-2672.0,19208.0,1441.0,-4354.0,-22283.0
1.46,-368.0,-5372.0,16104.0,1037.0,-1282.0,-28437.0
1.47,1140.0,-4156.0,16944.0,567.0,-1276.0,29935.0
1.48,784.0,-4088.0,16584.0,146.0,-765.0,4336.0
1.49,636.0,-4336.0,16820.0,-462.0,-1278.0,31983.0
1.5,876.0,-4824.0,17328.0,-431.0,-1277.0,27885.0
1.51,1124.0,-5032.0,17080.0,-153.0,-1276.0,25836.0
1.52,916.0,-4988.0,17040.0,69.0,-1021.0,-27412.0
1.53,196.0,-4884.0,16876.0,129.0,-1280.0,-15124.0
1.54,488.0,-4980.0,16664.0,454.0,-1791.0,-5908.0
1.55,760.0,-4704.0,16224.0,867.0,-2046.0,-1811.0
1.56,900.0,-4088.0,16108.0,762.0,-1533.0,-31504.0
1.57,324.0,-3832.0,16064.0,636.0,-1023.0,17649.0
1.58,528.0,-3840.0,15752.0,465.0,-766.0,4337.0
1.59,-248.0,-3816.0,15260.0,141.0,-257.0,2289.0
1.6,-1632.0,-4036.0,15312.0,-156.0,-263.0,-24336.0
1.61,-204.0,-612.0,12456.0,-1210.0,-2049.0,13565.0
1.62,-7900.0,-3304.0,16396.0,-942.0,-3359.0,9459.0
1.63,-4176.0,-5764.0,15604.0,-1270.0,-5649.0,-20247.0
1.64,-1220.0,-5416.0,17336.0,-551.0,-7941.0,15594.0
1.65,2040.0,-5920.0,17232.0,972.0,-8441.0,-1816.0
1.66,4624.0,-4952.0,16600.0,1718.0,-6894.0,4332.0
1.67,4772.0,-4568.0,16624.0,1781.0,-4334.0,-23314.0
1.68,3972.0,-3608.0,15888.0,1469.0,-2033.0,-31503.0
1.69,1540.0,-2848.0,15380.0,922.0,-1018.0,1268.0
1.7,564.0,-2516.0,15448.0,457.0,-1278.0,13558.0
1.71,140.0,-2652.0,15664.0,-224.0,-1792.0,-29451.0
1.72,88.0,-2912.0,15604.0,-702.0,-2560.0,22772.0
1.73,976.0,-3160.0,15624.0,-1091.0,-2813.0,-12045.0
1.74,1476.0,-3608.0,15608.0,-1294.0,-3323.0,-15119.0
1.75,1568.0,-4704.0,15788.0,-1008.0,-3578.0,8429.0
1.76,1872.0,-4228.0,15208.0,-648.0,-3833.0,20719.0
1.77,1964.0,-4084.0,15476.0,-322.0,-3833.0,-21264.0
1.78,3152.0,-2568.0,14696.0,-647.0,-3060.0,20725.0
1.79,2128.0,-3176.0,14780.0,-1577.0,-2296.0,20723.0
1.8,2176.0,-2584.0,15248.0,-2248.0,-2296.0,-32523.0
1.81,2136.0,-3340.0,15532.0,-3171.0,-1272.0,22770.0
1.82,1584.0,-4396.0,16116.0,-3357.0,-762.0,12526.0
1.83,1720.0,-4260.0,14940.0,-3264.0,-1274.0,-18193.0
1.84,3348.0,-4344.0,16756.0,-2719.0,-1779.0,5359.0
1.85,2140.0,-5152.0,16768.0,-1823.0,-1784.0,23787.0
1.86,2380.0,-5148.0,16980.0,-1193.0,-2551.0,19691.0
1.87,2940.0,-5372.0,17528.0,-548.0,-3061.0,31979.0
1.88,3984.0,-5056.0,16500.0,-223.0,-2289.0,-28436.0
1.89,3012.0,-4252.0,16680.0,-316.0,-2037.0,-15121.0
1.9,3340.0,-3404.0,15968.0,-531.0,-2291.0,3314.0
1.91,3120.0,-2856.0,15712.0,-204.0,-4596.0,12532.0
1.92,-536.0,-4008.0,16104.0,-1069.0,-4611.0,-5904.0
1.93,972.0,-3640.0,15904.0,-997.0,-6909.0,-13071.0
1.94,1024.0,-4320.0,16676.0,-907.0,-8444.0,239.0
1.95,1800.0,-4432.0,16772.0,-371.0,-8953.0,2286.0
1.96,1616.0,-5856.0,16164.0,110.0,-7674.0,20713.0
1.97,2664.0,-5084.0,15972.0,874.0,-7670.0,26860.0
1.98,3100.0,-5048.0,15696.0,845.0,-7156.0,7404.0
1.99,2736.0,-5292.0,15780.0,564.0,-6902.0,-20245.0
2.0,2492.0,-5732.0,15980.0,313.0,-6903.0,-17175.0
2.01,2740.0,-5584.0,16920.0,232.0,-7414.0,-19222.0
2.02,4856.0,-5580.0,17160.0,139.0,-7662.0,-1814.0
2.03,6204.0,-5032.0,17260.0,-249.0,-6888.0,15596.0
2.04,5712.0,-6412.0,16248.0,-111.0,-7402.0,20710.0
2.05,6628.0,-6188.0,16784.0,546.0,-5351.0,-6937.0
2.06,6328.0,-5356.0,16260.0,1666.0,-5096.0,-18197.0
2.07,5888.0,-4472.0,15304.0,2284.0,-4841.0,238.0
2.08,5544.0,-3492.0,14816.0,2426.0,-5355.0,-22286.0
2.09,6332.0,-3032.0,15032.0,1886.0,-5608.0,-17164.0
2.1,7164.0,-3588.0,14692.0,1598.0,-5861.0,-783.0
2.11,9236.0,-4084.0,14832.0,1839.0,-5596.0,5360.0
2.12,10856.0,-3704.0,15040.0,2275.0,-5334.0,26865.0
2.13,12476.0,-3000.0,14776.0,2694.0,-4816.0,-17164.0
2.14,12884.0,-2516.0,14340.0,2748.0,-3278.0,21750.0
2.15,12028.0,-1600.0,14364.0,2621.0,-1746.0,-775.0
2.16,10940.0,-740.0,14008.0,2381.0,-1494.0,-17155.0
2.17,10608.0,-380.0,13328.0,1681.0,-983.0,28926.0
2.18,10448.0,-260.0,13168.0,898.0,-728.0,-12034.0
2.19,10552.0,-428.0,12948.0,171.0,-727.0,14590.0
2.2,11004.0,-912.0,12740.0,-300.0,-726.0,-772.0
2.21,11288.0,-1636.0,12444.0,-863.0,-468.0,6393.0
2.22,12380.0,-2700.0,12472.0,-951.0,-464.0,23797.0
2.23,13772.0,-3272.0,13056.0,-425.0,309.0,-13069.0
2.24,14064.0,-3136.0,12712.0,349.0,1078.0,-3853.0
2.25,13488.0,-2468.0,12480.0,1060.0,820.0,-20234.0
2.26,13752.0,-1800.0,12076.0,729.0,2357.0,-18184.0
2.27,13444.0,-892.0,12292.0,85.0,2612.0,-31492.0
2.28,13356.0,-820.0,12524.0,-742.0,2612.0,11516.0
2.29,13364.0,-1368.0,13072.0,-1745.0,2356.0,13562.0
2.3,13756.0,-2088.0,13428.0,-2336.0,2101.0,-17161.0
2.31,14188.0,-2372.0,13816.0,-2432.0,2103.0,27894.0
2.32,14396.0,-2592.0,13956.0,-2444.0,2616.0,15605.0
2.33,13864.0,-2696.0,14520.0,-2308.0,3638.0,10485.0
2.34,13352.0,-2544.0,14472.0,-2344.0,4404.0,10486.0
2.35,12396.0,-2496.0,15184.0,-2718.0,4400.0,27894.0
2.36,12084.0,-3076.0,15372.0,-3319.0,4143.0,13555.0
2.37,12212.0,-4196.0,15532.0,-3819.0,4143.0,-19217.0
2.38,11928.0,-4912.0,15704.0,-4008.0,4398.0,-26388.0
2.39,11500.0,-5636.0,15472.0,-3935.0,5164.0,-4887.0
2.4,10700.0,-6104.0,15200.0,-4006.0,6185.0,-13080.0
2.41,8676.0,-6152.0,15364.0,-4063.0,6945.0,-6937.0
2.42,7464.0,-6332.0,15548.0,-3825.0,6941.0,10471.0
2.43,7736.0,-7304.0,15624.0,-3503.0,6686.0,14563.0
2.44,7772.0,-7936.0,16008.0,-2857.0,7198.0,23777.0
2.45,6740.0,-7736.0,16172.0,-2227.0,7962.0,21729.0
2.46,5932.0,-6964.0,15884.0,-1938.0,8471.0,11492.0
2.47,4920.0,-6468.0,15616.0,-2361.0,8979.0,14566.0
2.48,3404.0,-6988.0,15248.0,-2708.0,9229.0,19684.0
2.49,2300.0,-7564.0,15360.0,-2487.0,8200.0,-798.0
2.5,2184.0,-7752.0,15092.0,-2230.0,7432.0,-30495.0
2.51,1664.0,-8016.0,15044.0,-1931.0,6918.0,-32544.0
2.52,1164.0,-7764.0,15336.0,-1492.0,6404.0,-29471.0
2.53,1136.0,-7316.0,15288.0,-838.0,6148.0,28899.0
2.54,1376.0,-6876.0,15324.0,-271.0,6405.0,24805.0
2.55,1076.0,-5548.0,17584.0,228.0,6404.0,13546.0
2.56,936.0,-6192.0,15044.0,499.0,5635.0,-22297.0
2.57,976.0,-6128.0,14540.0,148.0,5635.0,-12056.0
2.58,584.0,-5848.0,14692.0,129.0,5890.0,18665.0
2.59,104.0,-5752.0,14492.0,-26.0,6400.0,26857.0
2.6,-840.0,-5364.0,14764.0,-66.0,5372.0,-18197.0
2.61,-1336.0,-5324.0,15220.0,-386.0,4346.0,-14101.0
2.62,-724.0,-5768.0,15804.0,-357.0,3325.0,11497.0
2.63,-132.0,-6084.0,16048.0,-129.0,3327.0,31976.0
2.64,-304.0,-5488.0,16036.0,154.0,3326.0,-12054.0
2.65,-756.0,-5252.0,15676.0,88.0,3581.0,3307.0
2.66,-1448.0,-4916.0,15500.0,-378.0,3578.0,22764.0
2.67,-2060.0,-5236.0,15608.0,-853.0,3063.0,-2837.0
2.68,-1876.0,-5644.0,15904.0,-1332.0,2552.0,-21271.0
2.69,-1184.0,-6524.0,16572.0,-1371.0,2555.0,24806.0
2.7,-696.0,-6900.0,17292.0,-701.0,2557.0,18661.0
2.71,-604.0,-6548.0,17444.0,180.0,2557.0,-23322.0
2.72,-2272.0,-4724.0,16572.0,38.0,1271.0,8429.0
2.73,668.0,-6568.0,16728.0,-1618.0,2562.0,-25370.0
2.74,-468.0,-3956.0,18952.0,1216.0,1022.0,11504.0
2.75,-588.0,-4456.0,16324.0,1194.0,2045.0,-19218.0
2.76,-8.0,-3916.0,16664.0,-81.0,2815.0,-1808.0
2.77,564.0,-5252.0,16180.0,-1121.0,4098.0,13547.0
2.78,-264.0,-4136.0,17008.0,-717.0,4606.0,-1809.0
2.79,-632.0,-3488.0,16508.0,-439.0,4861.0,-30478.0
2.8,-1456.0,-3408.0,16056.0,-942.0,4602.0,20722.0
2.81,-1936.0,-3756.0,16392.0,-1391.0,3832.0,28913.0
2.82,-1780.0,-4348.0,16688.0,-1462.0,3321.0,3311.0
2.83,-1848.0,-4688.0,16820.0,-1271.0,3064.0,-14099.0
2.84,-1976.0,-5136.0,16544.0,-1054.0,2552.0,18667.0
2.85,-2264.0,-5124.0,16688.0,-983.0,2295.0,10475.0
2.86,-2232.0,-5560.0,16184.0,-789.0,1783.0,18666.0
2.87,-2220.0,-4936.0,16160.0,-690.0,1271.0,21740.0
2.88,-1480.0,-5108.0,16148.0,-682.0,1274.0,14572.0
2.89,-96.0,-4700.0,16724.0,-357.0,255.0,-24339.0
2.9,796.0,-3980.0,16764.0,9.0,515.0,7408.0
2.91,708.0,-3160.0,17048.0,-65.0,1026.0,-15117.0
2.92,864.0,-2800.0,16876.0,-217.0,1283.0,24821.0
2.93,88.0,-3284.0,16912.0,-758.0,2048.0,22771.0
2.94,-200.0,-3944.0,16916.0,-1129.0,2303.0,14576.0
2.95,-848.0,-4584.0,16964.0,-878.0,2300.0,-20242.0
2.96,-1564.0,-4480.0,16924.0,-556.0,2041.0,-6930.0
2.97,-1864.0,-4348.0,16756.0,-553.0,1784.0,-18193.0
2.98,-2084.0,-4252.0,16800.0,-586.0,1527.0,-8977.0
2.99,-2284.0,-4276.0,17096.0,-377.0,1015.0,5359.0
3.0,-1996.0,-4496.0,16812.0,-242.0,760.0,13550.0
3.01,-1768.0,-4280.0,16720.0,64.0,505.0,6383.0
3.02,-2068.0,-4268.0,16340.0,-56.0,503.0,-4881.0
3.03,-2136.0,-3692.0,16352.0,-43.0,503.0,-22287.0
3.04,-2456.0,-3244.0,15968.0,-108.0,502.0,26867.0
3.05,-2508.0,-2780.0,16100.0,-241.0,-10.0,13557.0
3.06,-2132.0,-3052.0,15868.0,-479.0,-265.0,-21260.0
3.07,-1076.0,-2832.0,16144.0,-537.0,-261.0,-13068.0
3.08,-848.0,-2608.0,16280.0,-519.0,-260.0,-20235.0
3.09,-512.0,-2668.0,16388.0,-513.0,-2.0,245.0
3.1,-772.0,-2140.0,16496.0,-735.0,508.0,-777.0
3.11,-1420.0,-2128.0,16696.0,-799.0,762.0,29943.0
3.12,-1816.0,-2192.0,16752.0,-568.0,760.0,-5897.0
3.13,-2196.0,-2596.0,16828.0,-510.0,759.0,27893.0
3.14,-2312.0,-2476.0,16936.0,-802.0,502.0,-1802.0
3.15,-1696.0,-2532.0,17248.0,-1026.0,505.0,24822.0
3.16,-1752.0,-2848.0,17648.0,-1055.0,505.0,10484.0
3.17,-1768.0,-3168.0,16976.0,-1005.0,761.0,6387.0
3.18,-1720.0,-3144.0,17020.0,-1004.0,761.0,18675.0
3.19,-1636.0,-3204.0,17224.0,-1003.0,761.0,-25357.0
3.2,-1344.0,-3124.0,17220.0,-557.0,762.0,-16141.0
3.21,-1524.0,-3020.0,17024.0,-290.0,506.0,3316.0
3.22,-1372.0,-2424.0,17200.0,-25.0,-6.0,-23306.0
3.23,-688.0,-2524.0,17104.0,214.0,-259.0,20726.0
3.24,-412.0,-2312.0,16876.0,156.0,-258.0,25846.0
3.25,208.0,-1840.0,17156.0,2.0,-256.0,-12040.0
3.26,256.0,-2028.0,17208.0,-192.0,-255.0,248.0
3.27,408.0,-2452.0,17512.0,-124.0,1.0,-26378.0
3.28,316.0,-2528.0,17304.0,-22.0,257.0,15606.0
3.29,156.0,-2440.0,17196.0,-40.0,512.0,-25354.0
3.3,0.0,-2776.0,17344.0,130.0,1024.0,245.0
3.31,-908.0,-2964.0,17132.0,209.0,1532.0,29940.0
3.32,-1348.0,-2948.0,17096.0,318.0,1274.0,-17164.0
3.33,-2060.0,-2616.0,16568.0,309.0,1015.0,-2827.0
3.34,-2532.0,-2480.0,16728.0,55.0,758.0,7414.0
3.35,-3056.0,-2232.0,16376.0,-178.0,-12.0,4343.0
3.36,-3116.0,-2184.0,16424.0,-252.0,-525.0,-11017.0
3.37,-2992.0,-2280.0,16344.0,-323.0,-1292.0,20727.0
3.38,-2168.0,-2216.0,16744.0,-490.0,-2057.0,-30473.0
3.39,-868.0,-2532.0,17072.0,-475.0,-2820.0,-25354.0
3.4,312.0,-2808.0,17480.0,-335.0,-2815.0,14581.0
3.41,1336.0,-2728.0,17380.0,-11.0,-2299.0,14581.0
3.42,1820.0,-2500.0,17352.0,220.0,-1529.0,7414.0
3.43,1820.0,-1816.0,17204.0,90.0,-761.0,7416.0
3.44,1496.0,-1912.0,17180.0,-42.0,-251.0,-9992.0
3.45,1080.0,-2248.0,17060.0,-44.0,4.0,14583.0
3.46,640.0,-1920.0,16824.0,-117.0,2.0,-32520.0
3.47,72.0,-1900.0,16404.0,-340.0,256.0,18680.0
3.48,-648.0,-2040.0,16208.0,-536.0,509.0,30968.0
3.49,-1256.0,-2452.0,16004.0,-512.0,251.0,6390.0
3.5,-1776.0,-2376.0,15960.0,-527.0,-263.0,4342.0
3.51,-1440.0,-2520.0,16372.0,-466.0,-1030.0,24822.0
3.52,-360.0,-2492.0,16908.0,-313.0,-1538.0,-26378.0
3.53,168.0,-2732.0,16808.0,-84.0,-2048.0,-22283.0
3.54,952.0,-2284.0,17208.0,-33.0,-1789.0,-18185.0
3.55,1240.0,-2020.0,17096.0,-218.0,-1788.0,-9992.0
3.56,1448.0,-2212.0,17220.0,-457.0,-1019.0,-22281.0
3.57,1320.0,-2168.0,17112.0,-501.0,-507.0,10487.0
3.58,1148.0,-2080.0,17012.0,-404.0,-252.0,31991.0
3.59,1104.0,-2420.0,17168.0,-333.0,-252.0,20726.0
3.6,992.0,-2204.0,17128.0,-277.0,-253.0,-7945.0
3.61,1536.0,-2264.0,17060.0,-112.0,262.0,247.0
3.62,1600.0,-2540.0,17164.0,60.0,518.0,16630.0
3.63,1192.0,-2724.0,17156.0,323.0,772.0,-22283.0
3.64,328.0,-2336.0,16616.0,438.0,769.0,18678.0
3.65,-1388.0,-4948.0,13780.0,1171.0,-262.0,-27412.0
3.66,144.0,-1032.0,17588.0,2143.0,512.0,-28421.0
3.67,1240.0,-1216.0,16728.0,274.0,1028.0,-9989.0
3.68,344.0,-2912.0,16580.0,-952.0,-511.0,22772.0
3.69,264.0,-2920.0,16024.0,-409.0,-1023.0,2292.0
3.7,996.0,-2612.0,17296.0,-45.0,-765.0,-6923.0
3.71,1128.0,-3184.0,17076.0,290.0,-1276.0,26867.0
3.72,1264.0,-2856.0,16888.0,309.0,-1020.0,-3852.0
3.73,1696.0,-2192.0,17120.0,698.0,-1018.0,-24329.0
3.74,2136.0,-1928.0,17168.0,849.0,-760.0,22776.0
3.75,2416.0,-1620.0,16996.0,687.0,-503.0,28921.0
3.76,2488.0,-1892.0,16976.0,509.0,-247.0,-18184.0
3.77,2412.0,-1808.0,17204.0,330.0,265.0,27896.0
3.78,2240.0,-1812.0,16776.0,90.0,776.0,-16136.0
3.79,1704.0,-2108.0,16636.0,-70.0,1030.0,-22281.0
3.8,1352.0,-2248.0,16544.0,-199.0,1285.0,18679.0
3.81,980.0,-2460.0,16660.0,-308.0,1283.0,-11018.0
3.82,488.0,-2584.0,16616.0,-200.0,1025.0,-5899.0
3.83,516.0,-2504.0,16740.0,0.0,514.0,1270.0
3.84,348.0,-2392.0,16624.0,121.0,513.0,23798.0
3.85,328.0,-2036.0,16372.0,120.0,257.0,18680.0
3.86,336.0,-1924.0,16552.0,-10.0,-255.0,20728.0
3.87,668.0,-2016.0,16284.0,-105.0,-510.0,-25352.0
3.88,980.0,-2020.0,16600.0,-96.0,-765.0,-11016.0
3.89,1136.0,-1960.0,16572.0,-45.0,-764.0,28920.0
3.9,1408.0,-1760.0,16772.0,-68.0,-1019.0,-32519.0
3.91,1460.0,-1648.0,16768.0,-246.0,-763.0,-19207.0
3.92,1944.0,-1780.0,16716.0,-348.0,-761.0,-26375.0
3.93,1984.0,-2016.0,16820.0,-472.0,-249.0,-16136.0
3.94,1724.0,-1932.0,16888.0,-535.0,6.0,-17160.0
3.95,1508.0,-2208.0,17040.0,-578.0,-251.0,-6921.0
3.96,1604.0,-2392.0,17176.0,-500.0,-250.0,17654.0
3.97,1340.0,-2304.0,16912.0,-380.0,-251.0,15607.0
3.98,1360.0,-2240.0,16908.0,-355.0,-251.0,20727.0
3.99,1304.0,-2344.0,16848.0,-402.0,-251.0,6390.0
3.99,1304.0,-2344.0,16848.0,-402.0,-251.0,6390.0
3.99,1304.0,-2344.0,16848.0,-402.0,-251.0,6390.0
3.99,1304.0,-2344.0,16848.0,-402.0,-251.0,6390.0
3.99,1304.0,-2344.0,16848.0,-402.0,-251.0,6390.0
3.99,1304.0,-2344.0,16848.0,-402.0,-251.0,6390.0
3.99,1304.0,-2344.0,16848.0,-402.0,-251.0,6390.0
3.99,1304.0,-2344.0,16848.0,-402.0,-251.0,6390.0
3.99,1304.0,-2344.0,16848.0,-402.0,-251.0,6390.0
3.99,1304.0,-2344.0,16848.0,-402.0,-251.0,6390.0
3.99,1304.0,-2344.0,16848.0,-402.0,-251.0,6390.0
3.99,1304.0,-2344.0,16848.0,-402.0,-251.0,6390.0
3.99,1304.0,-2344.0,16848.0,-402.0,-251.0,6390.0
3.99,1304.0,-2344.0,16848.0,-402.0,-251.0,6390.0
3.99,1304.0,-2344.0,16848.0,-402.0,-251.0,6390.0
3.99,1304.0,-2344.0,16848.0,-402.0,-251.0,6390.0
3.99,1304.0,-2344.0,16848.0,-402.0,-251.0,6390.0
3.99,1304.0,-2344.0,16848.0,-402.0,-251.0,6390.0
3.99,1304.0,-2344.0,16848.0,-402.0,-251.0,6390.0
3.99,1304.0,-2344.0,16848.0,-402.0,-251.0,6390.0
3.99,1304.0,-2344.0,16848.0,-402.0,-251.0,6390.0
3.99,1304.0,-2344.0,16848.0,-402.0,-251.0,6390.0
3.99,1304.0,-2344.0,16848.0,-402.0,-251.0,6390.0
3.99,1304.0,-2344.0,16848.0,-402.0,-251.0,6390.0
3.99,1304.0,-2344.0,16848.0,-402.0,-251.0,6390.0
3.99,1304.0,-2344.0,16848.0,-402.0,-251.0,6390.0
3.99,1304.0,-2344.0,16848.0,-402.0,-251.0,6390.0
3.99,1304.0,-2344.0,16848.0,-402.0,-251.0,6390.0
3.99,1304.0,-2344.0,16848.0,-402.0,-251.0,6390.0
3.99,1304.0,-2344.0,16848.0,-402.0,-251.0,6390.0
3.99,1304.0,-2344.0,16848.0,-402.0,-251.0,6390.0
3.99,1304.0,-2344.0,16848.0,-402.0,-251.0,6390.0
3.99,1304.0,-2344.0,16848.0,-402.0,-251.0,6390.0
3.99,1304.0,-2344.0,16848.0,-402.0,-251.0,6390.0
3.99,1304.0,-2344.0,16848.0,-402.0,-251.0,6390.0
3.99,1304.0,-2344.0,16848.0,-402.0,-251.0,6390.0
3.99,1304.0,-2344.0,16848.0,-402.0,-251.0,6390.0
3.99,1304.0,-2344.0,16848.0,-402.0,-251.0,6390.0
3.99,1304.0,-2344.0,16848.0,-402.0,-251.0,6390.0
3.99,1304.0,-2344.0,16848.0,-402.0,-251.0,6390.0
3.99,1304.0,-2344.0,16848.0,-402.0,-251.0,6390.0
3.99,1304.0,-2344.0,16848.0,-402.0,-251.0,6390.0
3.99,1304.0,-2344.0,16848.0,-402.0,-251.0,6390.0
3.99,1304.0,-2344.0,16848.0,-402.0,-251.0,6390.0
3.99,1304.0,-2344.0,16848.0,-402.0,-251.0,6390.0
3.99,1304.0,-2344.0,16848.0,-402.0,-251.0,6390.0
3.99,1304.0,-2344.0,16848.0,-402.0,-251.0,6390.0
3.99,1304.0,-2344.0,16848.0,-402.0,-251.0,6390.0
3.99,1304.0,-2344.0,16848.0,-402.0,-251.0,6390.0
3.99,1304.0,-2344.0,16848.0,-402.0,-251.0,6390.0
3.99,1304.0,-2344.0,16848.0,-402.0,-251.0,6390.0
