Time,acce_x,acce_y,acce_z,gyro_x,gyro_y,gyro_z
0.0,256.0,-1992.0,16768.0,-369.0,1.0,248.0
0.0,256.0,-1992.0,16768.0,-369.0,1.0,248.0
0.0,256.0,-1992.0,16768.0,-369.0,1.0,248.0
0.0,256.0,-1992.0,16768.0,-369.0,1.0,248.0
0.0,256.0,-1992.0,16768.0,-369.0,1.0,248.0
0.0,256.0,-1992.0,16768.0,-369.0,1.0,248.0
0.0,256.0,-1992.0,16768.0,-369.0,1.0,248.0
0.0,256.0,-1992.0,16768.0,-369.0,1.0,248.0
0.0,256.0,-1992.0,16768.0,-369.0,1.0,248.0
0.0,256.0,-1992.0,16768.0,-369.0,1.0,248.0
0.0,256.0,-1992.0,16768.0,-369.0,1.0,248.0
0.0,256.0,-1992.0,16768.0,-369.0,1.0,248.0
0.0,256.0,-1992.0,16768.0,-369.0,1.0,248.0
0.0,256.0,-1992.0,16768.0,-369.0,1.0,248.0
0.0,256.0,-1992.0,16768.0,-369.0,1.0,248.0
0.0,256.0,-1992.0,16768.0,-369.0,1.0,248.0
0.0,256.0,-1992.0,16768.0,-369.0,1.0,248.0
0.0,256.0,-1992.0,16768.0,-369.0,1.0,248.0
0.0,256.0,-1992.0,16768.0,-369.0,1.0,248.0
0.0,256.0,-1992.0,16768.0,-369.0,1.0,248.0
0.0,256.0,-1992.0,16768.0,-369.0,1.0,248.0
0.0,256.0,-1992.0,16768.0,-369.0,1.0,248.0
0.0,256.0,-1992.0,16768.0,-369.0,1.0,248.0
0.0,256.0,-1992.0,16768.0,-369.0,1.0,248.0
0.0,256.0,-1992.0,16768.0,-369.0,1.0,248.0
0.0,256.0,-1992.0,16768.0,-369.0,1.0,248.0
0.0,256.0,-1992.0,16768.0,-369.0,1.0,248.0
0.0,256.0,-1992.0,16768.0,-369.0,1.0,248.0
0.0,256.0,-1992.0,16768.0,-369.0,1.0,248.0
0.0,256.0,-1992.0,16768.0,-369.0,1.0,248.0
0.0,256.0,-1992.0,16768.0,-369.0,1.0,248.0
0.0,256.0,-1992.0,16768.0,-369.0,1.0,248.0
0.0,256.0,-1992.0,16768.0,-369.0,1.0,248.0
0.0,256.0,-1992.0,16768.0,-369.0,1.0,248.0
0.0,256.0,-1992.0,16768.0,-369.0,1.0,248.0
0.0,256.0,-1992.0,16768.0,-369.0,1.0,248.0
0.0,256.0,-1992.0,16768.0,-369.0,1.0,248.0
0.0,256.0,-1992.0,16768.0,-369.0,1.0,248.0
0.0,256.0,-1992.0,16768.0,-369.0,1.0,248.0
0.0,256.0,-1992.0,16768.0,-369.0,1.0,248.0
0.0,256.0,-1992.0,16768.0,-369.0,1.0,248.0
0.0,256.0,-1992.0,16768.0,-369.0,1.0,248.0
0.0,256.0,-1992.0,16768.0,-369.0,1.0,248.0
0.0,256.0,-1992.0,16768.0,-369.0,1.0,248.0
0.0,256.0,-1992.0,16768.0,-369.0,1.0,248.0
0.0,256.0,-1992.0,16768.0,-369.0,1.0,248.0
0.0,256.0,-1992.0,16768.0,-369.0,1.0,248.0
0.0,256.0,-1992.0,16768.0,-369.0,1.0,248.0
0.0,256.0,-1992.0,16768.0,-369.0,1.0,248.0
0.0,256.0,-1992.0,16768.0,-369.0,1.0,248.0
0.0,256.0,-1992.0,16768.0,-369.0,1.0,248.0
0.01,60.0,-2096.0,16884.0,-353.0,0.0,15607.0
0.02,-192.0,-2092.0,16852.0,-251.0,-1.0,16631.0
0.03,-20.0,-2152.0,17104.0,-152.0,-1.0,-4873.0
0.04,116.0,-2016.0,17036.0,-36.0,-512.0,29944.0
0.05,212.0,-1920.0,16800.0,-89.0,-512.0,-11016.0
0.06,328.0,-1816.0,16692.0,-207.0,-255.0,18680.0
0.07,388.0,-1920.0,16720.0,-366.0,1.0,-31496.0
0.08,312.0,-1960.0,16572.0,-515.0,257.0,14584.0
0.09,-56.0,-1988.0,16632.0,-580.0,255.0,-14088.0
0.1,-244.0,-1984.0,16664.0,-570.0,255.0,3320.0
0.11,-308.0,-2116.0,16712.0,-566.0,-2.0,-13065.0
0.12,-116.0,-2120.0,16932.0,-523.0,-257.0,-29449.0
0.13,212.0,-2336.0,17116.0,-289.0,-768.0,-11018.0
0.14,516.0,-2356.0,17196.0,-155.0,-510.0,1270.0
0.15,572.0,-2144.0,17056.0,-257.0,-254.0,15607.0
0.16,684.0,-1920.0,17028.0,-170.0,-254.0,-21256.0
0.17,760.0,-1824.0,16916.0,-171.0,258.0,-1800.0
0.18,480.0,-1708.0,16616.0,-348.0,513.0,-7943.0
0.19,212.0,-1680.0,16600.0,-499.0,512.0,-11015.0
0.2,-16.0,-1812.0,16500.0,-492.0,511.0,-3848.0
0.21,-200.0,-1976.0,16612.0,-524.0,511.0,14584.0
0.22,-256.0,-1888.0,16764.0,-454.0,255.0,248.0
0.23,-128.0,-2032.0,16756.0,-408.0,255.0,-32520.0
0.24,-16.0,-2040.0,16848.0,-372.0,255.0,-3848.0
0.25,-68.0,-2152.0,16880.0,-237.0,255.0,-17161.0
0.26,-176.0,-1988.0,16812.0,-216.0,255.0,20728.0
0.27,-316.0,-1796.0,16856.0,-287.0,254.0,-15112.0
0.28,-368.0,-1852.0,16812.0,-305.0,254.0,-28424.0
0.29,-200.0,-1868.0,16784.0,-278.0,255.0,14584.0
0.3,-112.0,-1872.0,16896.0,-281.0,-1.0,-28424.0
0.31,132.0,-2088.0,16900.0,-293.0,-256.0,-31497.0
0.32,180.0,-2060.0,17036.0,-232.0,-256.0,-19209.0
0.33,256.0,-2004.0,16828.0,-188.0,1.0,248.0
0.34,152.0,-1760.0,16776.0,-197.0,256.0,-26375.0
0.35,44.0,-1700.0,16500.0,-365.0,256.0,11513.0
0.36,-36.0,-1824.0,16520.0,-438.0,511.0,-8968.0
0.37,-180.0,-1956.0,16540.0,-442.0,255.0,19704.0
0.38,-236.0,-2016.0,16896.0,-430.0,255.0,5368.0
0.39,-252.0,-1940.0,16800.0,-387.0,-1.0,1272.0
0.4,-204.0,-2016.0,16808.0,-389.0,-1.0,13560.0
0.41,-104.0,-2020.0,16704.0,-377.0,-1.0,-26376.0
0.42,-32.0,-2036.0,16832.0,-434.0,-1.0,-7944.0
0.43,192.0,-2000.0,16836.0,-396.0,0.0,-16136.0
0.44,356.0,-2048.0,16768.0,-333.0,1.0,25848.0
0.45,144.0,-2044.0,16948.0,-390.0,256.0,-28424.0
0.46,8.0,-1720.0,16760.0,-407.0,256.0,2297.0
0.47,8.0,-2044.0,16804.0,-538.0,512.0,2296.0
0.48,24.0,-2112.0,16740.0,-597.0,768.0,6391.0
0.49,-228.0,-2284.0,16664.0,-494.0,767.0,7415.0
0.5,-132.0,-2464.0,16964.0,-285.0,511.0,31990.0
0.51,124.0,-2308.0,16916.0,-199.0,0.0,31990.0
0.52,348.0,-2040.0,16764.0,-225.0,257.0,23800.0
0.53,352.0,-1704.0,16828.0,-336.0,1.0,24825.0
0.54,208.0,-1884.0,16780.0,-451.0,256.0,-12040.0
0.55,184.0,-1952.0,16552.0,-532.0,0.0,-18184.0
0.56,88.0,-2152.0,16708.0,-551.0,0.0,22775.0
0.57,204.0,-2604.0,17084.0,-445.0,-256.0,-13067.0
0.58,544.0,-2636.0,17072.0,-233.0,-510.0,8437.0
0.59,632.0,-2648.0,17216.0,-111.0,-510.0,30965.0
0.6,756.0,-2456.0,17228.0,-28.0,-254.0,-2826.0
0.61,768.0,-2376.0,17116.0,47.0,-253.0,246.0
0.62,764.0,-2060.0,16964.0,53.0,-254.0,-777.0
0.63,624.0,-1880.0,16744.0,-97.0,2.0,28920.0
0.64,332.0,-1796.0,16800.0,-277.0,257.0,19704.0
0.65,-24.0,-1988.0,16796.0,-476.0,511.0,-5896.0
0.66,-288.0,-2128.0,16780.0,-540.0,510.0,-7945.0
0.67,-408.0,-2240.0,16760.0,-528.0,254.0,26871.0
0.68,-540.0,-2248.0,16884.0,-397.0,-3.0,-6921.0
0.69,-556.0,-2272.0,16896.0,-261.0,-3.0,-11017.0
0.7,-360.0,-2244.0,16816.0,-161.0,-258.0,-26377.0
0.71,-288.0,-2160.0,16760.0,-90.0,-258.0,-7945.0
0.72,-292.0,-1964.0,16548.0,-135.0,-258.0,-8968.0
0.73,-208.0,-1904.0,16668.0,-231.0,-257.0,12536.0
0.74,-88.0,-2140.0,16780.0,-282.0,-257.0,-22281.0
0.75,212.0,-2104.0,16736.0,-284.0,-256.0,-11017.0
0.76,100.0,-2248.0,16972.0,-195.0,0.0,25847.0
0.77,40.0,-2228.0,16856.0,-66.0,0.0,10487.0
0.78,-184.0,-2192.0,16616.0,-14.0,255.0,18679.0
0.79,-272.0,-1836.0,16680.0,-71.0,254.0,-3848.0
0.8,-92.0,-1892.0,16568.0,-169.0,255.0,-23304.0
0.81,28.0,-1936.0,16576.0,-298.0,0.0,7416.0
0.82,44.0,-1900.0,16532.0,-316.0,0.0,11512.0
0.83,32.0,-2008.0,16652.0,-312.0,0.0,8440.0
0.84,-168.0,-2028.0,16608.0,-278.0,255.0,22776.0
0.85,-192.0,-2160.0,16660.0,-224.0,255.0,16631.0
0.86,-40.0,-2040.0,16692.0,-205.0,255.0,-9992.0
0.87,-56.0,-2212.0,16696.0,-153.0,511.0,-14089.0
0.88,-396.0,-2044.0,16584.0,-76.0,510.0,29944.0
0.89,-636.0,-1840.0,16632.0,-114.0,765.0,-31496.0
0.9,-924.0,-1556.0,16476.0,-235.0,764.0,25849.0
0.91,-1156.0,-1496.0,16332.0,-383.0,1019.0,31994.0
0.92,-1572.0,-1248.0,16188.0,-627.0,1017.0,-8965.0
0.93,-2116.0,-1152.0,16172.0,-908.0,1271.0,-17157.0
0.94,-3052.0,-1248.0,16292.0,-1132.0,1524.0,5371.0
0.95,-3948.0,-1500.0,16424.0,-1316.0,1520.0,-27398.0
0.96,-4832.0,-1944.0,16604.0,-1351.0,1005.0,8440.0
0.97,-5436.0,-2228.0,16568.0,-1278.0,746.0,-15113.0
0.98,-5764.0,-2728.0,16744.0,-1169.0,233.0,31989.0
0.99,-6148.0,-2652.0,16688.0,-1031.0,-25.0,-779.0
1.0,-6136.0,-2656.0,16628.0,-892.0,-280.0,2293.0
1.01,-6284.0,-2580.0,16544.0,-948.0,-793.0,29941.0
1.02,-6652.0,-2824.0,17068.0,-1041.0,-794.0,1268.0
1.03,-6716.0,-2696.0,17560.0,-762.0,-1051.0,-15115.0
1.04,-5732.0,-3076.0,17556.0,-615.0,-1559.0,-25357.0
1.05,-4904.0,-2460.0,17612.0,-449.0,-1044.0,-9994.0
1.06,-4620.0,-2592.0,17492.0,-434.0,-531.0,-2827.0
1.07,-4920.0,-2780.0,17700.0,-391.0,-20.0,-14091.0
1.08,-4668.0,-2396.0,17336.0,-497.0,749.0,-15114.0
1.09,-4804.0,-2392.0,17232.0,-646.0,1517.0,15606.0
1.1,-5504.0,-2308.0,17176.0,-643.0,1770.0,-32522.0
1.11,-7040.0,-2720.0,17184.0,-672.0,1508.0,-32523.0
1.12,-7288.0,-2988.0,17124.0,-212.0,-29.0,-30476.0
1.13,-7668.0,-3244.0,17072.0,-34.0,-1566.0,3315.0
1.14,-6728.0,-3280.0,16712.0,-52.0,-2331.0,-18189.0
1.15,-5792.0,-3152.0,16464.0,-7.0,-2327.0,24819.0
1.16,-5272.0,-3120.0,16692.0,-140.0,-2325.0,26867.0
1.17,-5108.0,-3220.0,16692.0,-169.0,-2068.0,3315.0
1.18,-4480.0,-3220.0,16508.0,-198.0,-2066.0,-32525.0
1.19,-4048.0,-3076.0,16512.0,-240.0,-1808.0,12531.0
1.2,-4168.0,-3076.0,16588.0,-235.0,-1809.0,-18189.0
1.21,-3984.0,-3048.0,16292.0,-379.0,-1552.0,28916.0
1.22,-4008.0,-2608.0,15928.0,-648.0,-1040.0,22773.0
1.23,-4564.0,-2444.0,15824.0,-990.0,-1298.0,11510.0
1.24,-4240.0,-3280.0,16108.0,-1268.0,-1809.0,28915.0
1.25,-3984.0,-3496.0,16372.0,-1175.0,-2320.0,28914.0
1.26,-3640.0,-4020.0,16148.0,-1044.0,-3087.0,-14096.0
1.27,-2908.0,-3236.0,16716.0,-812.0,-3340.0,-23309.0
1.28,-1984.0,-3672.0,16720.0,-784.0,-3848.0,16625.0
1.29,-844.0,-3984.0,17264.0,-759.0,-4100.0,-19216.0
1.3,-236.0,-4408.0,17304.0,-394.0,-3585.0,5358.0
1.31,476.0,-3184.0,16608.0,-187.0,-2559.0,-8973.0
1.32,136.0,-3520.0,15948.0,-96.0,-1792.0,-30478.0
1.33,-628.0,-3376.0,16768.0,-494.0,-1027.0,-29454.0
1.34,-1276.0,-2028.0,16744.0,-735.0,-773.0,1272.0
1.35,-1364.0,-3040.0,17116.0,-827.0,-774.0,-21260.0
1.36,-1256.0,-3480.0,17204.0,-919.0,-773.0,6386.0
1.37,-1148.0,-3976.0,17468.0,-792.0,-773.0,-31504.0
1.38,-1184.0,-4576.0,17876.0,-616.0,-773.0,24814.0
1.39,-1640.0,-4692.0,17116.0,-310.0,-1031.0,-26387.0
1.4,-1708.0,-5784.0,17052.0,148.0,-1287.0,21737.0
1.41,-1456.0,-5088.0,16856.0,174.0,-1286.0,20716.0
1.42,-1392.0,-5416.0,17200.0,449.0,-1542.0,-28438.0
1.43,-1312.0,-5844.0,16820.0,669.0,-1542.0,-7959.0
1.44,-1464.0,-5332.0,16272.0,619.0,-1030.0,18667.0
1.45,-2156.0,-4876.0,15972.0,326.0,-777.0,-27412.0
1.46,-3164.0,-5720.0,16352.0,122.0,-781.0,-23319.0
1.47,-3264.0,-6164.0,16476.0,18.0,-1293.0,16615.0
1.48,-3388.0,-6668.0,16352.0,54.0,-1550.0,-15131.0
1.49,-4128.0,-6724.0,16456.0,244.0,-1809.0,-7963.0
1.5,-4416.0,-6252.0,16028.0,316.0,-2578.0,-16153.0
1.51,-4880.0,-5972.0,15784.0,71.0,-3604.0,-3864.0
1.52,-4720.0,-7440.0,15644.0,-262.0,-5395.0,-28446.0
1.53,-7184.0,-10388.0,19688.0,-2186.0,-4381.0,-3881.0
1.54,4168.0,-6640.0,14232.0,1107.0,-10736.0,18662.0
1.55,-760.0,-5708.0,17020.0,683.0,-8963.0,2281.0
1.56,1348.0,-7004.0,16684.0,14.0,-8699.0,17636.0
1.57,1296.0,-6852.0,16240.0,-548.0,-8443.0,4325.0
1.58,3176.0,-6176.0,16252.0,234.0,-8436.0,26855.0
1.59,3308.0,-7272.0,16804.0,532.0,-7412.0,-4893.0
1.6,2868.0,-7096.0,16508.0,1342.0,-6645.0,13540.0
1.61,3380.0,-4788.0,15080.0,1022.0,-4083.0,13549.0
1.62,2604.0,-5576.0,16736.0,777.0,-4598.0,11498.0
1.63,2268.0,-5068.0,15596.0,700.0,-4344.0,-8980.0
1.64,1972.0,-5568.0,15580.0,1045.0,-5625.0,-19222.0
1.65,1716.0,-5712.0,16196.0,397.0,-5626.0,-19223.0
1.66,4012.0,-6040.0,17044.0,892.0,-6129.0,-21272.0
1.67,1652.0,-5660.0,16892.0,4457.0,-10490.0,29929.0
1.68,1380.0,-9624.0,18964.0,-124.0,3589.0,25818.0
1.69,6960.0,-2508.0,16424.0,-86.0,-5605.0,12534.0
1.7,1164.0,-7964.0,16560.0,873.0,-6652.0,-29472.0
1.71,5828.0,-3744.0,15720.0,2023.0,-6122.0,-15119.0
1.72,5248.0,-3348.0,16360.0,2975.0,-4332.0,-32526.0
1.73,5252.0,-2340.0,15832.0,2159.0,-1260.0,-31498.0
1.74,4408.0,-1912.0,15792.0,596.0,529.0,14584.0
1.75,3368.0,-1956.0,15744.0,-314.0,1293.0,10488.0
1.76,2128.0,-3040.0,15540.0,-784.0,8.0,20724.0
1.77,2740.0,-3992.0,16708.0,-751.0,-246.0,-19216.0
1.78,2524.0,-4148.0,16844.0,179.0,-1271.0,-8977.0
1.79,2408.0,-3188.0,16348.0,1173.0,-1783.0,26867.0
1.8,1744.0,-2000.0,16216.0,1341.0,-2298.0,-12040.0
1.81,1676.0,-1344.0,15792.0,860.0,-2554.0,-29446.0
1.82,1532.0,-2084.0,15616.0,394.0,-3067.0,-777.0
1.83,1668.0,-2788.0,16164.0,159.0,-2298.0,-31499.0
1.84,1288.0,-2780.0,15876.0,37.0,-1531.0,2293.0
1.85,1440.0,-2020.0,15324.0,-265.0,-1787.0,-24328.0
1.86,652.0,-1404.0,15392.0,-1298.0,-2558.0,-29446.0
1.87,2060.0,-2344.0,15492.0,-1396.0,-3064.0,3318.0
1.88,2776.0,-3376.0,16236.0,-112.0,-2550.0,-9998.0
1.89,2804.0,-2992.0,16168.0,807.0,-2550.0,-2828.0
1.9,1828.0,-2224.0,16396.0,805.0,-2041.0,9463.0
1.91,1428.0,-1564.0,15528.0,-263.0,-251.0,-27399.0
1.92,728.0,-1908.0,15068.0,-97.0,770.0,-9992.0
1.93,-444.0,-1560.0,14244.0,-633.0,766.0,17657.0
1.94,-1316.0,-1396.0,13452.0,-1650.0,1018.0,-8966.0
1.95,-2288.0,-1244.0,14588.0,-2667.0,-777.0,4347.0
1.96,-1640.0,-1968.0,14620.0,-3503.0,-2823.0,-26376.0
1.97,-448.0,-2424.0,14868.0,-4130.0,-5122.0,16630.0
1.98,608.0,-4320.0,15632.0,-4247.0,-6910.0,24815.0
1.99,1040.0,-5340.0,12836.0,-3479.0,-9980.0,4331.0
2.0,4888.0,-4860.0,15296.0,-3444.0,-8173.0,6381.0
2.01,5608.0,-4116.0,15272.0,-2620.0,-8939.0,-5905.0
2.02,5216.0,-4252.0,14928.0,-2399.0,-7404.0,24815.0
2.03,5584.0,-3316.0,14580.0,-2811.0,-4843.0,-12045.0
2.04,4660.0,-2304.0,14620.0,-2348.0,-2286.0,13559.0
2.05,3096.0,-2356.0,12708.0,-2292.0,-500.0,6390.0
2.06,2428.0,-2660.0,13344.0,-3541.0,-1015.0,31989.0
2.07,908.0,-3548.0,13324.0,-4958.0,-2045.0,-29454.0
2.08,2304.0,-3240.0,14776.0,-4747.0,-3575.0,243.0
2.09,2812.0,-4600.0,15064.0,-4926.0,-5110.0,-786.0
2.1,2824.0,-6408.0,16336.0,-3808.0,-6133.0,2278.0
2.11,4688.0,-7180.0,16400.0,-2711.0,-7150.0,20707.0
2.12,6300.0,-6504.0,16068.0,-2040.0,-7400.0,-25370.0
2.13,7356.0,-5704.0,15492.0,-1747.0,-6884.0,-17175.0
2.14,7428.0,-4776.0,15236.0,-1638.0,-5859.0,1261.0
2.15,7748.0,-4004.0,15040.0,-2044.0,-5346.0,17648.0
2.16,8120.0,-3852.0,14992.0,-2614.0,-4577.0,-18192.0
2.17,8072.0,-4244.0,14960.0,-2966.0,-4321.0,-30481.0
2.18,7728.0,-4776.0,15160.0,-3119.0,-4322.0,12525.0
2.19,7796.0,-6172.0,15640.0,-2889.0,-4834.0,29927.0
2.2,8704.0,-7220.0,15768.0,-2339.0,-5086.0,227.0
2.21,9404.0,-7284.0,15972.0,-1516.0,-5084.0,-17181.0
2.22,9512.0,-6984.0,15836.0,-914.0,-4571.0,10468.0
2.23,9784.0,-6688.0,16116.0,-569.0,-4058.0,14565.0
2.24,10036.0,-6488.0,16212.0,-234.0,-3545.0,13542.0
2.25,10384.0,-6372.0,16144.0,99.0,-3032.0,-28441.0
2.26,10864.0,-5956.0,16244.0,172.0,-2518.0,28904.0
2.27,11212.0,-5776.0,16024.0,144.0,-2005.0,-13079.0
2.28,11524.0,-5676.0,15784.0,275.0,-1747.0,1257.0
2.29,12308.0,-5728.0,15248.0,497.0,-1232.0,5353.0
2.3,12664.0,-5256.0,15104.0,807.0,-463.0,30955.0
2.31,12692.0,-4748.0,14788.0,1009.0,305.0,-27411.0
2.32,13132.0,-4248.0,14628.0,1052.0,819.0,19695.0
2.33,13048.0,-3876.0,14724.0,1257.0,1586.0,-1808.0
2.34,12676.0,-3712.0,14644.0,1605.0,1841.0,-31503.0
2.35,12852.0,-3756.0,14652.0,1804.0,2354.0,13553.0
2.36,12880.0,-3816.0,14508.0,1762.0,2866.0,20721.0
2.37,13256.0,-3356.0,14292.0,1606.0,2867.0,-14094.0
2.38,12668.0,-3612.0,14892.0,1159.0,2865.0,31985.0
2.39,13316.0,-3716.0,14820.0,520.0,2868.0,1265.0
2.4,13616.0,-3516.0,14884.0,-94.0,3125.0,12530.0
2.41,13320.0,-3704.0,14820.0,-270.0,3892.0,2289.0
2.42,12432.0,-3784.0,14924.0,-378.0,4656.0,-28431.0
2.43,11680.0,-4128.0,14996.0,-715.0,5933.0,-24337.0
2.44,10724.0,-3948.0,14784.0,-1110.0,6953.0,-6928.0
2.45,9592.0,-4076.0,14564.0,-1570.0,7461.0,30960.0
2.46,7936.0,-4276.0,14548.0,-2057.0,7967.0,239.0
2.47,6880.0,-5064.0,14772.0,-2440.0,7194.0,-7956.0
2.48,5596.0,-6024.0,15096.0,-2613.0,6165.0,-8984.0
2.49,4928.0,-6808.0,15428.0,-2628.0,4371.0,16613.0
2.5,4944.0,-7632.0,16160.0,-2322.0,2835.0,20706.0
2.51,5780.0,-8336.0,16620.0,-1848.0,2070.0,-27425.0
2.52,6344.0,-8308.0,17108.0,-1366.0,1816.0,-14113.0
2.53,6812.0,-8644.0,16464.0,-393.0,2074.0,-25378.0
2.54,6092.0,-5680.0,16832.0,-459.0,4119.0,-13079.0
2.55,6600.0,-6696.0,15800.0,-1323.0,4377.0,-14107.0
2.56,6108.0,-6124.0,15876.0,-1540.0,5399.0,-8984.0
2.57,5976.0,-6248.0,15344.0,-1670.0,6167.0,22759.0
2.58,5796.0,-6724.0,15148.0,-1037.0,6934.0,-23323.0
2.59,4536.0,-5660.0,14644.0,-1584.0,7953.0,-18199.0
2.6,2540.0,-5832.0,15344.0,-975.0,6921.0,-4887.0
2.61,3228.0,-6104.0,15360.0,-225.0,6924.0,-25368.0
2.62,3436.0,-6324.0,14832.0,201.0,6413.0,27879.0
2.63,3248.0,-5132.0,14504.0,109.0,6924.0,-20245.0
2.64,3524.0,-5640.0,14620.0,-692.0,7437.0,-15127.0
2.65,2984.0,-4936.0,14528.0,-1238.0,8715.0,-22292.0
2.66,1560.0,-4300.0,14676.0,-1929.0,9990.0,6383.0
2.67,1136.0,-4560.0,14104.0,-2078.0,9988.0,28910.0
2.68,332.0,-4008.0,13888.0,-1766.0,9473.0,19696.0
2.69,-812.0,-5556.0,13748.0,-1513.0,8444.0,-11030.0
2.7,-948.0,-5772.0,13644.0,-970.0,7420.0,19689.0
2.71,-1492.0,-5668.0,14028.0,-638.0,5882.0,11497.0
2.72,-1396.0,-4952.0,14540.0,-826.0,4858.0,-29460.0
2.73,-1028.0,-5692.0,14612.0,-1267.0,3579.0,-791.0
2.74,80.0,-6344.0,14960.0,-1365.0,3328.0,20711.0
2.75,324.0,-7448.0,15136.0,-874.0,3329.0,17634.0
2.76,40.0,-7892.0,15068.0,-159.0,3584.0,10465.0
2.77,-100.0,-7324.0,15312.0,563.0,3839.0,-25373.0
2.78,-304.0,-6592.0,15612.0,696.0,4350.0,-12058.0
2.79,-924.0,-6560.0,15344.0,814.0,3836.0,25830.0
2.8,-664.0,-6724.0,15592.0,1453.0,3325.0,26853.0
2.81,-564.0,-6856.0,15244.0,2294.0,3069.0,-13083.0
2.82,-976.0,-6060.0,15936.0,2604.0,3068.0,12520.0
2.83,-1028.0,-5692.0,15892.0,2624.0,2299.0,-791.0
2.84,-652.0,-6232.0,15752.0,2700.0,2045.0,29927.0
2.85,-56.0,-5824.0,16524.0,2812.0,2047.0,-14103.0
2.86,436.0,-3496.0,15416.0,2178.0,3329.0,-19214.0
2.87,148.0,-6592.0,15064.0,2621.0,3072.0,-27418.0
2.88,1676.0,-5764.0,15000.0,2746.0,1542.0,-29463.0
2.89,-108.0,-5272.0,16592.0,2248.0,2303.0,-27413.0
2.9,-4.0,-3960.0,16700.0,1415.0,2815.0,-784.0
2.91,176.0,-5480.0,16444.0,946.0,3584.0,-20246.0
2.92,740.0,-5444.0,16472.0,883.0,3842.0,-6934.0
2.93,736.0,-6080.0,18704.0,1178.0,4610.0,-7960.0
2.94,-1300.0,-4204.0,16948.0,706.0,4858.0,-4881.0
2.95,-576.0,-5100.0,15656.0,967.0,5373.0,-16148.0
2.96,228.0,-2568.0,15488.0,1127.0,3328.0,-6923.0
2.97,-1656.0,-2552.0,16540.0,-176.0,3833.0,-30474.0
2.98,4.0,-3184.0,16264.0,-766.0,3072.0,1267.0
2.99,48.0,-3996.0,16592.0,-887.0,3072.0,12528.0
3.0,-388.0,-4704.0,16948.0,-793.0,3582.0,31981.0
3.01,-592.0,-4548.0,16948.0,-370.0,3837.0,-20242.0
3.02,-1052.0,-4144.0,16824.0,-320.0,4347.0,-6929.0
3.03,-1464.0,-3880.0,16736.0,-516.0,4602.0,18672.0
3.04,-2156.0,-4352.0,16692.0,-642.0,4599.0,-27409.0
3.05,-2152.0,-4528.0,17004.0,-423.0,4087.0,-26386.0
3.06,-1952.0,-4624.0,17420.0,-29.0,3320.0,24813.0
3.07,-1460.0,-4460.0,17580.0,437.0,2810.0,19694.0
3.08,-1028.0,-4332.0,17396.0,787.0,2811.0,-785.0
3.09,-912.0,-3460.0,17172.0,890.0,3068.0,28914.0
3.1,-1268.0,-2812.0,16784.0,690.0,3323.0,3317.0
3.11,-1000.0,-616.0,15804.0,-236.0,4348.0,6397.0
3.12,-1884.0,-1860.0,16432.0,-1240.0,4088.0,-23304.0
3.13,-2368.0,-2004.0,16692.0,199.0,3830.0,-16136.0
3.14,-3128.0,-3504.0,15780.0,-385.0,3571.0,-14094.0
3.15,-2740.0,-2728.0,16372.0,-406.0,2549.0,19701.0
3.16,-2664.0,-3112.0,16488.0,-179.0,1781.0,-26381.0
3.17,-1996.0,-3288.0,16512.0,-212.0,1272.0,13555.0
3.18,-1376.0,-3032.0,16348.0,-165.0,1274.0,-24332.0
3.19,-1272.0,-2972.0,16184.0,-118.0,1531.0,2292.0
3.2,-984.0,-2368.0,15816.0,-322.0,2300.0,10486.0
3.21,-1752.0,-2184.0,15868.0,-743.0,2553.0,10487.0
3.22,-2356.0,-2672.0,16132.0,-1188.0,2550.0,-13067.0
3.23,-2548.0,-3200.0,16732.0,-1356.0,2550.0,3315.0
3.24,-2684.0,-4108.0,17132.0,-1176.0,2293.0,-31505.0
3.25,-2332.0,-5340.0,17448.0,-752.0,2550.0,-6933.0
3.26,-2696.0,-5876.0,17640.0,193.0,2805.0,30953.0
3.27,-2892.0,-5692.0,17668.0,1151.0,3060.0,-19223.0
3.28,-3064.0,-4716.0,17372.0,1623.0,2548.0,2285.0
3.29,-3708.0,-3972.0,17168.0,1808.0,2033.0,-31504.0
3.3,-3824.0,-3100.0,17080.0,1657.0,1521.0,4339.0
3.31,-3416.0,-1412.0,17804.0,1006.0,-1038.0,-22278.0
3.32,-7464.0,8844.0,24552.0,-1577.0,-286.0,-10206.0
3.33,-4796.0,-2192.0,19396.0,1716.0,-1043.0,17655.0
3.34,-4120.0,-4228.0,16920.0,1000.0,239.0,-5905.0
3.35,-1724.0,-1900.0,16972.0,-600.0,-775.0,17656.0
3.36,-2252.0,-2584.0,17712.0,-808.0,-9.0,13557.0
3.37,-2432.0,-2612.0,20000.0,-29.0,758.0,-32523.0
3.38,-2156.0,-4432.0,17680.0,574.0,759.0,-27410.0
3.39,-1836.0,-4768.0,17212.0,1075.0,1272.0,-11027.0
3.4,-1944.0,-4340.0,17036.0,1220.0,1528.0,26863.0
3.41,-2868.0,-2692.0,17180.0,870.0,2036.0,-13067.0
3.42,-3444.0,-2384.0,17332.0,773.0,2290.0,-29450.0
3.43,-3980.0,-3568.0,16416.0,987.0,2288.0,29938.0
3.44,-4600.0,-2816.0,16012.0,786.0,2030.0,2293.0
3.45,-5524.0,-2804.0,16020.0,550.0,1770.0,27893.0
3.46,-6076.0,-3208.0,15968.0,691.0,1000.0,17651.0
3.47,-5760.0,-3552.0,16084.0,1417.0,-535.0,-32526.0
3.48,-5380.0,-3244.0,15796.0,1595.0,-1558.0,-781.0
3.49,-4832.0,-1336.0,16016.0,1579.0,-2323.0,8442.0
3.5,-4168.0,-1728.0,15940.0,1210.0,-2833.0,-18183.0
3.51,-3148.0,-996.0,15764.0,779.0,-2061.0,-19204.0
3.52,-3032.0,-1560.0,15944.0,620.0,-2316.0,10489.0
3.53,-2568.0,-2164.0,15168.0,744.0,-1803.0,-1801.0
3.54,-2440.0,-760.0,15736.0,911.0,-1034.0,30973.0
3.55,-3300.0,-108.0,16452.0,935.0,-1805.0,7423.0
3.56,-3140.0,-720.0,15764.0,674.0,-2061.0,-17155.0
3.57,-2144.0,-1116.0,15732.0,639.0,-2057.0,-24325.0
3.58,-2244.0,-776.0,16348.0,303.0,-1801.0,15612.0
3.59,-2192.0,-1240.0,15984.0,91.0,-1545.0,28923.0
3.6,-2460.0,-1332.0,15592.0,-1.0,-1290.0,25850.0
3.61,-3292.0,-296.0,16240.0,-309.0,-1293.0,9470.0
3.62,-3428.0,-1512.0,16296.0,-615.0,-2318.0,-25350.0
3.63,-2276.0,-1488.0,16316.0,-493.0,-2313.0,7418.0
3.64,-1176.0,-2732.0,15976.0,-545.0,-2309.0,26869.0
3.65,-944.0,-2012.0,16808.0,-434.0,-1796.0,20728.0
3.66,-648.0,-1280.0,16996.0,-201.0,-1283.0,30971.0
3.67,-204.0,-832.0,17192.0,-123.0,-513.0,13564.0
3.68,-356.0,-1164.0,16984.0,-339.0,-514.0,-25349.0
3.69,-668.0,-1248.0,16908.0,-546.0,-259.0,25851.0
3.7,-660.0,-1568.0,17140.0,-623.0,253.0,27897.0
3.71,-1032.0,-1360.0,17032.0,-656.0,507.0,-1798.0
3.72,-984.0,-1312.0,17084.0,-563.0,764.0,10490.0
3.73,-1668.0,-1120.0,17084.0,-569.0,505.0,31995.0
3.74,-1740.0,-1228.0,17192.0,-488.0,249.0,13563.0
3.75,-944.0,-1512.0,17080.0,-499.0,-260.0,20730.0
3.76,-216.0,-1908.0,17140.0,-352.0,-1.0,10488.0
3.77,-12.0,-1756.0,17416.0,-184.0,255.0,-2823.0
3.78,-144.0,-1372.0,17108.0,-234.0,511.0,28922.0
3.79,-204.0,-1196.0,17232.0,-408.0,511.0,13563.0
3.8,-60.0,-1604.0,17480.0,-390.0,511.0,-15111.0
3.81,-144.0,-1824.0,17408.0,-333.0,511.0,28920.0
3.82,-184.0,-1944.0,17404.0,-280.0,511.0,18680.0
3.83,-200.0,-2028.0,17248.0,-222.0,511.0,14584.0
3.84,-340.0,-1956.0,17508.0,-159.0,510.0,-21256.0
3.85,-516.0,-2264.0,17268.0,-22.0,253.0,-777.0
3.86,-772.0,-2264.0,17384.0,136.0,-4.0,-777.0
3.87,-484.0,-1896.0,17312.0,125.0,-514.0,7416.0
3.88,128.0,-1912.0,17340.0,21.0,-512.0,-32520.0
3.89,284.0,-1800.0,17096.0,-135.0,-255.0,7416.0
3.9,204.0,-1900.0,17096.0,-258.0,0.0,-13064.0
3.91,4.0,-2108.0,17060.0,-203.0,0.0,1271.0
3.92,-144.0,-2164.0,16964.0,-95.0,-1.0,28919.0
3.93,-100.0,-2100.0,16884.0,-83.0,-1.0,-25353.0
3.94,164.0,-1816.0,16728.0,-74.0,-256.0,-23304.0
3.95,-64.0,-1912.0,16924.0,-83.0,-1.0,-16136.0
3.96,-168.0,-1824.0,16992.0,-146.0,-1.0,22776.0
3.97,40.0,-1792.0,16860.0,-186.0,-256.0,10489.0
3.98,-144.0,-1608.0,16788.0,-306.0,-1.0,28921.0
3.99,-108.0,-1724.0,16780.0,-401.0,-1.0,-27399.0
3.99,-108.0,-1724.0,16780.0,-401.0,-1.0,-27399.0
3.99,-108.0,-1724.0,16780.0,-401.0,-1.0,-27399.0
3.99,-108.0,-1724.0,16780.0,-401.0,-1.0,-27399.0
3.99,-108.0,-1724.0,16780.0,-401.0,-1.0,-27399.0
3.99,-108.0,-1724.0,16780.0,-401.0,-1.0,-27399.0
3.99,-108.0,-1724.0,16780.0,-401.0,-1.0,-27399.0
3.99,-108.0,-1724.0,16780.0,-401.0,-1.0,-27399.0
3.99,-108.0,-1724.0,16780.0,-401.0,-1.0,-27399.0
3.99,-108.0,-1724.0,16780.0,-401.0,-1.0,-27399.0
3.99,-108.0,-1724.0,16780.0,-401.0,-1.0,-27399.0
3.99,-108.0,-1724.0,16780.0,-401.0,-1.0,-27399.0
3.99,-108.0,-1724.0,16780.0,-401.0,-1.0,-27399.0
3.99,-108.0,-1724.0,16780.0,-401.0,-1.0,-27399.0
3.99,-108.0,-1724.0,16780.0,-401.0,-1.0,-27399.0
3.99,-108.0,-1724.0,16780.0,-401.0,-1.0,-27399.0
3.99,-108.0,-1724.0,16780.0,-401.0,-1.0,-27399.0
3.99,-108.0,-1724.0,16780.0,-401.0,-1.0,-27399.0
3.99,-108.0,-1724.0,16780.0,-401.0,-1.0,-27399.0
3.99,-108.0,-1724.0,16780.0,-401.0,-1.0,-27399.0
3.99,-108.0,-1724.0,16780.0,-401.0,-1.0,-27399.0
3.99,-108.0,-1724.0,16780.0,-401.0,-1.0,-27399.0
3.99,-108.0,-1724.0,16780.0,-401.0,-1.0,-27399.0
3.99,-108.0,-1724.0,16780.0,-401.0,-1.0,-27399.0
3.99,-108.0,-1724.0,16780.0,-401.0,-1.0,-27399.0
3.99,-108.0,-1724.0,16780.0,-401.0,-1.0,-27399.0
3.99,-108.0,-1724.0,16780.0,-401.0,-1.0,-27399.0
3.99,-108.0,-1724.0,16780.0,-401.0,-1.0,-27399.0
3.99,-108.0,-1724.0,16780.0,-401.0,-1.0,-27399.0
3.99,-108.0,-1724.0,16780.0,-401.0,-1.0,-27399.0
3.99,-108.0,-1724.0,16780.0,-401.0,-1.0,-27399.0
3.99,-108.0,-1724.0,16780.0,-401.0,-1.0,-27399.0
3.99,-108.0,-1724.0,16780.0,-401.0,-1.0,-27399.0
3.99,-108.0,-1724.0,16780.0,-401.0,-1.0,-27399.0
3.99,-108.0,-1724.0,16780.0,-401.0,-1.0,-27399.0
3.99,-108.0,-1724.0,16780.0,-401.0,-1.0,-27399.0
3.99,-108.0,-1724.0,16780.0,-401.0,-1.0,-27399.0
3.99,-108.0,-1724.0,16780.0,-401.0,-1.0,-27399.0
3.99,-108.0,-1724.0,16780.0,-401.0,-1.0,-27399.0
3.99,-108.0,-1724.0,16780.0,-401.0,-1.0,-27399.0
3.99,-108.0,-1724.0,16780.0,-401.0,-1.0,-27399.0
3.99,-108.0,-1724.0,16780.0,-401.0,-1.0,-27399.0
3.99,-108.0,-1724.0,16780.0,-401.0,-1.0,-27399.0
3.99,-108.0,-1724.0,16780.0,-401.0,-1.0,-27399.0
3.99,-108.0,-1724.0,16780.0,-401.0,-1.0,-27399.0
3.99,-108.0,-1724.0,16780.0,-401.0,-1.0,-27399.0
3.99,-108.0,-1724.0,16780.0,-401.0,-1.0,-27399.0
3.99,-108.0,-1724.0,16780.0,-401.0,-1.0,-27399.0
3.99,-108.0,-1724.0,16780.0,-401.0,-1.0,-27399.0
3.99,-108.0,-1724.0,16780.0,-401.0,-1.0,-27399.0
3.99,-108.0,-1724.0,16780.0,-401.0,-1.0,-27399.0
