Time,acce_x,acce_y,acce_z,gyro_x,gyro_y, gyro_z
0.000,0.195,-0.246,0.846,-1.649,2.076,0.611
0.000,0.196,-0.246,0.854,-2.015,1.634,0.748
0.010,0.204,-0.238,0.841,-2.305,1.237,0.366
0.010,0.208,-0.241,0.864,-2.336,0.947,0.260
0.010,0.208,-0.244,0.860,-2.458,0.504,0.168
0.020,0.206,-0.242,0.859,-2.473,0.015,-0.015
0.020,0.208,-0.245,0.865,-2.260,-0.122,0.015
0.020,0.207,-0.245,0.865,-2.092,-0.427,-0.229
0.030,0.201,-0.244,0.858,-2.168,-0.443,-0.336
0.030,0.201,-0.246,0.855,-2.092,-0.229,-0.443
0.030,0.190,-0.241,0.863,-1.664,-0.550,-0.351
0.040,0.190,-0.243,0.861,-1.664,-0.397,-0.153
0.040,0.197,-0.248,0.869,-1.191,-0.183,-0.443
0.040,0.196,-0.245,0.871,-0.672,-0.092,-0.336
0.050,0.195,-0.247,0.873,-0.550,-0.687,-0.626
0.050,0.201,-0.237,0.866,-0.748,-1.496,-0.855
0.060,0.195,-0.244,0.863,-1.160,-1.802,-0.870
0.060,0.198,-0.242,0.867,-1.191,-1.969,-0.763
0.060,0.195,-0.246,0.871,-1.069,-1.191,-0.489
0.070,0.196,-0.244,0.878,-1.206,-0.794,-0.382
0.070,0.196,-0.252,0.869,-1.206,-0.137,-0.153
0.080,0.206,-0.246,0.867,-1.069,0.550,-0.046
0.080,0.197,-0.256,0.878,-0.855,1.237,-0.015
0.080,0.199,-0.253,0.882,-0.351,1.634,-0.031
0.090,0.199,-0.251,0.886,0.336,2.321,-0.107
0.090,0.188,-0.250,0.879,0.473,2.076,0.198
0.100,0.187,-0.246,0.866,0.534,1.618,0.305
0.100,0.198,-0.248,0.864,0.565,2.046,0.473
0.100,0.206,-0.244,0.852,0.763,2.305,0.412
0.110,0.196,-0.241,0.850,0.885,2.229,0.489
0.110,0.193,-0.238,0.844,0.321,2.214,0.519
0.110,0.194,-0.235,0.826,-0.351,2.092,0.427
0.120,0.196,-0.234,0.833,-0.718,2.504,0.458
0.120,0.199,-0.239,0.832,-1.023,2.779,0.641
0.130,0.198,-0.237,0.830,-1.313,2.779,0.489
0.130,0.189,-0.231,0.831,-1.511,2.840,0.641
0.130,0.187,-0.231,0.830,-1.893,2.519,0.916
0.140,0.181,-0.237,0.831,-1.924,2.489,0.809
0.140,0.185,-0.235,0.827,-2.031,2.000,0.947
0.150,0.189,-0.236,0.842,-2.427,1.435,0.748
0.150,0.192,-0.231,0.852,-2.672,1.328,0.901
0.150,0.193,-0.240,0.852,-2.748,0.763,0.870
0.160,0.197,-0.239,0.843,-3.069,-0.107,0.397
0.160,0.204,-0.235,0.844,-3.466,-0.855,0.046
0.170,0.203,-0.241,0.856,-3.634,-1.557,-0.061
0.170,0.202,-0.240,0.857,-3.496,-1.725,-0.015
0.170,0.199,-0.243,0.861,-3.267,-1.725,0.137
0.180,0.200,-0.245,0.877,-2.885,-1.191,0.092
0.180,0.202,-0.244,0.865,-2.443,-0.687,0.198
0.190,0.196,-0.247,0.872,-2.122,-0.687,0.214
0.190,0.200,-0.249,0.877,-1.817,-0.916,0.244
0.190,0.200,-0.249,0.874,-1.115,-0.137,0.168
0.200,0.203,-0.250,0.870,-0.702,0.382,-0.015
0.200,0.194,-0.252,0.868,-0.824,0.443,0.137
0.210,0.193,-0.242,0.856,-0.916,0.244,-0.061
0.210,0.195,-0.241,0.850,-0.840,0.305,0.153
0.210,0.192,-0.233,0.857,-1.298,-0.046,0.031
0.220,0.193,-0.240,0.839,-1.740,-0.351,0.153
0.220,0.191,-0.243,0.845,-1.969,-0.611,0.198
0.230,0.198,-0.244,0.845,-2.275,-1.084,0.321
0.230,0.194,-0.242,0.854,-2.260,-1.160,0.305
0.230,0.203,-0.242,0.852,-2.626,-0.733,0.321
0.240,0.198,-0.245,0.855,-2.382,-0.351,0.336
0.240,0.196,-0.244,0.860,-2.580,-0.565,0.580
0.250,0.198,-0.243,0.868,-2.580,-0.336,0.504
0.250,0.206,-0.240,0.862,-2.458,-0.107,0.641
0.250,0.198,-0.245,0.868,-2.260,0.519,0.550
0.260,0.201,-0.243,0.859,-2.275,1.145,0.779
0.260,0.201,-0.246,0.874,-2.565,1.191,0.489
0.270,0.192,-0.246,0.872,-2.489,1.450,0.687
0.270,0.196,-0.244,0.868,-2.198,2.031,0.809
0.270,0.189,-0.244,0.865,-2.183,2.672,0.855
0.280,0.186,-0.247,0.867,-1.969,2.794,1.160
0.280,0.185,-0.246,0.855,-2.031,2.901,1.511
0.280,0.187,-0.237,0.849,-1.893,3.069,1.695
0.290,0.189,-0.235,0.857,-2.061,3.130,1.695
0.290,0.191,-0.234,0.857,-2.290,2.794,1.740
0.300,0.198,-0.237,0.854,-2.229,2.748,1.695
0.300,0.194,-0.240,0.853,-2.336,2.092,1.420
0.300,0.196,-0.245,0.866,-2.519,1.466,1.618
0.310,0.194,-0.245,0.865,-2.672,1.008,1.237
0.310,0.199,-0.240,0.868,-2.534,0.779,1.359
0.320,0.203,-0.243,0.861,-1.969,1.008,1.237
0.320,0.196,-0.245,0.880,-1.985,0.748,1.130
0.320,0.200,-0.249,0.870,-1.573,-0.015,0.855
0.330,0.199,-0.251,0.875,-1.450,-0.427,0.489
0.330,0.195,-0.254,0.870,-1.130,-1.374,0.473
0.340,0.195,-0.250,0.879,-0.855,-1.802,0.351
0.340,0.190,-0.250,0.884,-0.107,-1.496,0.504
0.340,0.178,-0.252,0.873,0.260,-1.267,0.794
0.350,0.174,-0.249,0.871,0.611,-1.252,1.069
0.350,0.172,-0.250,0.854,0.611,-1.298,1.313
0.360,0.182,-0.252,0.848,0.626,-1.130,1.405
0.360,0.182,-0.245,0.837,0.137,-1.130,1.450
0.360,0.171,-0.248,0.844,-0.153,-0.947,1.695
0.370,0.169,-0.243,0.844,-0.412,-1.023,1.908
0.370,0.170,-0.243,0.849,-0.779,-1.160,2.214
0.380,0.176,-0.241,0.848,-1.130,-1.252,2.473
0.380,0.180,-0.239,0.850,-1.527,-1.420,2.397
0.380,0.178,-0.242,0.869,-1.496,-1.298,2.519
0.390,0.170,-0.245,0.868,-1.664,-1.511,2.397
0.390,0.167,-0.248,0.866,-1.603,-2.031,2.489
0.400,0.160,-0.251,0.854,-1.771,-2.458,2.275
0.400,0.154,-0.247,0.873,-1.725,-3.008,2.641
0.400,0.148,-0.251,0.876,-1.298,-3.008,3.160
0.410,0.141,-0.256,0.875,-1.191,-3.298,3.908
0.410,0.142,-0.255,0.880,-0.916,-3.008,4.427
0.420,0.143,-0.260,0.881,-0.824,-2.473,4.916
0.420,0.146,-0.263,0.893,-0.489,-1.985,5.191
0.420,0.136,-0.260,0.881,-0.611,-1.588,5.221
0.430,0.123,-0.263,0.900,-0.382,-1.985,5.557
0.430,0.116,-0.279,0.904,-0.122,-2.321,6.122
0.440,0.103,-0.275,0.911,0.626,-2.840,6.779
0.440,0.097,-0.273,0.917,1.237,-2.962,7.603
0.440,0.090,-0.282,0.921,2.061,-3.084,8.641
0.450,0.091,-0.284,0.923,2.794,-3.298,9.542
0.450,0.091,-0.274,0.921,3.573,-3.756,10.305
0.450,0.090,-0.271,0.925,4.229,-3.924,11.344
0.460,0.089,-0.279,0.917,4.855,-4.229,12.122
0.460,0.091,-0.272,0.918,5.527,-4.504,12.809
0.470,0.085,-0.280,0.912,6.275,-5.008,13.588
0.470,0.088,-0.270,0.914,6.794,-5.878,14.107
0.470,0.081,-0.270,0.914,7.282,-6.504,14.977
0.480,0.082,-0.271,0.916,7.878,-7.344,15.771
0.480,0.081,-0.274,0.894,7.954,-7.557,16.473
0.490,0.075,-0.269,0.908,8.519,-8.137,17.420
0.490,0.069,-0.263,0.900,8.443,-8.595,18.229
0.490,0.077,-0.268,0.896,8.519,-9.267,18.916
0.500,0.074,-0.263,0.898,8.687,-9.603,19.634
0.500,0.078,-0.263,0.905,8.672,-10.672,20.305
0.510,0.064,-0.272,0.905,8.794,-11.557,21.160
0.510,0.060,-0.263,0.910,8.947,-12.855,22.137
0.520,0.055,-0.271,0.901,9.038,-13.878,23.084
0.520,0.053,-0.266,0.918,9.298,-14.397,24.107
0.520,0.058,-0.272,0.915,9.969,-14.626,25.069
0.530,0.054,-0.273,0.913,9.969,-14.595,26.489
0.530,0.051,-0.268,0.917,10.397,-14.580,27.634
0.540,0.065,-0.264,0.927,10.855,-14.107,28.901
0.540,0.069,-0.273,0.925,11.405,-12.962,30.153
0.540,0.067,-0.271,0.917,11.847,-11.908,31.298
0.550,0.066,-0.269,0.933,12.473,-10.641,32.321
0.550,0.063,-0.269,0.940,12.748,-9.450,33.420
0.560,0.062,-0.274,0.949,13.954,-8.641,34.702
0.560,0.046,-0.269,0.954,14.473,-7.802,35.939
0.560,0.058,-0.271,0.950,15.130,-7.191,37.130
0.570,0.059,-0.272,0.948,15.527,-7.191,37.893
0.570,0.060,-0.263,0.943,15.206,-6.076,39.389
0.580,0.066,-0.262,0.962,16.076,-4.275,39.756
0.580,0.045,-0.271,0.963,17.313,-3.863,40.992
0.580,0.024,-0.270,0.949,17.710,-5.130,41.985
0.590,0.031,-0.275,0.940,18.382,-5.344,43.282
0.590,0.016,-0.278,0.951,19.237,-4.687,44.672
0.600,0.009,-0.280,0.970,20.168,-4.931,46.580
0.600,-0.003,-0.270,0.960,20.382,-5.267,48.305
0.610,-0.005,-0.279,0.961,20.809,-5.786,49.908
0.610,-0.000,-0.279,0.957,21.130,-6.321,51.023
0.610,-0.006,-0.283,0.949,21.832,-6.931,52.489
0.620,-0.020,-0.279,0.943,22.107,-8.031,53.664
0.620,-0.035,-0.283,0.950,22.015,-9.679,55.542
0.630,-0.042,-0.281,0.955,22.244,-10.947,57.252
0.630,-0.047,-0.287,0.955,22.855,-12.550,59.145
0.630,-0.057,-0.282,0.946,23.023,-15.069,61.206
0.640,-0.064,-0.280,0.958,23.267,-17.603,63.267
0.640,-0.081,-0.279,0.951,23.939,-20.168,65.252
0.650,-0.083,-0.293,0.943,24.244,-23.405,67.496
0.650,-0.083,-0.280,0.942,25.008,-26.366,69.603
0.660,-0.079,-0.286,0.946,25.603,-28.748,71.710
0.660,-0.090,-0.291,0.942,26.336,-31.527,74.382
0.660,-0.102,-0.291,0.936,26.779,-34.321,77.603
0.670,-0.126,-0.301,0.921,26.931,-35.542,81.481
0.670,-0.105,-0.295,0.938,27.756,-36.229,84.763
0.680,-0.065,-0.294,0.942,28.153,-36.656,86.672
0.680,-0.039,-0.294,0.929,28.779,-36.153,88.427
0.690,-0.029,-0.296,0.916,29.084,-35.450,89.725
0.690,-0.025,-0.299,0.906,29.237,-35.328,90.427
0.690,-0.017,-0.304,0.914,29.435,-35.176,91.206
0.700,-0.010,-0.300,0.921,30.092,-34.473,92.183
0.700,-0.024,-0.303,0.925,30.931,-33.985,93.893
0.710,-0.035,-0.312,0.911,31.695,-33.832,95.588
0.710,-0.042,-0.308,0.911,31.924,-34.412,97.405
0.720,-0.041,-0.314,0.899,32.336,-34.366,98.244
0.720,-0.051,-0.314,0.885,33.038,-35.084,100.534
0.720,-0.054,-0.311,0.884,32.962,-36.397,102.412
0.730,-0.039,-0.312,0.874,32.534,-37.527,103.527
0.730,-0.026,-0.315,0.862,31.893,-38.183,104.718
0.740,-0.023,-0.314,0.871,31.939,-38.748,105.786
0.740,-0.024,-0.315,0.875,31.771,-40.366,106.794
0.750,-0.020,-0.316,0.877,31.710,-41.344,107.954
0.750,-0.009,-0.320,0.873,31.542,-42.198,109.160
0.750,-0.008,-0.324,0.882,32.000,-42.947,110.336
0.760,-0.013,-0.321,0.862,32.504,-43.786,111.435
0.760,-0.018,-0.323,0.868,32.397,-45.206,113.176
0.770,-0.015,-0.334,0.866,32.885,-46.153,114.748
0.770,-0.008,-0.333,0.872,33.664,-47.053,116.260
0.780,0.001,-0.337,0.883,34.748,-48.641,117.771
0.780,-0.005,-0.339,0.876,35.176,-50.519,119.160
0.780,0.010,-0.341,0.878,35.832,-51.893,120.565
0.790,0.024,-0.346,0.866,36.397,-53.237,121.206
0.790,0.045,-0.349,0.868,36.870,-54.580,122.031
0.800,0.051,-0.351,0.872,37.893,-55.817,122.565
0.800,0.056,-0.350,0.858,38.473,-56.305,123.267
0.810,0.063,-0.343,0.838,38.443,-57.176,124.076
0.810,0.078,-0.344,0.833,37.924,-57.176,125.359
0.810,0.079,-0.344,0.832,37.725,-55.908,126.366
0.820,0.076,-0.350,0.842,37.954,-54.412,128.305
0.820,0.068,-0.352,0.821,38.061,-53.023,130.275
0.830,0.072,-0.356,0.810,37.863,-51.679,132.153
0.830,0.078,-0.361,0.809,36.687,-50.901,133.863
0.840,0.100,-0.365,0.811,36.824,-48.885,135.573
0.840,0.097,-0.368,0.822,37.847,-46.962,137.573
0.840,0.098,-0.375,0.812,38.397,-45.481,138.840
0.850,0.112,-0.380,0.824,39.191,-44.489,140.244
0.850,0.125,-0.378,0.819,39.588,-44.092,141.267
0.860,0.148,-0.374,0.803,40.198,-43.756,141.679
0.860,0.149,-0.381,0.804,40.641,-43.969,141.985
0.870,0.159,-0.376,0.787,41.008,-45.069,142.458
0.870,0.163,-0.374,0.778,41.069,-46.901,142.565
0.870,0.168,-0.384,0.771,41.359,-48.855,142.702
0.880,0.180,-0.372,0.769,41.511,-51.389,143.328
0.880,0.192,-0.368,0.763,41.573,-52.656,144.550
0.890,0.198,-0.365,0.745,41.252,-52.992,145.832
0.890,0.203,-0.366,0.725,40.412,-52.641,147.313
0.900,0.235,-0.374,0.732,39.328,-51.206,148.611
0.900,0.252,-0.371,0.742,38.412,-49.450,149.344
0.900,0.272,-0.372,0.744,37.802,-45.985,149.863
0.910,0.275,-0.385,0.758,37.008,-42.840,150.885
0.910,0.274,-0.387,0.752,35.939,-39.588,152.046
0.920,0.287,-0.391,0.780,35.740,-35.924,153.130
0.920,0.299,-0.398,0.795,36.107,-32.550,154.076
0.930,0.319,-0.397,0.798,36.809,-29.634,154.611
0.930,0.325,-0.404,0.805,37.527,-27.053,154.687
0.930,0.330,-0.405,0.818,38.672,-25.969,154.901
0.940,0.324,-0.409,0.832,40.779,-25.588,154.962
0.940,0.320,-0.403,0.818,42.977,-25.527,155.221
0.950,0.333,-0.403,0.807,43.725,-25.588,154.885
0.950,0.348,-0.399,0.788,44.397,-26.260,154.183
0.950,0.357,-0.398,0.785,45.435,-25.847,153.435
0.960,0.351,-0.393,0.775,45.725,-25.664,153.038
0.960,0.366,-0.387,0.758,45.328,-25.313,152.534
0.970,0.373,-0.381,0.752,44.840,-24.137,151.847
0.970,0.354,-0.387,0.757,45.038,-24.061,151.924
0.980,0.347,-0.385,0.747,44.458,-25.053,152.458
0.980,0.360,-0.379,0.740,43.206,-24.824,153.053
0.980,0.359,-0.374,0.729,42.397,-24.046,153.344
0.990,0.375,-0.380,0.725,41.481,-24.000,153.756
0.990,0.371,-0.383,0.730,41.038,-24.855,153.969
1.000,0.389,-0.389,0.758,40.687,-25.206,154.046
1.000,0.413,-0.385,0.750,40.336,-23.786,153.466
1.010,0.411,-0.391,0.746,40.061,-22.076,152.992
1.010,0.402,-0.392,0.756,40.061,-21.466,152.809
1.010,0.404,-0.391,0.771,40.275,-20.977,152.519
1.020,0.400,-0.391,0.765,41.191,-20.244,152.534
1.020,0.407,-0.389,0.776,41.969,-20.992,152.321
1.030,0.418,-0.385,0.762,42.733,-21.542,151.679
1.030,0.436,-0.382,0.757,42.580,-22.412,150.473
1.040,0.425,-0.381,0.743,42.137,-23.405,150.229
1.040,0.410,-0.390,0.738,42.748,-25.588,149.618
1.040,0.418,-0.388,0.747,42.763,-29.206,148.901
1.050,0.438,-0.385,0.736,42.412,-31.374,148.015
1.050,0.453,-0.384,0.721,42.046,-32.305,147.206
1.060,0.458,-0.380,0.727,41.359,-34.229,146.275
1.060,0.465,-0.387,0.734,40.595,-34.901,145.496
1.070,0.449,-0.392,0.748,40.504,-34.534,145.435
1.070,0.448,-0.387,0.763,40.855,-34.733,145.557
1.070,0.457,-0.392,0.768,41.573,-34.550,145.878
1.080,0.477,-0.383,0.762,42.626,-33.176,145.634
1.080,0.504,-0.377,0.750,42.748,-30.351,145.237
1.090,0.522,-0.376,0.743,42.229,-26.809,144.275
1.090,0.533,-0.374,0.748,42.198,-23.450,143.130
1.100,0.528,-0.360,0.749,41.817,-21.053,142.183
1.100,0.536,-0.356,0.731,41.557,-17.725,141.130
1.100,0.539,-0.342,0.718,40.931,-14.870,140.427
1.110,0.538,-0.325,0.699,39.618,-13.130,139.985
1.110,0.520,-0.318,0.686,37.695,-12.412,139.344
1.120,0.512,-0.323,0.671,35.939,-11.130,139.053
1.120,0.506,-0.324,0.666,34.076,-9.863,138.870
1.120,0.497,-0.332,0.674,32.565,-8.901,138.870
1.130,0.503,-0.333,0.677,31.466,-8.427,138.489
1.130,0.506,-0.335,0.694,30.214,-7.832,137.557
1.140,0.502,-0.342,0.701,29.252,-7.985,137.115
1.140,0.489,-0.340,0.705,28.427,-8.855,136.366
1.150,0.485,-0.346,0.709,28.000,-10.031,135.893
1.150,0.496,-0.349,0.718,28.275,-11.313,134.718
1.150,0.507,-0.342,0.710,28.504,-12.550,133.160
1.160,0.516,-0.326,0.701,27.649,-12.885,131.420
1.160,0.522,-0.323,0.691,26.489,-11.893,129.725
1.170,0.526,-0.311,0.698,25.359,-11.359,128.382
1.170,0.506,-0.311,0.688,25.160,-11.084,127.389
1.180,0.507,-0.307,0.685,24.305,-9.313,126.855
1.180,0.512,-0.295,0.671,22.977,-6.519,125.847
1.180,0.524,-0.290,0.650,20.580,-3.435,124.137
1.190,0.523,-0.292,0.653,18.519,-1.435,122.565
1.190,0.509,-0.285,0.663,16.489,0.580,121.160
1.200,0.487,-0.286,0.679,15.313,2.870,120.290
1.200,0.477,-0.291,0.681,13.954,4.763,119.786
1.200,0.460,-0.300,0.696,12.611,5.191,119.145
1.210,0.440,-0.291,0.701,11.893,3.908,118.626
1.210,0.434,-0.302,0.702,11.206,3.328,118.595
1.220,0.432,-0.302,0.708,9.832,2.000,117.802
1.220,0.432,-0.302,0.706,7.969,-0.107,116.641
1.220,0.417,-0.311,0.737,6.229,-3.267,115.710
1.230,0.415,-0.318,0.754,6.656,-5.939,115.374
1.230,0.413,-0.325,0.780,6.702,-8.763,114.748
1.240,0.408,-0.323,0.783,6.824,-12.779,113.817
1.240,0.416,-0.325,0.775,6.641,-14.962,112.992
1.250,0.420,-0.324,0.781,6.504,-16.962,112.534
1.250,0.437,-0.314,0.785,6.153,-17.221,112.122
1.250,0.451,-0.313,0.773,5.908,-17.282,111.603
1.260,0.465,-0.310,0.786,6.015,-16.794,110.427
1.260,0.484,-0.302,0.789,5.603,-15.878,109.176
1.270,0.514,-0.306,0.791,5.466,-14.962,107.298
1.270,0.543,-0.306,0.803,5.023,-12.580,104.275
1.270,0.550,-0.299,0.798,4.198,-8.992,100.794
1.280,0.546,-0.296,0.801,3.618,-6.931,98.260
1.280,0.532,-0.300,0.804,3.496,-4.031,95.725
1.290,0.523,-0.307,0.817,3.176,-1.099,93.160
1.290,0.517,-0.303,0.833,3.176,0.718,91.237
1.290,0.499,-0.314,0.841,4.305,0.183,89.557
1.300,0.468,-0.316,0.825,4.580,-0.427,88.351
1.300,0.442,-0.322,0.838,4.244,-1.435,88.076
1.310,0.410,-0.324,0.846,4.611,-3.313,87.893
1.310,0.422,-0.329,0.875,5.191,-6.321,87.618
1.310,0.433,-0.331,0.873,6.321,-8.672,86.824
1.320,0.435,-0.327,0.887,6.870,-10.321,86.107
1.320,0.455,-0.330,0.911,6.931,-10.214,85.160
1.330,0.474,-0.338,0.933,9.863,-11.160,83.557
1.330,0.476,-0.337,0.931,12.351,-12.122,82.107
1.330,0.503,-0.328,0.930,14.611,-13.267,79.969
1.340,0.549,-0.315,0.916,16.198,-12.931,77.267
1.340,0.559,-0.312,0.907,17.664,-14.931,74.412
1.350,0.582,-0.313,0.900,18.137,-13.588,70.321
1.350,0.609,-0.295,0.883,19.389,-12.107,67.038
1.360,0.609,-0.296,0.870,19.740,-11.298,62.809
1.360,0.591,-0.285,0.856,19.298,-10.565,58.947
1.360,0.583,-0.279,0.852,18.748,-9.420,55.603
1.370,0.562,-0.287,0.833,18.275,-8.214,52.718
1.370,0.559,-0.287,0.827,17.725,-7.389,49.817
1.380,0.545,-0.275,0.825,17.603,-6.000,47.618
1.380,0.529,-0.279,0.831,17.313,-4.855,45.863
1.380,0.529,-0.276,0.824,16.565,-3.847,44.305
1.390,0.546,-0.273,0.843,15.771,-0.519,42.580
1.390,0.544,-0.285,0.860,17.099,2.397,40.840
1.400,0.526,-0.281,0.843,17.374,4.870,40.458
1.400,0.521,-0.273,0.823,16.565,7.481,40.534
1.400,0.542,-0.264,0.815,14.641,12.305,40.656
1.410,0.541,-0.255,0.812,11.053,19.130,41.511
1.410,0.621,-0.282,0.684,10.473,36.977,40.244
1.420,0.496,-0.273,0.846,11.313,27.359,37.985
1.420,0.505,-0.292,0.868,13.405,20.656,36.504
1.420,0.500,-0.273,0.847,15.313,16.458,35.527
1.430,0.535,-0.281,0.800,14.351,16.580,33.573
1.430,0.568,-0.260,0.780,13.191,20.733,31.954
1.440,0.522,-0.259,0.794,10.443,6.000,26.092
1.440,0.572,-0.254,0.773,9.527,0.931,22.855
1.440,0.594,-0.235,0.757,6.550,-3.511,19.664
1.450,0.632,-0.242,0.754,4.916,-1.389,16.214
1.450,0.637,-0.235,0.750,2.870,5.649,13.008
1.460,0.567,-0.245,0.754,2.305,6.305,9.634
1.460,0.549,-0.246,0.750,1.756,4.550,7.221
1.460,0.538,-0.240,0.749,-0.595,4.443,4.794
1.470,0.536,-0.226,0.768,-1.237,4.366,2.779
1.470,0.542,-0.219,0.776,-4.656,6.397,1.221
1.480,0.504,-0.221,0.773,-5.282,6.779,-0.321
1.480,0.472,-0.229,0.778,-5.893,6.489,-2.214
1.480,0.474,-0.239,0.776,-5.725,6.031,-4.244
1.490,0.458,-0.225,0.773,-6.351,6.870,-5.481
1.490,0.437,-0.222,0.759,-7.634,9.557,-6.214
1.500,0.415,-0.221,0.750,-8.031,11.893,-6.412
1.500,0.384,-0.226,0.754,-8.015,13.679,-6.366
1.500,0.379,-0.227,0.765,-8.611,15.145,-6.260
1.510,0.365,-0.225,0.751,-9.252,16.779,-6.122
1.510,0.350,-0.232,0.755,-9.924,18.565,-5.893
1.520,0.344,-0.231,0.762,-10.504,20.397,-5.710
1.520,0.346,-0.236,0.765,-10.794,21.817,-5.802
1.520,0.347,-0.231,0.761,-11.740,23.542,-6.443
1.530,0.355,-0.237,0.762,-11.710,24.702,-7.145
1.530,0.354,-0.237,0.773,-12.000,25.099,-8.137
1.540,0.358,-0.235,0.759,-12.611,24.992,-9.771
1.540,0.365,-0.229,0.755,-13.649,24.290,-11.725
1.550,0.363,-0.235,0.753,-15.511,24.840,-13.008
1.550,0.359,-0.241,0.760,-16.443,23.878,-14.336
1.550,0.365,-0.241,0.758,-17.863,23.496,-15.664
1.560,0.377,-0.245,0.772,-18.916,23.267,-17.466
1.560,0.386,-0.260,0.788,-19.603,23.908,-18.718
1.570,0.389,-0.264,0.797,-19.939,24.290,-20.168
1.570,0.380,-0.272,0.812,-20.336,24.214,-21.145
1.580,0.381,-0.279,0.823,-20.901,22.733,-22.351
1.580,0.405,-0.292,0.840,-21.176,21.435,-24.183
1.580,0.423,-0.293,0.857,-20.504,20.931,-26.061
1.590,0.427,-0.303,0.864,-20.290,19.176,-28.137
1.590,0.434,-0.317,0.875,-19.710,16.779,-30.321
1.600,0.437,-0.319,0.880,-18.702,13.267,-32.565
1.600,0.462,-0.329,0.895,-17.756,9.725,-35.298
1.610,0.488,-0.336,0.897,-16.580,6.687,-37.908
1.610,0.495,-0.336,0.895,-15.206,3.588,-40.229
1.610,0.502,-0.341,0.896,-14.183,-0.901,-42.870
1.620,0.527,-0.341,0.882,-13.282,-6.275,-45.985
1.620,0.550,-0.343,0.875,-12.351,-8.977,-48.702
1.630,0.566,-0.349,0.865,-11.664,-11.099,-51.374
1.630,0.579,-0.350,0.848,-11.588,-11.374,-54.214
1.630,0.601,-0.343,0.842,-11.710,-12.290,-57.145
1.640,0.623,-0.339,0.823,-12.504,-10.290,-60.336
1.640,0.646,-0.341,0.817,-13.115,-6.504,-63.344
1.650,0.661,-0.340,0.816,-13.802,-1.466,-66.122
1.650,0.678,-0.342,0.814,-14.412,4.519,-68.992
1.660,0.673,-0.354,0.798,-14.992,10.595,-72.214
1.660,0.667,-0.358,0.805,-15.405,15.038,-75.435
1.660,0.656,-0.356,0.793,-16.489,17.710,-78.427
1.670,0.673,-0.355,0.782,-17.450,21.023,-81.893
1.670,0.673,-0.353,0.784,-18.458,24.763,-85.557
1.680,0.675,-0.360,0.774,-19.573,26.977,-89.832
1.680,0.667,-0.359,0.759,-21.588,26.901,-94.061
1.690,0.671,-0.357,0.742,-23.496,27.313,-98.443
1.690,0.662,-0.347,0.718,-25.832,27.802,-102.916
1.690,0.640,-0.353,0.704,-28.321,26.046,-107.435
1.700,0.629,-0.364,0.714,-30.733,23.450,-112.046
1.700,0.614,-0.372,0.706,-32.901,21.985,-115.725
1.710,0.578,-0.385,0.715,-34.244,20.794,-118.611
1.710,0.549,-0.391,0.732,-35.511,19.053,-121.115
1.720,0.524,-0.405,0.740,-36.458,17.405,-123.221
1.720,0.507,-0.405,0.754,-37.038,15.954,-124.916
1.730,0.500,-0.413,0.759,-37.099,15.924,-126.397
1.730,0.479,-0.419,0.797,-36.290,15.603,-127.679
1.730,0.468,-0.418,0.811,-35.176,14.214,-128.718
1.740,0.475,-0.419,0.832,-34.412,13.405,-130.137
1.740,0.475,-0.406,0.827,-35.038,14.611,-131.282
1.750,0.518,-0.419,0.795,-33.786,18.351,-133.176
1.750,0.506,-0.416,0.815,-31.359,17.679,-136.183
1.760,0.501,-0.418,0.799,-29.206,18.153,-139.267
1.760,0.508,-0.408,0.764,-28.763,20.718,-141.832
1.760,0.499,-0.396,0.744,-29.969,22.977,-144.489
1.770,0.495,-0.394,0.726,-32.153,25.344,-146.427
1.770,0.490,-0.393,0.699,-34.595,30.290,-148.061
1.780,0.489,-0.397,0.687,-36.137,35.206,-149.908
1.780,0.485,-0.394,0.684,-38.183,39.557,-151.786
1.790,0.498,-0.386,0.674,-41.282,45.069,-154.046
1.790,0.490,-0.385,0.664,-44.992,49.115,-156.275
1.790,0.472,-0.388,0.662,-48.595,51.191,-158.443
1.800,0.469,-0.393,0.675,-52.168,51.405,-160.687
1.800,0.485,-0.390,0.675,-54.565,52.550,-162.947
1.810,0.488,-0.407,0.673,-57.115,53.160,-165.603
1.810,0.441,-0.422,0.711,-58.779,50.122,-167.389
1.820,0.384,-0.445,0.740,-58.183,44.229,-167.832
1.820,0.335,-0.469,0.799,-55.206,38.489,-166.962
1.820,0.311,-0.484,0.820,-51.344,33.053,-165.634
1.830,0.286,-0.487,0.814,-47.756,26.351,-163.466
1.830,0.266,-0.487,0.839,-44.504,19.664,-160.702
1.840,0.289,-0.484,0.821,-41.435,17.176,-158.244
1.840,0.305,-0.478,0.825,-38.122,16.809,-155.954
1.850,0.308,-0.476,0.826,-35.191,15.069,-153.954
1.850,0.324,-0.467,0.819,-33.130,14.382,-152.611
1.860,0.366,-0.462,0.800,-31.954,18.137,-152.107
1.860,0.403,-0.454,0.782,-31.939,25.511,-152.046
1.860,0.405,-0.448,0.765,-32.412,32.275,-152.412
1.870,0.418,-0.444,0.748,-33.634,40.214,-153.618
1.870,0.421,-0.432,0.702,-35.313,48.641,-155.115
1.880,0.411,-0.436,0.705,-37.725,54.580,-157.130
1.880,0.389,-0.435,0.699,-40.718,58.748,-159.130
1.890,0.380,-0.433,0.686,-43.802,63.084,-160.824
1.890,0.364,-0.436,0.673,-47.221,66.000,-162.336
1.890,0.328,-0.444,0.658,-51.038,66.931,-163.969
1.900,0.315,-0.434,0.653,-54.641,65.771,-165.344
1.900,0.302,-0.440,0.654,-58.931,63.603,-166.641
1.910,0.297,-0.448,0.650,-63.496,61.908,-167.252
1.910,0.292,-0.449,0.660,-67.542,61.176,-167.603
1.920,0.285,-0.461,0.677,-70.672,60.427,-166.885
1.920,0.283,-0.468,0.701,-73.282,60.779,-166.107
1.920,0.288,-0.482,0.727,-74.855,62.366,-165.038
1.930,0.305,-0.500,0.756,-74.794,66.382,-164.107
1.930,0.290,-0.518,0.797,-73.237,71.115,-163.176
1.940,0.234,-0.535,0.833,-70.580,72.412,-160.779
1.940,0.179,-0.543,0.873,-67.267,69.359,-157.237
1.950,0.118,-0.566,0.921,-62.290,66.504,-152.504
1.950,0.087,-0.565,0.939,-56.351,64.947,-146.031
1.960,0.065,-0.570,0.954,-50.260,66.168,-139.267
1.960,0.056,-0.568,0.944,-44.275,68.336,-132.168
1.960,0.051,-0.568,0.939,-38.244,70.153,-125.939
1.970,0.068,-0.562,0.920,-32.427,72.336,-120.947
1.970,0.099,-0.552,0.907,-27.298,74.122,-117.634
1.980,0.118,-0.551,0.909,-22.519,76.092,-115.817
1.980,0.146,-0.536,0.887,-18.947,78.107,-115.267
1.990,0.165,-0.534,0.875,-16.183,80.718,-115.756
1.990,0.177,-0.525,0.852,-13.985,83.069,-117.237
1.990,0.179,-0.529,0.848,-12.305,84.992,-119.282
2.000,0.171,-0.521,0.809,-11.893,85.282,-121.817
2.000,0.161,-0.506,0.792,-11.725,84.076,-124.229
2.010,0.160,-0.500,0.764,-11.969,83.344,-127.115
2.010,0.150,-0.493,0.729,-12.748,81.023,-130.061
2.020,0.136,-0.487,0.714,-14.550,75.817,-132.809
2.020,0.105,-0.474,0.698,-18.321,64.244,-135.511
2.020,0.072,-0.465,0.689,-23.634,48.076,-137.908
2.030,0.069,-0.470,0.710,-27.115,42.550,-139.893
2.030,0.082,-0.487,0.740,-26.305,46.321,-140.107
2.040,0.045,-0.492,0.768,-25.374,45.160,-139.893
2.040,0.014,-0.494,0.790,-24.595,38.122,-140.321
2.050,0.010,-0.490,0.794,-24.031,29.802,-140.702
2.050,0.029,-0.479,0.794,-23.695,25.573,-141.160
2.050,0.028,-0.485,0.795,-23.267,23.099,-141.573
2.060,0.024,-0.485,0.816,-23.115,19.496,-141.557
2.060,0.030,-0.483,0.821,-22.275,16.809,-141.802
2.070,0.021,-0.490,0.821,-21.313,14.504,-141.206
2.070,0.007,-0.492,0.811,-20.626,14.015,-140.122
2.080,-0.015,-0.491,0.832,-20.000,15.099,-137.863
2.080,-0.027,-0.492,0.831,-19.695,17.939,-134.855
2.090,-0.028,-0.494,0.833,-19.344,23.710,-131.466
2.090,-0.023,-0.490,0.835,-18.977,31.878,-127.847
2.090,-0.020,-0.487,0.839,-18.595,39.466,-124.550
2.100,-0.012,-0.485,0.835,-18.260,46.718,-122.336
2.100,-0.008,-0.482,0.833,-17.771,53.710,-120.015
2.110,-0.003,-0.484,0.846,-17.344,58.702,-118.595
2.110,-0.004,-0.475,0.835,-16.779,61.481,-117.435
2.120,-0.010,-0.469,0.838,-16.702,63.618,-116.962
2.120,-0.015,-0.470,0.832,-16.214,63.771,-116.229
2.130,-0.002,-0.465,0.830,-15.893,62.183,-116.565
2.130,0.001,-0.459,0.836,-14.809,58.321,-117.328
2.130,0.007,-0.455,0.827,-14.000,53.145,-118.809
2.140,0.010,-0.443,0.806,-13.710,47.176,-120.137
2.140,-0.002,-0.441,0.804,-13.511,39.084,-121.496
2.150,-0.009,-0.438,0.809,-14.489,30.626,-122.122
2.150,-0.026,-0.430,0.800,-14.366,23.252,-122.443
2.160,-0.062,-0.433,0.794,-13.908,13.710,-122.305
2.160,-0.076,-0.433,0.817,-14.015,3.145,-121.893
2.160,-0.074,-0.439,0.835,-13.756,-4.977,-120.901
2.170,-0.072,-0.436,0.853,-13.405,-9.450,-119.557
2.170,-0.080,-0.438,0.864,-12.534,-11.435,-117.649
2.180,-0.090,-0.451,0.865,-11.450,-11.756,-115.160
2.180,-0.096,-0.445,0.894,-9.099,-9.496,-111.740
2.190,-0.103,-0.444,0.899,-6.153,-6.336,-108.275
2.190,-0.119,-0.435,0.902,-4.092,-5.069,-104.595
2.200,-0.100,-0.439,0.901,-1.466,-4.275,-101.863
2.200,-0.073,-0.428,0.892,0.748,-0.962,-99.603
2.200,-0.043,-0.416,0.870,2.397,2.962,-98.366
2.210,-0.020,-0.406,0.846,2.443,7.450,-97.695
2.210,-0.002,-0.396,0.831,2.107,10.580,-97.756
2.220,0.003,-0.372,0.819,0.443,13.130,-97.496
2.220,0.013,-0.363,0.800,-2.489,15.924,-97.832
2.220,-0.005,-0.350,0.780,-5.389,15.389,-98.336
2.230,-0.010,-0.347,0.777,-7.740,11.969,-98.840
2.230,-0.015,-0.333,0.769,-10.366,5.481,-100.214
2.240,-0.010,-0.312,0.782,-13.725,2.275,-99.160
2.240,0.006,-0.309,0.731,-16.962,2.718,-97.878
2.250,0.020,-0.312,0.720,-21.145,2.748,-96.992
2.250,0.017,-0.312,0.746,-24.290,0.977,-95.603
2.250,0.021,-0.305,0.753,-27.420,2.397,-93.069
2.260,0.034,-0.313,0.773,-29.435,6.321,-90.305
2.260,0.052,-0.312,0.799,-31.359,11.740,-88.061
2.270,0.075,-0.319,0.829,-31.908,17.237,-85.802
2.270,0.113,-0.324,0.860,-31.832,24.595,-84.290
2.280,0.115,-0.327,0.884,-31.282,32.718,-82.901
2.280,0.119,-0.337,0.906,-30.351,41.481,-81.160
2.280,0.120,-0.331,0.882,-29.847,50.794,-79.160
2.290,0.084,-0.331,0.897,-28.244,55.374,-77.237
2.290,0.057,-0.332,0.913,-26.626,57.710,-74.962
2.300,0.062,-0.330,0.908,-25.344,59.634,-73.618
2.300,0.053,-0.334,0.895,-24.336,59.115,-72.122
2.310,0.029,-0.332,0.903,-22.656,55.237,-71.053
2.310,0.006,-0.327,0.903,-21.191,49.847,-69.557
2.310,0.003,-0.323,0.904,-19.435,43.237,-67.939
2.320,0.016,-0.327,0.891,-18.397,37.008,-67.023
2.320,0.056,-0.323,0.899,-17.313,30.427,-67.237
2.330,0.094,-0.324,0.894,-15.618,25.160,-68.504
2.330,0.132,-0.323,0.904,-13.847,20.809,-70.137
2.330,0.136,-0.327,0.886,-12.595,17.511,-71.908
2.340,0.130,-0.319,0.864,-12.122,15.710,-73.176
2.340,0.133,-0.319,0.880,-11.786,15.603,-73.511
2.350,0.130,-0.320,0.868,-11.725,16.260,-74.000
2.350,0.115,-0.311,0.853,-12.031,17.008,-73.740
2.360,0.108,-0.312,0.845,-13.252,17.130,-73.099
2.360,0.104,-0.309,0.857,-14.198,16.947,-72.672
2.360,0.098,-0.312,0.845,-14.748,16.794,-72.107
2.370,0.103,-0.308,0.844,-16.031,16.504,-71.527
2.370,0.121,-0.310,0.859,-16.855,16.351,-71.191
2.380,0.134,-0.311,0.867,-17.099,16.137,-71.450
2.380,0.137,-0.317,0.868,-16.992,15.191,-72.046
2.390,0.126,-0.319,0.883,-16.153,13.267,-72.397
2.390,0.130,-0.322,0.884,-15.282,10.779,-72.534
2.390,0.128,-0.322,0.884,-14.443,8.840,-72.580
2.400,0.125,-0.322,0.892,-13.511,7.634,-72.260
2.400,0.124,-0.320,0.888,-12.382,5.908,-71.847
2.410,0.107,-0.321,0.891,-11.588,4.260,-70.809
2.410,0.084,-0.324,0.894,-10.748,2.244,-69.511
2.420,0.061,-0.334,0.901,-9.511,1.038,-67.481
2.420,0.061,-0.329,0.896,-8.168,0.046,-65.496
2.420,0.040,-0.330,0.903,-7.435,-1.756,-63.389
2.430,0.050,-0.337,0.896,-6.870,-2.702,-61.115
2.430,0.045,-0.335,0.892,-6.198,-2.748,-58.824
2.440,0.047,-0.340,0.889,-5.603,-2.351,-56.427
2.440,0.053,-0.338,0.885,-5.267,-1.710,-54.397
2.440,0.059,-0.333,0.876,-5.237,-0.824,-52.748
2.450,0.080,-0.333,0.868,-5.237,-0.275,-51.786
2.450,0.095,-0.328,0.862,-5.420,0.641,-51.023
2.460,0.114,-0.329,0.867,-5.481,1.023,-50.687
2.460,0.108,-0.323,0.856,-6.198,1.221,-50.168
2.460,0.125,-0.323,0.855,-6.641,2.107,-49.893
2.470,0.121,-0.326,0.855,-7.313,3.023,-49.863
2.470,0.121,-0.326,0.851,-8.580,4.748,-50.000
2.480,0.130,-0.321,0.832,-9.786,5.695,-49.786
2.480,0.101,-0.332,0.866,-9.695,2.443,-49.817
2.490,0.088,-0.334,0.877,-9.405,1.954,-48.702
2.490,0.074,-0.333,0.865,-9.420,2.611,-47.160
2.490,0.068,-0.332,0.858,-9.344,1.985,-45.374
2.500,0.080,-0.325,0.854,-10.000,4.794,-42.901
2.500,0.073,-0.328,0.864,-9.466,7.313,-40.046
2.510,0.054,-0.327,0.890,-8.534,9.664,-36.458
2.510,0.057,-0.328,0.888,-7.664,12.183,-33.374
2.510,0.058,-0.322,0.911,-6.656,14.504,-30.183
2.520,0.068,-0.326,0.893,-5.466,16.794,-27.450
2.520,0.075,-0.323,0.910,-4.595,18.504,-25.115
2.530,0.075,-0.320,0.903,-3.450,19.069,-22.855
2.530,0.080,-0.314,0.901,-3.053,19.344,-21.298
2.530,0.104,-0.302,0.856,-3.710,20.702,-19.359
2.540,0.087,-0.312,0.895,-2.427,17.634,-18.031
2.540,0.093,-0.306,0.905,-1.405,14.611,-16.794
2.550,0.101,-0.309,0.907,0.031,12.443,-15.710
2.550,0.117,-0.300,0.879,-0.168,11.389,-15.008
2.560,0.116,-0.301,0.869,0.076,9.221,-14.183
2.560,0.105,-0.302,0.884,0.519,6.321,-13.038
2.560,0.096,-0.294,0.871,1.374,3.557,-11.542
2.570,0.097,-0.297,0.880,1.649,1.496,-10.305
2.570,0.096,-0.294,0.886,2.122,-1.496,-9.038
2.580,0.105,-0.295,0.874,1.588,-2.992,-8.290
2.580,0.135,-0.282,0.869,0.840,-2.733,-7.405
2.580,0.131,-0.283,0.882,0.824,-3.878,-6.687
2.590,0.135,-0.291,0.886,1.099,-4.580,-5.389
2.590,0.130,-0.291,0.894,1.542,-4.061,-4.015
2.600,0.133,-0.285,0.889,1.893,-2.840,-2.611
2.600,0.136,-0.280,0.874,2.214,-1.511,-0.992
2.600,0.136,-0.283,0.886,2.885,-1.084,0.260
2.610,0.145,-0.283,0.864,2.809,0.183,1.344
2.610,0.156,-0.277,0.866,2.656,1.557,2.214
2.620,0.160,-0.283,0.878,2.977,1.511,2.260
2.620,0.174,-0.280,0.861,3.130,2.321,2.534
2.620,0.163,-0.280,0.867,2.626,2.641,2.947
2.630,0.162,-0.278,0.865,2.458,2.397,3.176
2.630,0.170,-0.271,0.851,2.137,2.565,3.496
2.630,0.176,-0.271,0.863,1.344,1.618,3.405
2.640,0.182,-0.270,0.864,1.084,1.588,3.008
2.640,0.194,-0.277,0.874,0.733,1.267,2.427
2.650,0.196,-0.272,0.868,0.794,0.840,2.168
2.650,0.202,-0.276,0.879,0.687,0.885,1.924
2.650,0.198,-0.269,0.872,0.550,1.664,1.847
2.660,0.194,-0.272,0.863,0.122,1.634,1.863
2.660,0.188,-0.269,0.874,-0.321,0.901,2.046
2.660,0.192,-0.261,0.874,-0.275,0.809,2.260
2.670,0.191,-0.262,0.880,-0.031,0.794,2.504
2.670,0.189,-0.264,0.878,-0.336,0.275,2.443
2.680,0.202,-0.263,0.883,-0.397,-0.443,2.504
2.680,0.205,-0.264,0.888,-0.168,-1.160,1.710
2.680,0.215,-0.262,0.882,0.397,-1.206,1.405
2.690,0.219,-0.265,0.888,0.794,-1.099,0.855
2.690,0.212,-0.265,0.875,1.450,-1.466,0.672
2.700,0.198,-0.265,0.883,1.603,-2.321,0.824
2.700,0.200,-0.268,0.876,2.214,-2.763,0.840
2.700,0.196,-0.268,0.868,2.397,-3.038,1.069
2.710,0.197,-0.266,0.872,2.504,-3.420,1.237
2.710,0.200,-0.267,0.879,2.702,-3.527,1.496
2.720,0.208,-0.270,0.871,2.687,-2.550,1.649
2.720,0.201,-0.273,0.878,3.115,-1.359,1.924
2.720,0.202,-0.269,0.881,3.176,-1.023,2.275
2.730,0.194,-0.278,0.881,3.084,-1.267,2.473
2.730,0.199,-0.266,0.869,3.176,-0.565,3.053
2.740,0.201,-0.265,0.875,3.557,0.351,3.099
2.740,0.196,-0.271,0.874,3.634,0.656,3.221
2.740,0.201,-0.265,0.869,3.740,0.275,3.359
2.750,0.198,-0.263,0.866,3.863,0.153,3.435
2.750,0.195,-0.269,0.869,4.076,0.183,3.771
2.750,0.214,-0.275,0.869,2.626,4.885,3.344
2.760,0.184,-0.254,0.854,2.870,3.115,4.000
2.760,0.172,-0.282,0.885,3.939,-1.267,4.260
2.770,0.200,-0.280,0.885,4.687,-1.466,4.153
2.770,0.218,-0.276,0.858,4.626,1.115,3.863
2.770,0.214,-0.277,0.850,4.534,1.374,3.740
2.780,0.202,-0.274,0.853,4.336,-0.305,3.847
2.780,0.213,-0.277,0.836,3.969,1.634,3.802
2.790,0.197,-0.268,0.846,4.336,1.282,4.229
2.790,0.189,-0.273,0.874,4.672,-0.519,4.641
2.790,0.188,-0.281,0.872,5.710,-1.588,5.084
2.800,0.196,-0.273,0.862,5.832,-0.916,5.282
2.800,0.240,-0.272,0.833,4.718,2.168,4.931
2.800,0.208,-0.270,0.847,4.947,1.038,4.931
2.810,0.194,-0.273,0.868,5.298,-1.130,5.237
2.810,0.211,-0.264,0.852,6.061,0.092,5.221
2.820,0.221,-0.266,0.836,5.924,1.359,4.962
2.820,0.224,-0.260,0.834,5.664,1.053,4.427
2.820,0.218,-0.260,0.836,5.756,0.824,4.122
2.830,0.207,-0.258,0.838,6.031,0.015,3.908
2.830,0.210,-0.252,0.827,5.527,0.290,3.695
2.840,0.208,-0.254,0.811,5.145,0.153,3.450
2.840,0.201,-0.260,0.813,4.687,-1.145,3.435
2.840,0.190,-0.256,0.815,4.061,-2.687,3.466
2.850,0.197,-0.250,0.813,3.649,-3.527,3.511
2.850,0.196,-0.249,0.802,3.252,-4.198,3.725
2.850,0.189,-0.247,0.795,2.183,-4.840,3.695
2.860,0.180,-0.244,0.802,1.435,-6.504,3.939
2.860,0.196,-0.260,0.824,0.718,-7.145,4.122
2.870,0.200,-0.249,0.833,0.473,-7.588,3.985
2.870,0.215,-0.258,0.855,0.122,-8.061,4.198
2.870,0.231,-0.258,0.844,-0.092,-7.038,4.000
2.880,0.231,-0.245,0.844,-0.061,-6.779,3.802
2.880,0.233,-0.252,0.852,0.031,-6.809,3.847
2.890,0.236,-0.253,0.854,-0.107,-6.137,3.725
2.890,0.243,-0.256,0.864,0.122,-5.420,3.481
2.890,0.248,-0.258,0.857,0.351,-4.504,3.160
2.900,0.250,-0.253,0.875,0.733,-3.771,2.702
2.900,0.242,-0.262,0.867,1.099,-3.328,2.595
2.910,0.243,-0.260,0.866,1.481,-3.603,2.198
2.910,0.244,-0.260,0.869,1.695,-3.313,2.107
2.910,0.238,-0.260,0.859,1.695,-2.656,2.168
2.920,0.239,-0.256,0.865,1.954,-2.183,2.214
2.920,0.217,-0.260,0.859,2.061,-2.687,2.473
2.930,0.221,-0.254,0.839,1.679,-2.336,2.824
2.930,0.233,-0.253,0.833,1.298,-1.618,3.084
2.930,0.230,-0.255,0.845,1.252,-1.191,3.069
2.940,0.230,-0.254,0.843,0.870,-1.420,2.855
2.940,0.230,-0.247,0.839,0.504,-1.863,2.809
2.940,0.232,-0.255,0.843,0.183,-1.847,2.748
2.950,0.227,-0.257,0.844,-0.244,-1.206,3.038
2.950,0.229,-0.259,0.844,-0.611,-0.580,3.267
2.960,0.223,-0.260,0.843,-0.427,-0.031,3.771
2.960,0.225,-0.262,0.861,-0.427,0.214,3.878
2.960,0.225,-0.265,0.858,-0.031,0.473,4.107
2.970,0.225,-0.257,0.848,-0.092,1.008,4.229
2.970,0.226,-0.252,0.853,0.290,1.496,4.336
2.980,0.225,-0.254,0.851,0.611,1.191,4.351
2.980,0.223,-0.253,0.850,0.427,0.565,4.275
2.980,0.219,-0.250,0.850,0.412,-0.214,4.229
2.990,0.227,-0.256,0.849,0.198,-0.611,3.893
2.990,0.227,-0.251,0.857,0.443,-0.672,3.359
3.000,0.223,-0.259,0.862,0.489,-0.870,3.420
3.000,0.226,-0.251,0.849,0.748,-0.733,3.389
3.000,0.220,-0.255,0.850,0.901,-0.427,3.679
3.010,0.218,-0.261,0.845,0.931,-0.519,3.863
3.010,0.208,-0.253,0.847,0.947,-0.580,4.290
3.020,0.209,-0.258,0.853,1.160,-1.176,4.534
3.020,0.214,-0.256,0.836,1.221,-1.908,4.336
3.020,0.220,-0.258,0.836,0.489,-1.985,4.260
3.030,0.218,-0.248,0.832,0.275,-1.893,4.031
3.030,0.215,-0.251,0.831,-0.107,-2.137,4.061
3.030,0.217,-0.251,0.836,-0.305,-2.733,3.695
3.040,0.227,-0.246,0.842,-0.229,-2.763,3.450
3.040,0.217,-0.247,0.853,-0.153,-2.916,3.267
3.050,0.220,-0.251,0.837,-0.366,-3.389,3.053
3.050,0.214,-0.244,0.846,-0.183,-3.389,3.298
3.050,0.218,-0.258,0.853,-0.275,-4.122,3.634
3.060,0.217,-0.251,0.852,-0.366,-4.107,4.061
3.060,0.228,-0.252,0.859,-0.275,-3.496,4.183
3.070,0.224,-0.248,0.861,-0.229,-2.779,4.321
3.070,0.232,-0.258,0.854,-0.351,-2.382,4.947
3.070,0.225,-0.255,0.872,-0.061,-1.832,4.870
3.080,0.231,-0.254,0.864,0.000,-1.160,5.267
3.080,0.234,-0.258,0.871,0.489,0.092,5.527
3.090,0.238,-0.260,0.881,0.382,0.855,5.588
3.090,0.234,-0.252,0.870,0.489,1.817,5.481
3.090,0.240,-0.256,0.867,0.748,2.305,5.542
3.100,0.230,-0.259,0.858,1.008,2.290,5.237
3.100,0.238,-0.256,0.856,1.252,1.832,4.840
3.110,0.232,-0.254,0.858,1.420,1.252,4.000
3.110,0.245,-0.249,0.859,1.038,0.687,3.542
3.110,0.247,-0.252,0.857,1.313,-0.580,2.565
3.120,0.248,-0.244,0.854,1.328,-1.298,1.618
3.120,0.244,-0.254,0.852,1.527,-2.626,0.580
3.120,0.239,-0.245,0.847,1.374,-3.863,0.153
3.130,0.230,-0.244,0.854,1.634,-4.229,-0.183
3.130,0.229,-0.250,0.859,1.832,-4.351,-0.092
3.140,0.221,-0.243,0.844,2.046,-4.137,0.153
3.140,0.222,-0.238,0.844,1.649,-4.382,0.336
3.140,0.220,-0.238,0.833,1.160,-4.031,0.962
3.150,0.224,-0.234,0.826,0.443,-3.511,1.313
3.150,0.234,-0.237,0.824,-0.198,-2.489,1.405
3.160,0.228,-0.234,0.826,-0.748,-1.542,1.420
3.160,0.229,-0.241,0.831,-1.221,-0.901,1.618
3.160,0.230,-0.239,0.819,-1.802,-0.595,1.496
3.170,0.237,-0.237,0.824,-2.977,-1.038,1.328
3.170,0.230,-0.240,0.830,-3.450,-1.481,1.344
3.180,0.240,-0.243,0.841,-3.985,-0.794,1.374
3.180,0.244,-0.242,0.839,-4.092,-0.153,1.206
3.180,0.238,-0.248,0.859,-4.015,0.000,0.947
3.190,0.248,-0.257,0.864,-3.603,0.321,0.702
3.190,0.246,-0.254,0.870,-2.870,0.229,0.519
3.200,0.239,-0.261,0.869,-2.443,0.611,0.290
3.200,0.237,-0.257,0.877,-1.954,0.733,0.305
3.200,0.227,-0.259,0.879,-1.359,0.489,0.336
3.210,0.229,-0.260,0.886,-0.870,0.427,0.534
3.210,0.231,-0.259,0.873,-0.183,1.038,0.565
3.220,0.229,-0.255,0.879,0.122,1.374,0.763
3.220,0.227,-0.256,0.866,0.214,1.405,0.748
3.220,0.234,-0.254,0.869,0.763,1.649,0.855
3.230,0.226,-0.257,0.854,0.840,1.924,0.779
3.230,0.230,-0.254,0.854,0.870,2.519,0.840
3.230,0.231,-0.255,0.838,0.779,2.794,1.008
3.240,0.224,-0.251,0.844,0.473,3.221,1.053
3.240,0.224,-0.255,0.846,0.397,3.450,1.237
3.250,0.221,-0.254,0.850,0.168,3.664,1.252
3.250,0.228,-0.249,0.851,0.214,3.053,1.374
3.250,0.230,-0.252,0.855,0.107,2.519,0.901
3.260,0.238,-0.248,0.849,-0.107,2.412,0.580
3.260,0.243,-0.250,0.853,0.137,2.611,0.168
3.270,0.231,-0.250,0.846,-0.061,2.000,-0.336
3.270,0.222,-0.252,0.839,-0.092,1.389,-0.672
3.270,0.231,-0.254,0.842,-0.382,1.282,-0.794
3.280,0.231,-0.250,0.843,-0.183,1.863,-0.840
3.280,0.222,-0.250,0.837,-0.198,2.321,-0.748
3.290,0.215,-0.248,0.828,-0.275,2.000,-0.779
3.290,0.221,-0.254,0.830,-0.305,1.344,-0.687
3.290,0.213,-0.245,0.831,-0.382,1.084,-0.870
3.300,0.215,-0.245,0.831,-0.595,1.267,-0.779
3.300,0.219,-0.245,0.817,-0.885,1.145,-0.748
3.310,0.223,-0.250,0.816,-1.053,0.870,-1.115
3.310,0.221,-0.245,0.818,-1.511,0.702,-1.206
3.310,0.217,-0.251,0.823,-1.740,1.115,-1.221
3.320,0.197,-0.252,0.831,-1.847,0.565,-1.038
3.320,0.202,-0.246,0.834,-2.718,-0.489,-1.130
3.330,0.209,-0.246,0.844,-3.282,-0.977,-0.840
3.330,0.220,-0.256,0.852,-3.420,-0.229,-0.733
3.330,0.219,-0.255,0.851,-3.084,1.267,-0.473
3.340,0.218,-0.252,0.860,-2.794,1.710,-0.092
3.340,0.206,-0.258,0.858,-2.779,1.954,0.214
3.350,0.209,-0.259,0.857,-2.840,2.275,0.397
3.350,0.207,-0.254,0.860,-2.565,2.840,0.595
3.350,0.209,-0.258,0.861,-1.954,3.649,0.840
3.360,0.208,-0.250,0.852,-1.817,4.290,1.038
3.360,0.204,-0.252,0.843,-1.939,4.855,1.206
3.360,0.200,-0.256,0.843,-1.771,4.870,1.420
3.370,0.204,-0.250,0.848,-1.496,4.595,1.649
3.370,0.207,-0.247,0.833,-2.000,4.595,1.939
3.380,0.201,-0.249,0.830,-2.031,4.229,1.908
3.380,0.203,-0.242,0.836,-2.137,3.344,1.695
3.380,0.198,-0.247,0.832,-2.580,2.260,1.832
3.390,0.206,-0.244,0.834,-3.023,1.359,1.817
3.390,0.214,-0.245,0.845,-3.130,0.931,1.664
3.400,0.224,-0.244,0.849,-3.313,0.916,1.542
3.400,0.229,-0.249,0.860,-3.252,0.885,1.328
3.400,0.233,-0.253,0.876,-3.008,0.275,0.916
3.410,0.238,-0.259,0.871,-2.656,0.107,0.305
3.410,0.228,-0.258,0.888,-2.122,-0.183,0.305
3.420,0.225,-0.256,0.885,-1.527,-0.015,0.290
3.420,0.230,-0.258,0.894,-1.237,0.473,0.107
3.420,0.230,-0.256,0.895,-0.397,1.084,0.046
3.430,0.224,-0.255,0.884,0.107,1.573,0.260
3.430,0.221,-0.255,0.875,0.336,1.695,0.443
3.440,0.217,-0.251,0.875,0.641,1.756,0.183
3.440,0.222,-0.250,0.867,0.321,1.634,0.382
3.440,0.215,-0.251,0.866,0.366,1.313,0.351
3.450,0.217,-0.248,0.862,0.885,1.527,0.260
3.450,0.212,-0.246,0.850,0.824,1.511,0.336
3.450,0.205,-0.246,0.848,0.031,-0.534,0.137
3.460,0.211,-0.242,0.851,-0.733,-2.061,-0.168
3.460,0.219,-0.245,0.860,-0.656,-1.649,-0.061
3.470,0.229,-0.242,0.869,-0.748,-1.115,-0.244
3.470,0.223,-0.247,0.859,-1.023,-0.718,-0.244
3.470,0.224,-0.244,0.851,-1.328,-0.473,-0.260
3.480,0.219,-0.248,0.855,-1.557,-0.137,0.122
3.480,0.220,-0.251,0.858,-1.710,0.473,0.092
3.490,0.217,-0.251,0.864,-1.435,1.221,0.473
3.490,0.209,-0.242,0.865,-1.328,1.649,0.672
3.490,0.211,-0.242,0.857,-0.992,1.954,0.855
3.500,0.202,-0.242,0.849,-0.992,2.244,0.977
3.500,0.207,-0.248,0.856,-0.855,1.664,0.748
3.510,0.210,-0.247,0.863,-0.641,0.534,0.473
3.510,0.217,-0.245,0.873,-0.733,-0.519,-0.046
3.510,0.219,-0.239,0.857,-0.656,-1.023,-0.153
3.520,0.224,-0.245,0.864,-1.023,-1.878,-0.427
3.520,0.225,-0.242,0.868,-1.191,-2.443,-0.733
3.530,0.226,-0.243,0.866,-0.840,-2.977,-0.977
3.530,0.220,-0.237,0.857,-1.313,-2.992,-1.023
3.530,0.222,-0.243,0.865,-1.405,-2.687,-0.931
3.540,0.226,-0.244,0.862,-1.481,-1.954,-1.023
3.540,0.224,-0.248,0.873,-1.466,-1.282,-0.901
3.550,0.234,-0.248,0.865,-1.191,0.229,-0.687
3.550,0.231,-0.253,0.876,-0.779,2.092,-0.550
3.550,0.224,-0.250,0.864,-0.534,4.061,-0.473
3.560,0.219,-0.249,0.869,-0.427,5.206,-0.183
3.560,0.218,-0.248,0.865,-0.168,6.824,-0.275
3.570,0.214,-0.247,0.850,0.137,8.046,0.092
3.570,0.209,-0.251,0.851,-0.244,7.817,-0.122
3.570,0.197,-0.254,0.845,-0.855,7.267,0.092
3.580,0.200,-0.249,0.841,-0.565,6.794,0.092
3.580,0.200,-0.248,0.859,-0.458,6.015,-0.046
3.590,0.182,-0.247,0.850,-0.275,4.748,0.122
3.590,0.186,-0.248,0.832,-0.214,3.084,-0.015
3.590,0.190,-0.252,0.837,-0.458,1.786,-0.137
3.600,0.189,-0.248,0.840,-0.443,0.534,-0.290
3.600,0.187,-0.244,0.845,-0.550,-0.550,-0.183
3.610,0.181,-0.247,0.841,-0.565,-1.435,0.015
3.610,0.181,-0.245,0.840,-0.870,-2.076,0.229
3.610,0.182,-0.240,0.840,-1.160,-2.366,0.809
3.620,0.188,-0.240,0.830,-1.908,-1.985,1.145
3.620,0.196,-0.243,0.839,-2.305,-1.710,1.130
3.630,0.204,-0.244,0.843,-2.718,-1.450,1.496
3.630,0.207,-0.240,0.848,-3.298,-0.763,1.298
3.630,0.212,-0.249,0.847,-3.573,0.046,1.267
3.640,0.217,-0.239,0.855,-3.496,0.977,1.466
3.640,0.218,-0.247,0.853,-3.573,1.740,1.298
3.650,0.221,-0.253,0.860,-3.542,1.985,1.328
3.650,0.219,-0.242,0.858,-3.420,2.183,1.176
3.650,0.217,-0.248,0.861,-3.328,1.908,0.656
3.660,0.217,-0.246,0.854,-2.916,1.603,0.489
3.660,0.216,-0.256,0.867,-2.733,1.145,0.244
3.670,0.219,-0.250,0.861,-2.672,0.489,0.015
3.670,0.225,-0.248,0.878,-2.397,0.244,-0.443
3.670,0.223,-0.250,0.869,-1.924,0.458,-0.824
3.680,0.215,-0.252,0.865,-1.634,0.305,-0.947
3.680,0.210,-0.251,0.863,-1.466,0.122,-1.053
3.690,0.210,-0.249,0.862,-1.130,0.198,-1.084
3.690,0.209,-0.249,0.869,-0.595,0.931,-1.038
3.690,0.207,-0.249,0.858,-0.153,1.832,-0.809
3.700,0.204,-0.250,0.849,-0.382,2.015,-0.626
3.700,0.204,-0.256,0.857,-0.656,2.504,-0.595
3.710,0.208,-0.247,0.854,-0.763,3.603,-0.366
3.710,0.206,-0.248,0.851,-0.718,4.336,-0.611
3.710,0.199,-0.245,0.851,-1.191,4.794,-0.214
3.720,0.192,-0.243,0.842,-1.756,4.748,0.000
3.720,0.193,-0.238,0.832,-2.015,4.458,0.046
3.720,0.194,-0.240,0.844,-2.336,4.550,0.275
3.730,0.190,-0.244,0.838,-2.626,4.260,0.382
3.730,0.197,-0.241,0.843,-3.023,3.786,0.443
3.740,0.195,-0.245,0.836,-3.527,2.885,0.412
3.740,0.191,-0.251,0.841,-3.710,1.893,0.153
3.740,0.203,-0.242,0.846,-4.336,0.641,-0.168
3.750,0.202,-0.244,0.864,-4.733,-0.382,-0.382
3.750,0.207,-0.247,0.866,-4.534,-1.420,-0.901
3.760,0.207,-0.246,0.861,-4.412,-1.527,-1.053
3.760,0.214,-0.246,0.874,-4.122,-1.344,-1.145
3.760,0.215,-0.252,0.865,-4.076,-1.511,-1.099
3.770,0.208,-0.247,0.860,-3.679,-1.115,-1.008
3.770,0.215,-0.250,0.875,-3.542,-0.947,-0.718
3.780,0.208,-0.248,0.868,-3.374,-0.550,-0.626
3.780,0.214,-0.256,0.874,-3.084,-0.183,-0.641
3.790,0.209,-0.255,0.877,-2.687,0.153,-0.672
3.790,0.214,-0.253,0.874,-2.382,-0.305,-0.580
3.790,0.198,-0.254,0.894,-1.893,-1.267,-0.687
3.800,0.207,-0.253,0.871,-1.939,-0.168,0.031
3.800,0.206,-0.252,0.874,-2.031,1.069,0.229
3.810,0.198,-0.253,0.866,-1.282,0.565,0.031
3.810,0.197,-0.255,0.878,-0.931,-1.008,0.183
3.810,0.201,-0.244,0.866,-0.931,-2.321,-0.107
3.820,0.197,-0.245,0.866,-0.794,-2.214,0.015
3.820,0.202,-0.246,0.865,-0.901,-2.489,0.046
3.830,0.199,-0.246,0.856,-0.702,-2.992,0.061
3.830,0.200,-0.249,0.864,-0.519,-3.634,-0.031
3.830,0.204,-0.252,0.846,-0.550,-4.107,0.015
3.840,0.198,-0.246,0.856,-0.305,-4.244,-0.046
3.840,0.198,-0.242,0.850,-0.733,-4.229,0.351
3.850,0.200,-0.246,0.859,-1.206,-4.092,0.550
3.850,0.207,-0.249,0.846,-1.481,-3.618,0.824
3.850,0.210,-0.247,0.847,-1.557,-3.130,0.962
3.860,0.210,-0.252,0.852,-1.817,-2.992,1.053
3.860,0.210,-0.253,0.852,-2.519,-2.626,0.947
3.870,0.212,-0.249,0.863,-2.641,-2.351,1.267
3.870,0.215,-0.248,0.865,-2.855,-2.031,1.206
3.870,0.220,-0.258,0.876,-2.611,-1.679,1.221
3.880,0.215,-0.259,0.881,-2.198,-1.466,1.450
3.880,0.214,-0.255,0.884,-1.649,-0.840,1.496
3.890,0.218,-0.256,0.885,-1.130,-0.290,1.405
3.890,0.221,-0.260,0.886,-0.824,-0.183,1.267
3.890,0.228,-0.252,0.877,-0.305,0.351,1.099
3.900,0.229,-0.258,0.879,0.229,0.962,0.656
3.900,0.226,-0.250,0.881,0.244,0.244,0.412
3.900,0.221,-0.248,0.872,0.427,-0.321,0.076
3.910,0.217,-0.245,0.873,0.366,-0.595,-0.229
3.910,0.213,-0.243,0.858,0.443,-0.672,-0.214
3.920,0.211,-0.242,0.848,0.427,-0.947,-0.061
3.920,0.201,-0.242,0.845,-0.107,-1.084,-0.046
3.920,0.205,-0.245,0.853,-0.229,-1.145,0.107
3.930,0.208,-0.243,0.848,-0.626,-1.053,0.275
3.930,0.213,-0.241,0.856,-0.443,-0.687,0.580
3.940,0.211,-0.244,0.847,-0.763,0.015,0.519
3.940,0.210,-0.246,0.854,-1.221,0.366,0.489
3.940,0.211,-0.251,0.849,-1.176,0.779,0.626
3.950,0.206,-0.249,0.844,-1.252,1.282,0.763
3.950,0.209,-0.246,0.855,-1.603,1.374,0.672
3.960,0.212,-0.252,0.853,-1.481,1.802,0.595
3.960,0.206,-0.250,0.844,-1.588,1.328,0.519
3.960,0.202,-0.249,0.844,-2.122,0.656,0.489
3.970,0.210,-0.252,0.858,-2.061,0.504,0.198
3.970,0.209,-0.256,0.856,-1.954,0.626,0.244
3.980,0.197,-0.252,0.854,-1.710,0.290,0.580
3.980,0.200,-0.252,0.862,-1.817,0.107,0.748
3.980,0.195,-0.247,0.863,-1.603,-0.061,0.992
3.990,0.198,-0.257,0.867,-1.420,-0.275,0.947
3.990,0.197,-0.256,0.859,-0.992,-0.214,1.191
4.000,0.204,-0.255,0.854,-0.931,-0.992,1.053
4.000,0.208,-0.256,0.871,-0.824,-0.870,0.992
4.000,0.210,-0.255,0.864,-0.519,-0.336,1.130
4.010,0.205,-0.256,0.858,-0.336,0.183,1.221
4.010,0.202,-0.255,0.862,-0.412,0.107,1.130
4.020,0.214,-0.253,0.858,-0.473,-0.046,1.435
4.020,0.218,-0.254,0.860,-0.565,0.321,1.389
4.020,0.217,-0.261,0.858,-0.718,0.672,1.344
4.030,0.210,-0.253,0.858,-0.565,0.809,1.435
4.030,0.203,-0.253,0.864,-0.611,0.840,1.435
4.030,0.210,-0.251,0.859,-0.702,0.611,1.466
4.040,0.219,-0.251,0.862,-0.489,0.626,1.313
4.040,0.222,-0.258,0.870,-0.061,0.244,0.931
4.050,0.213,-0.251,0.873,-0.031,-0.733,0.611
4.050,0.226,-0.251,0.871,0.214,-0.901,0.260
4.050,0.218,-0.251,0.862,0.275,-0.885,0.336
4.060,0.221,-0.251,0.871,0.351,-1.252,0.336
4.060,0.208,-0.247,0.859,0.611,-1.328,0.534
4.070,0.208,-0.250,0.851,0.489,-1.313,0.840
