Time,acce_x,acce_y,acce_z,gyro_x,gyro_y,gyro_z
0.000,0.205,-0.270,0.886,-4.275,2.641,-2.229
0.000,0.209,-0.270,0.872,-3.542,4.046,-2.382
0.010,0.195,-0.269,0.881,-3.130,5.023,-2.824
0.010,0.192,-0.274,0.872,-2.763,5.725,-3.206
0.010,0.188,-0.268,0.873,-2.595,6.015,-3.496
0.020,0.176,-0.275,0.869,-2.183,5.969,-3.908
0.020,0.161,-0.273,0.864,-2.061,5.603,-4.031
0.020,0.147,-0.271,0.862,-2.015,5.221,-3.908
0.030,0.144,-0.271,0.866,-2.000,4.122,-3.832
0.030,0.139,-0.274,0.857,-2.183,3.282,-3.695
0.030,0.121,-0.273,0.850,-2.305,1.237,-3.038
0.040,0.115,-0.272,0.853,-2.656,0.229,-2.458
0.040,0.130,-0.269,0.853,-2.550,-0.534,-1.771
0.040,0.132,-0.272,0.854,-2.763,-0.519,-1.344
0.050,0.132,-0.269,0.846,-2.611,-1.008,-0.977
0.050,0.133,-0.272,0.852,-2.611,-1.710,-0.519
0.060,0.128,-0.270,0.853,-2.534,-2.550,-0.275
0.060,0.145,-0.270,0.858,-2.550,-2.198,0.122
0.060,0.148,-0.269,0.854,-2.366,-1.847,0.427
0.070,0.149,-0.262,0.849,-2.290,-1.405,0.534
0.070,0.146,-0.269,0.852,-2.412,-1.282,0.809
0.080,0.159,-0.266,0.859,-2.427,-0.977,0.779
0.080,0.169,-0.267,0.852,-2.565,-0.412,0.702
0.080,0.173,-0.261,0.852,-2.519,0.366,0.519
0.090,0.182,-0.266,0.854,-2.412,1.389,0.595
0.090,0.182,-0.259,0.851,-2.580,1.771,0.305
0.100,0.173,-0.262,0.843,-2.550,1.832,-0.092
0.100,0.173,-0.257,0.848,-2.489,1.511,-0.504
0.100,0.168,-0.253,0.844,-2.641,0.824,-0.870
0.110,0.160,-0.261,0.839,-3.115,0.580,-1.023
0.110,0.162,-0.261,0.838,-3.359,0.229,-1.374
0.120,0.156,-0.259,0.841,-3.634,-0.366,-1.298
0.120,0.141,-0.258,0.840,-3.740,-1.603,-1.206
0.120,0.140,-0.262,0.860,-3.863,-2.244,-1.084
0.130,0.141,-0.269,0.860,-4.076,-2.626,-0.748
0.130,0.148,-0.264,0.871,-4.031,-2.947,-0.244
0.140,0.153,-0.268,0.861,-3.603,-2.901,-0.076
0.140,0.155,-0.270,0.863,-3.405,-2.519,0.137
0.140,0.158,-0.267,0.873,-2.855,-2.153,0.427
0.150,0.159,-0.262,0.869,-2.916,-1.542,0.733
0.150,0.163,-0.264,0.871,-2.366,-0.901,1.038
0.160,0.166,-0.265,0.863,-2.260,-0.061,1.237
0.160,0.174,-0.259,0.855,-2.336,0.840,1.237
0.160,0.176,-0.263,0.849,-2.550,0.809,1.069
0.170,0.175,-0.260,0.857,-2.565,0.733,1.053
0.170,0.182,-0.259,0.863,-2.565,0.687,0.733
0.180,0.177,-0.256,0.865,-2.687,0.626,0.626
0.180,0.186,-0.261,0.857,-2.504,0.519,0.336
0.180,0.180,-0.260,0.870,-2.779,0.718,0.137
0.190,0.184,-0.264,0.876,-2.473,1.359,-0.168
0.190,0.182,-0.270,0.871,-2.000,1.679,-0.366
0.200,0.185,-0.271,0.874,-1.725,1.466,-0.305
0.200,0.169,-0.272,0.869,-1.420,0.702,-0.626
0.200,0.168,-0.271,0.865,-1.435,-0.229,-0.687
0.210,0.167,-0.276,0.869,-1.618,-0.473,-0.595
0.210,0.165,-0.280,0.870,-1.481,-0.092,-0.427
0.220,0.156,-0.269,0.865,-1.420,0.260,-0.260
0.220,0.163,-0.273,0.862,-1.527,0.412,-0.473
0.220,0.159,-0.269,0.858,-1.786,-0.458,-0.794
0.230,0.162,-0.270,0.868,-1.985,-1.069,-0.977
0.230,0.155,-0.272,0.865,-2.015,-0.977,-0.916
0.240,0.151,-0.271,0.872,-2.168,-0.351,-0.458
0.240,0.146,-0.272,0.868,-2.076,0.122,-0.046
0.240,0.142,-0.275,0.872,-1.924,0.397,0.321
0.250,0.142,-0.267,0.880,-1.847,-0.092,0.748
0.250,0.151,-0.271,0.886,-1.573,-0.244,1.206
0.260,0.150,-0.268,0.873,-1.481,-0.458,1.160
0.260,0.157,-0.272,0.883,-1.115,0.031,1.267
0.260,0.165,-0.268,0.885,-0.992,0.656,1.267
0.270,0.164,-0.266,0.874,-0.641,1.206,1.191
0.270,0.164,-0.266,0.881,-0.626,1.527,1.053
0.280,0.170,-0.272,0.882,-0.489,1.053,0.702
0.280,0.163,-0.271,0.879,-0.153,0.656,0.611
0.280,0.165,-0.265,0.876,-0.214,0.519,0.244
0.290,0.162,-0.267,0.883,-0.061,0.733,0.473
0.290,0.160,-0.268,0.880,0.153,1.099,0.641
0.290,0.160,-0.269,0.871,0.046,1.130,0.672
0.300,0.158,-0.258,0.869,0.168,1.206,0.779
0.300,0.155,-0.259,0.869,0.107,1.267,0.718
0.310,0.152,-0.261,0.863,0.137,1.389,0.840
0.310,0.156,-0.260,0.871,0.351,1.160,0.809
0.310,0.151,-0.258,0.866,0.260,1.176,0.916
0.320,0.140,-0.259,0.874,0.168,0.489,0.916
0.320,0.145,-0.265,0.858,0.443,0.290,1.145
0.330,0.144,-0.264,0.863,0.580,0.275,1.420
0.330,0.151,-0.265,0.855,0.534,0.061,1.542
0.330,0.154,-0.270,0.859,0.412,0.397,1.679
0.340,0.154,-0.270,0.866,0.534,0.580,1.832
0.340,0.151,-0.261,0.865,0.580,-0.260,1.878
0.340,0.153,-0.258,0.861,0.504,-1.206,1.954
0.350,0.164,-0.254,0.869,0.580,-1.206,1.893
0.350,0.173,-0.253,0.865,0.534,-0.107,1.924
0.360,0.176,-0.252,0.860,0.672,0.672,1.786
0.360,0.175,-0.258,0.850,0.397,1.435,1.634
0.360,0.177,-0.253,0.850,0.214,1.481,1.496
0.370,0.177,-0.252,0.844,-0.031,1.802,1.191
0.370,0.172,-0.255,0.843,-0.290,2.183,0.855
0.380,0.164,-0.258,0.851,-0.275,2.351,0.611
0.380,0.158,-0.251,0.851,-0.794,2.366,0.641
0.380,0.164,-0.246,0.853,-1.221,1.878,0.580
0.390,0.159,-0.246,0.844,-1.634,1.634,0.763
0.390,0.155,-0.251,0.856,-1.527,1.435,1.038
0.390,0.151,-0.258,0.855,-1.557,1.038,0.977
0.400,0.158,-0.255,0.867,-1.359,0.977,1.069
0.400,0.149,-0.256,0.864,-1.359,0.534,1.221
0.410,0.151,-0.256,0.865,-1.069,-0.183,1.282
0.410,0.156,-0.259,0.861,-1.008,-0.763,1.267
0.410,0.163,-0.262,0.861,-0.702,-0.779,1.206
0.420,0.162,-0.258,0.877,-0.534,-0.611,1.237
0.420,0.172,-0.258,0.865,-0.198,-0.168,1.328
0.430,0.174,-0.256,0.870,-0.153,0.519,1.221
0.430,0.173,-0.256,0.867,-0.183,1.130,1.405
0.430,0.173,-0.256,0.855,-0.061,1.725,1.145
0.440,0.161,-0.261,0.853,-0.427,1.771,1.115
0.440,0.163,-0.255,0.853,-0.336,1.603,1.038
0.450,0.155,-0.258,0.853,-0.290,1.328,1.053
0.450,0.151,-0.258,0.857,-0.153,1.542,1.466
0.450,0.154,-0.260,0.848,-0.122,1.664,1.679
0.460,0.155,-0.251,0.850,-0.656,1.053,1.573
0.460,0.149,-0.261,0.847,-0.641,0.168,1.557
0.470,0.153,-0.254,0.854,-0.779,-0.962,1.405
0.470,0.156,-0.265,0.847,-1.008,-1.420,1.023
0.470,0.165,-0.260,0.847,-1.160,-1.603,0.977
0.480,0.164,-0.267,0.847,-1.191,-1.389,1.206
0.480,0.161,-0.259,0.854,-1.359,-1.359,1.282
0.490,0.173,-0.260,0.858,-1.130,-0.916,1.221
0.490,0.181,-0.260,0.867,-1.328,-0.076,1.160
0.490,0.182,-0.259,0.870,-1.176,0.672,0.992
0.500,0.187,-0.267,0.866,-0.855,1.664,0.947
0.500,0.190,-0.261,0.866,-0.794,2.763,0.748
0.510,0.189,-0.255,0.862,-0.718,3.725,0.382
0.510,0.183,-0.257,0.863,-0.504,4.336,0.290
0.510,0.177,-0.260,0.865,-0.580,4.840,0.092
0.520,0.173,-0.261,0.856,-0.550,5.267,0.168
0.520,0.171,-0.259,0.843,-0.534,5.038,-0.015
0.520,0.174,-0.264,0.846,-0.824,4.565,0.015
0.530,0.167,-0.259,0.845,-1.206,3.725,-0.321
0.530,0.166,-0.260,0.852,-1.252,3.191,-0.687
0.540,0.167,-0.255,0.845,-1.313,2.168,-0.779
0.540,0.164,-0.263,0.852,-1.695,1.282,-1.023
0.540,0.166,-0.263,0.847,-1.786,0.794,-0.901
0.550,0.163,-0.268,0.852,-1.679,0.580,-1.008
0.550,0.164,-0.266,0.856,-1.695,0.412,-1.008
0.560,0.166,-0.261,0.850,-1.557,0.382,-1.023
0.560,0.169,-0.267,0.865,-1.664,0.351,-1.221
0.560,0.177,-0.267,0.860,-1.542,0.489,-1.191
0.570,0.166,-0.264,0.866,-1.420,0.855,-0.809
0.570,0.172,-0.271,0.858,-1.313,1.725,-0.824
0.580,0.174,-0.273,0.860,-1.038,2.534,-0.641
0.580,0.176,-0.265,0.866,-0.977,3.099,-0.534
0.580,0.169,-0.262,0.857,-1.145,3.160,-0.641
0.590,0.165,-0.267,0.857,-0.595,3.176,-0.809
0.590,0.171,-0.275,0.854,-0.382,2.855,-0.870
0.600,0.163,-0.262,0.852,-0.534,2.718,-0.977
0.600,0.159,-0.269,0.855,-0.931,2.214,-1.191
0.600,0.152,-0.263,0.851,-0.534,2.046,-0.794
0.610,0.153,-0.261,0.849,-0.672,1.924,-0.626
0.610,0.148,-0.259,0.833,-0.885,1.557,-0.611
0.620,0.146,-0.255,0.826,-1.374,0.931,-0.168
0.620,0.152,-0.260,0.834,-1.832,0.000,-0.260
0.620,0.156,-0.250,0.842,-2.321,-0.290,-0.336
0.630,0.165,-0.263,0.847,-2.748,-0.214,-0.443
0.630,0.168,-0.254,0.836,-3.435,0.122,-0.427
0.640,0.170,-0.263,0.834,-3.756,0.092,-0.534
0.640,0.168,-0.254,0.850,-4.046,0.031,-0.809
0.640,0.173,-0.260,0.862,-4.366,-0.718,-0.947
0.650,0.179,-0.260,0.870,-4.229,-0.504,-1.115
0.650,0.176,-0.269,0.866,-3.908,-0.260,-1.206
0.660,0.176,-0.271,0.878,-3.969,-0.107,-1.298
0.660,0.176,-0.265,0.873,-3.679,-0.672,-1.588
0.670,0.180,-0.270,0.881,-3.328,-1.282,-2.046
0.670,0.174,-0.267,0.882,-2.824,-1.496,-2.153
0.670,0.174,-0.267,0.879,-2.504,-1.649,-2.611
0.680,0.177,-0.263,0.882,-2.229,-1.481,-2.718
0.680,0.165,-0.263,0.879,-1.802,-1.420,-2.473
0.690,0.159,-0.264,0.881,-1.481,-1.099,-2.260
0.690,0.150,-0.258,0.865,-1.099,-0.809,-2.046
0.690,0.146,-0.259,0.864,-1.130,-0.351,-1.664
0.700,0.155,-0.259,0.865,-1.374,0.626,-1.160
0.700,0.155,-0.252,0.863,-1.359,1.863,-0.779
0.710,0.165,-0.259,0.858,-1.496,2.992,-0.519
0.710,0.167,-0.255,0.866,-1.618,3.588,-0.809
0.710,0.162,-0.256,0.871,-2.092,3.802,-0.626
0.720,0.161,-0.254,0.864,-2.427,3.802,-0.611
0.720,0.166,-0.251,0.867,-2.336,3.802,-0.947
0.730,0.164,-0.255,0.875,-2.641,3.435,-1.237
0.730,0.158,-0.258,0.875,-2.565,2.641,-1.450
0.730,0.154,-0.254,0.874,-2.519,2.092,-1.496
0.740,0.149,-0.259,0.881,-2.580,1.664,-1.542
0.740,0.149,-0.257,0.872,-2.244,1.221,-1.710
0.750,0.148,-0.258,0.882,-1.847,0.565,-1.847
0.750,0.138,-0.264,0.878,-1.450,-0.275,-2.031
0.750,0.137,-0.269,0.871,-0.885,-1.206,-2.168
0.760,0.140,-0.260,0.865,-1.130,-1.313,-2.168
0.760,0.143,-0.265,0.858,-1.008,-0.809,-2.305
0.770,0.137,-0.259,0.869,-0.870,-0.214,-1.786
0.770,0.135,-0.263,0.858,-1.145,0.183,-1.786
0.770,0.130,-0.261,0.842,-1.053,0.244,-1.435
0.780,0.127,-0.257,0.842,-1.023,0.015,-1.252
0.780,0.123,-0.260,0.850,-1.466,0.275,-0.824
0.790,0.118,-0.258,0.836,-1.618,0.443,-0.336
0.790,0.118,-0.252,0.839,-2.000,0.824,0.137
0.790,0.125,-0.259,0.845,-2.092,0.366,0.397
0.800,0.125,-0.254,0.852,-2.275,-0.687,0.748
0.800,0.126,-0.253,0.844,-2.840,-1.466,1.008
0.810,0.135,-0.255,0.857,-3.130,-2.137,0.916
0.810,0.151,-0.250,0.869,-3.313,-2.214,1.145
0.810,0.159,-0.250,0.865,-3.221,-2.382,1.023
0.820,0.163,-0.255,0.874,-2.947,-2.031,0.794
0.820,0.165,-0.252,0.874,-2.901,-1.924,0.595
0.830,0.172,-0.263,0.874,-2.489,-1.740,0.427
0.830,0.175,-0.265,0.885,-1.969,-1.313,0.305
0.830,0.178,-0.263,0.885,-1.466,-0.672,-0.198
0.840,0.175,-0.264,0.884,-1.282,0.000,-0.489
0.840,0.171,-0.266,0.864,-0.901,0.611,-0.809
0.850,0.162,-0.267,0.872,-0.855,1.573,-0.901
0.850,0.155,-0.265,0.866,-0.595,2.290,-0.763
0.850,0.153,-0.268,0.868,-0.336,2.885,-0.931
0.860,0.142,-0.270,0.873,-0.366,3.115,-0.366
0.860,0.141,-0.267,0.866,-0.046,3.130,-0.076
0.870,0.135,-0.266,0.859,-0.076,3.221,0.198
0.870,0.131,-0.272,0.865,0.092,3.298,0.336
0.870,0.131,-0.266,0.864,0.153,2.885,0.443
0.880,0.127,-0.263,0.852,-0.061,2.656,0.824
0.880,0.130,-0.255,0.847,-0.260,2.427,1.053
0.890,0.119,-0.257,0.835,-0.351,1.557,1.099
0.890,0.117,-0.260,0.846,-0.809,0.397,1.450
0.890,0.129,-0.249,0.848,-1.359,-0.458,1.313
0.900,0.138,-0.255,0.847,-1.740,-0.718,1.435
0.900,0.144,-0.254,0.855,-2.351,-1.038,1.282
0.900,0.146,-0.262,0.856,-2.931,-1.588,1.023
0.910,0.140,-0.262,0.858,-2.855,-2.092,1.069
0.910,0.143,-0.265,0.871,-2.550,-2.351,1.282
0.920,0.131,-0.267,0.884,-2.168,-2.779,1.466
0.920,0.133,-0.275,0.897,-1.786,-3.389,1.908
0.920,0.142,-0.274,0.910,-1.435,-2.260,2.275
0.930,0.150,-0.279,0.908,-0.794,-1.191,2.427
0.930,0.145,-0.275,0.909,-0.244,-0.351,2.031
0.940,0.148,-0.277,0.900,0.305,-0.351,2.122
0.940,0.144,-0.276,0.887,0.855,0.198,1.985
0.940,0.128,-0.277,0.898,1.221,0.656,2.351
0.950,0.113,-0.274,0.890,1.771,1.282,2.565
0.950,0.115,-0.281,0.888,2.183,1.618,2.763
0.960,0.106,-0.278,0.889,2.122,1.481,3.038
0.960,0.087,-0.282,0.893,2.244,1.389,3.435
0.960,0.059,-0.287,0.898,2.611,0.702,4.076
0.970,0.037,-0.295,0.911,2.901,0.443,5.405
0.970,0.020,-0.304,0.925,3.053,-0.229,6.947
0.980,-0.006,-0.310,0.942,3.359,-0.519,8.733
0.980,-0.021,-0.315,0.963,3.847,-0.305,10.443
0.980,-0.047,-0.328,0.996,4.595,-0.122,12.687
0.990,-0.070,-0.341,1.032,5.832,0.427,15.176
0.990,-0.083,-0.343,1.055,7.740,1.802,18.214
1.000,-0.100,-0.353,1.099,10.427,4.534,21.649
1.000,-0.118,-0.364,1.107,14.076,7.282,25.008
1.000,-0.135,-0.375,1.097,18.397,9.740,28.473
1.010,-0.145,-0.368,1.115,21.496,9.420,32.351
1.010,-0.150,-0.353,1.129,22.046,11.481,36.351
1.020,-0.163,-0.365,1.100,23.359,14.260,40.641
1.020,-0.214,-0.368,1.121,26.305,12.397,45.695
1.020,-0.238,-0.356,1.136,29.267,10.198,50.840
1.030,-0.211,-0.352,1.131,32.092,8.855,54.916
1.030,-0.184,-0.340,1.092,34.321,8.305,57.603
1.040,-0.186,-0.335,1.071,35.466,5.847,60.626
1.040,-0.181,-0.330,1.067,36.702,2.504,62.931
1.040,-0.174,-0.314,1.055,37.252,-0.290,65.740
1.050,-0.170,-0.316,1.053,38.840,-2.092,67.588
1.050,-0.151,-0.299,1.041,39.496,-3.679,69.863
1.060,-0.144,-0.290,1.031,40.153,-6.092,71.802
1.060,-0.130,-0.290,1.020,40.611,-8.870,73.023
1.070,-0.116,-0.281,1.003,40.718,-11.664,74.305
1.070,-0.102,-0.283,1.008,41.069,-13.557,74.382
1.070,-0.092,-0.281,0.999,42.076,-14.565,74.733
1.080,-0.086,-0.271,1.002,42.763,-16.824,74.443
1.080,-0.084,-0.274,1.014,42.336,-18.092,74.855
1.090,-0.082,-0.270,1.000,41.649,-18.260,75.176
1.090,-0.098,-0.277,1.006,41.420,-18.305,75.618
1.100,-0.116,-0.283,1.014,42.214,-19.740,76.275
1.100,-0.125,-0.290,1.002,42.992,-21.069,77.374
1.100,-0.143,-0.292,1.018,43.649,-22.626,78.092
1.110,-0.155,-0.293,1.015,44.153,-23.679,79.252
1.110,-0.177,-0.297,1.001,44.947,-25.527,80.290
1.120,-0.192,-0.299,0.986,45.374,-28.519,82.061
1.120,-0.207,-0.299,0.996,46.000,-32.382,83.618
1.130,-0.217,-0.307,1.002,47.099,-35.359,85.695
1.130,-0.239,-0.313,0.987,48.412,-37.115,88.412
1.130,-0.254,-0.316,0.984,50.000,-38.305,91.878
1.140,-0.281,-0.323,0.982,51.802,-40.076,95.313
1.140,-0.285,-0.326,0.966,53.511,-41.863,98.992
1.150,-0.282,-0.319,0.946,54.244,-42.550,103.038
1.150,-0.262,-0.326,0.938,55.511,-42.244,106.153
1.150,-0.247,-0.330,0.925,56.718,-42.260,108.504
1.160,-0.236,-0.316,0.922,57.542,-42.519,110.275
1.160,-0.228,-0.322,0.891,58.336,-43.053,111.618
1.170,-0.206,-0.311,0.883,58.809,-43.466,112.382
1.170,-0.201,-0.303,0.861,59.267,-43.939,112.977
1.180,-0.205,-0.300,0.848,59.710,-44.992,114.031
1.180,-0.211,-0.292,0.810,59.481,-46.427,115.389
1.190,-0.214,-0.279,0.783,58.412,-47.389,117.053
1.190,-0.215,-0.275,0.774,56.840,-48.580,119.145
1.190,-0.221,-0.283,0.776,55.527,-50.473,121.466
1.200,-0.216,-0.286,0.782,54.260,-51.160,123.985
1.200,-0.212,-0.290,0.790,53.038,-50.122,127.344
1.210,-0.197,-0.295,0.792,51.954,-48.275,131.084
1.210,-0.180,-0.292,0.785,50.962,-45.603,134.504
1.220,-0.164,-0.294,0.789,50.321,-41.863,137.450
1.220,-0.141,-0.292,0.802,49.939,-37.908,139.924
1.220,-0.111,-0.294,0.795,49.771,-33.267,141.618
1.230,-0.093,-0.296,0.781,49.924,-28.656,142.977
1.230,-0.095,-0.293,0.760,49.634,-24.580,144.305
1.240,-0.092,-0.291,0.755,49.344,-21.450,145.344
1.240,-0.087,-0.293,0.747,48.916,-20.122,146.550
1.250,-0.108,-0.295,0.724,47.863,-19.634,147.588
1.250,-0.109,-0.291,0.721,46.519,-19.878,149.466
1.250,-0.133,-0.289,0.710,45.053,-21.466,152.000
1.260,-0.130,-0.299,0.699,43.435,-22.992,154.611
1.260,-0.125,-0.296,0.689,41.252,-24.870,157.221
1.270,-0.098,-0.298,0.683,38.626,-26.718,159.023
1.270,-0.068,-0.305,0.675,35.389,-28.580,160.321
1.280,-0.042,-0.313,0.685,31.725,-29.817,161.496
1.280,-0.050,-0.325,0.706,29.176,-30.122,163.282
1.290,-0.050,-0.335,0.729,27.023,-30.153,166.000
1.290,-0.032,-0.355,0.765,25.420,-28.672,169.084
1.290,-0.020,-0.358,0.778,24.305,-25.450,171.847
1.300,0.001,-0.378,0.800,23.924,-21.832,174.550
1.300,0.013,-0.387,0.822,23.985,-17.939,176.809
1.310,0.039,-0.396,0.842,24.229,-12.901,179.053
1.310,0.061,-0.408,0.860,25.511,-6.641,180.794
1.320,0.069,-0.416,0.869,25.878,-1.282,181.573
1.320,0.078,-0.424,0.867,26.336,2.519,182.000
1.320,0.070,-0.427,0.871,27.084,5.084,182.366
1.330,0.062,-0.436,0.873,27.573,6.947,182.779
1.330,0.040,-0.441,0.880,27.664,6.489,183.634
1.340,0.001,-0.453,0.877,27.542,4.137,184.611
1.340,-0.016,-0.456,0.884,27.786,0.351,186.229
1.340,-0.027,-0.468,0.878,28.275,-5.298,188.107
1.350,-0.020,-0.468,0.883,28.290,-10.443,189.740
1.350,-0.009,-0.465,0.874,28.504,-16.626,190.962
1.360,-0.004,-0.468,0.872,28.626,-24.733,192.107
1.360,0.010,-0.469,0.864,28.885,-33.481,192.656
1.370,0.050,-0.475,0.858,29.115,-37.374,192.977
1.370,0.084,-0.472,0.860,29.557,-38.168,193.344
1.370,0.116,-0.470,0.855,29.496,-40.397,194.366
1.380,0.140,-0.477,0.853,29.221,-43.496,194.733
1.380,0.187,-0.488,0.869,29.832,-44.260,194.489
1.390,0.222,-0.488,0.871,30.336,-42.198,194.031
1.390,0.231,-0.490,0.876,31.344,-39.817,193.878
1.400,0.231,-0.494,0.873,32.321,-38.397,193.221
1.400,0.243,-0.500,0.873,33.038,-36.977,192.519
1.400,0.263,-0.501,0.875,33.802,-35.618,191.160
1.410,0.271,-0.496,0.873,34.183,-33.954,189.450
1.410,0.267,-0.498,0.859,35.221,-33.023,188.382
1.420,0.256,-0.502,0.881,36.076,-32.992,188.351
1.420,0.236,-0.504,0.870,37.786,-33.389,188.962
1.420,0.236,-0.507,0.855,39.069,-34.168,189.649
1.430,0.255,-0.505,0.847,39.771,-33.771,190.427
1.430,0.268,-0.509,0.849,40.076,-32.198,191.252
1.440,0.264,-0.516,0.850,41.481,-31.969,192.580
1.440,0.268,-0.514,0.851,42.855,-32.244,194.092
1.450,0.266,-0.517,0.846,43.924,-33.237,195.847
1.450,0.278,-0.518,0.836,44.321,-33.282,197.771
1.450,0.300,-0.521,0.828,45.496,-32.305,199.969
1.460,0.292,-0.529,0.844,46.595,-32.977,202.046
1.460,0.290,-0.532,0.847,47.740,-35.160,203.740
1.470,0.320,-0.531,0.844,49.145,-36.504,205.221
1.470,0.354,-0.522,0.828,50.519,-35.954,206.076
1.480,0.389,-0.519,0.807,51.573,-35.771,206.382
1.480,0.431,-0.496,0.780,52.000,-35.817,205.863
1.480,0.476,-0.483,0.752,52.336,-36.015,203.573
1.490,0.514,-0.474,0.738,51.664,-35.985,199.435
1.490,0.560,-0.449,0.713,50.382,-35.145,194.656
1.500,0.566,-0.432,0.693,48.748,-35.130,190.000
1.500,0.574,-0.429,0.690,46.962,-36.916,184.992
1.510,0.578,-0.420,0.678,45.389,-38.885,180.260
1.510,0.571,-0.413,0.668,42.656,-39.878,175.435
1.510,0.554,-0.419,0.649,39.634,-40.595,171.206
1.520,0.497,-0.425,0.675,36.290,-43.069,167.267
1.520,0.450,-0.430,0.681,33.511,-46.046,164.855
1.530,0.420,-0.431,0.697,31.206,-49.267,164.092
1.530,0.398,-0.434,0.721,30.214,-53.084,164.061
1.540,0.401,-0.430,0.742,29.603,-56.611,164.687
1.540,0.416,-0.439,0.761,29.786,-58.870,165.069
1.540,0.433,-0.438,0.771,30.641,-59.618,165.878
1.550,0.454,-0.422,0.776,31.328,-59.802,166.595
1.550,0.473,-0.417,0.788,32.779,-60.076,166.885
1.560,0.530,-0.405,0.790,35.328,-58.214,166.244
1.560,0.604,-0.383,0.776,37.069,-53.924,164.809
1.570,0.644,-0.366,0.766,37.756,-47.603,162.107
1.570,0.672,-0.352,0.739,38.183,-42.427,159.221
1.570,0.699,-0.336,0.732,38.122,-37.847,155.649
1.580,0.726,-0.325,0.705,37.374,-31.542,151.359
1.580,0.731,-0.308,0.680,35.802,-24.702,147.405
1.590,0.720,-0.297,0.677,33.740,-19.298,143.542
1.590,0.697,-0.283,0.679,32.122,-16.550,140.397
1.600,0.676,-0.283,0.673,30.748,-14.947,138.046
1.600,0.643,-0.281,0.656,29.069,-14.015,135.588
1.600,0.615,-0.274,0.642,27.435,-15.466,133.420
1.610,0.593,-0.275,0.645,25.985,-19.389,131.252
1.610,0.586,-0.268,0.642,24.168,-22.656,128.992
1.620,0.561,-0.263,0.643,22.763,-27.145,128.183
1.620,0.563,-0.256,0.643,21.786,-31.115,126.534
1.620,0.540,-0.249,0.640,20.550,-35.969,124.351
1.630,0.540,-0.244,0.631,19.374,-41.313,123.130
1.630,0.527,-0.223,0.624,18.611,-47.893,121.771
1.640,0.547,-0.217,0.622,17.145,-52.076,120.015
1.640,0.640,-0.211,0.656,10.489,-47.634,120.366
1.650,0.748,-0.239,0.729,15.115,-38.870,116.015
1.650,0.743,-0.179,0.614,22.519,-39.374,108.626
1.650,0.680,-0.155,0.539,11.847,-49.908,105.466
1.660,0.682,-0.154,0.547,5.084,-53.664,102.534
1.660,0.726,-0.166,0.550,5.237,-49.237,98.443
1.670,0.713,-0.162,0.561,4.092,-52.443,95.084
1.670,0.728,-0.128,0.526,-0.977,-59.053,91.603
1.680,0.771,-0.145,0.510,-5.389,-62.290,87.252
1.680,0.806,-0.152,0.521,-9.481,-62.214,81.588
1.680,0.823,-0.151,0.543,-12.687,-61.527,76.855
1.690,0.809,-0.160,0.581,-15.557,-63.298,73.359
1.690,0.853,-0.189,0.633,-17.115,-60.504,69.344
1.700,0.879,-0.187,0.645,-16.840,-57.908,64.718
1.700,0.927,-0.209,0.682,-16.061,-55.115,59.237
1.700,0.936,-0.191,0.707,-13.756,-51.863,54.809
1.710,0.954,-0.221,0.713,-13.389,-50.153,51.298
1.710,0.983,-0.216,0.727,-11.649,-46.092,47.527
1.720,1.012,-0.222,0.737,-9.588,-41.069,43.893
1.720,1.013,-0.228,0.736,-7.924,-35.389,40.931
1.730,0.995,-0.221,0.736,-6.061,-30.809,38.702
1.730,0.985,-0.219,0.728,-4.366,-27.130,37.542
1.730,0.995,-0.217,0.733,-3.313,-20.855,35.832
1.740,1.014,-0.219,0.718,-2.565,-13.160,32.992
1.740,1.021,-0.212,0.724,-1.374,-7.145,29.099
1.750,1.010,-0.196,0.714,-1.069,-3.481,24.931
1.750,0.989,-0.192,0.716,-1.954,-1.038,20.611
1.750,0.953,-0.178,0.728,-2.916,1.832,16.916
1.760,0.916,-0.177,0.708,-3.847,4.061,13.450
1.760,0.883,-0.172,0.706,-4.702,5.618,10.672
1.770,0.850,-0.172,0.701,-5.832,6.504,8.000
1.770,0.815,-0.174,0.703,-7.145,8.046,5.725
1.770,0.768,-0.157,0.696,-8.489,9.237,4.641
1.780,0.743,-0.176,0.711,-10.214,11.282,3.206
1.780,0.696,-0.170,0.707,-12.214,13.069,1.878
1.790,0.651,-0.182,0.745,-13.008,13.878,1.267
1.790,0.580,-0.197,0.775,-12.412,13.344,1.420
1.790,0.513,-0.208,0.827,-10.397,11.389,2.275
1.800,0.476,-0.216,0.870,-8.107,10.748,3.099
1.800,0.453,-0.217,0.892,-5.130,10.611,3.908
1.810,0.430,-0.212,0.900,-2.198,8.901,4.229
1.810,0.421,-0.213,0.909,0.641,8.092,3.695
1.810,0.414,-0.197,0.909,3.069,8.794,3.435
1.820,0.412,-0.191,0.899,5.420,10.931,2.916
1.820,0.378,-0.189,0.867,7.420,11.985,2.153
1.830,0.350,-0.179,0.858,8.458,11.344,1.863
1.830,0.325,-0.170,0.838,8.977,10.992,1.924
1.830,0.311,-0.157,0.816,8.870,10.672,1.924
1.840,0.309,-0.148,0.806,8.397,10.962,1.954
1.840,0.304,-0.136,0.793,7.405,10.687,2.092
1.850,0.311,-0.125,0.781,5.878,11.542,1.664
1.850,0.313,-0.118,0.784,4.168,12.382,1.252
1.850,0.327,-0.115,0.774,2.519,13.450,0.534
1.860,0.338,-0.109,0.753,0.550,14.580,-0.137
1.860,0.344,-0.105,0.753,-1.969,15.634,-0.763
1.870,0.357,-0.111,0.751,-4.580,16.718,-1.191
1.870,0.364,-0.113,0.755,-6.885,18.305,-1.450
1.870,0.372,-0.121,0.771,-8.290,19.450,-1.573
1.880,0.378,-0.131,0.777,-9.527,19.954,-1.466
1.880,0.391,-0.143,0.780,-10.763,20.336,-1.802
1.890,0.404,-0.148,0.795,-11.542,20.779,-1.863
1.890,0.423,-0.167,0.792,-10.947,18.656,-2.244
1.890,0.432,-0.171,0.794,-11.420,15.771,-2.305
1.900,0.459,-0.175,0.831,-11.985,14.229,-2.183
1.900,0.514,-0.187,0.851,-10.351,17.847,-2.626
1.910,0.537,-0.186,0.855,-8.656,19.588,-3.649
1.910,0.556,-0.185,0.849,-7.603,19.588,-4.916
1.920,0.577,-0.181,0.822,-6.855,20.718,-5.771
1.920,0.594,-0.183,0.816,-6.198,22.641,-6.748
1.920,0.598,-0.181,0.812,-5.634,23.863,-7.603
1.930,0.598,-0.175,0.800,-5.038,23.313,-8.687
1.930,0.604,-0.177,0.786,-5.115,21.817,-9.710
1.940,0.628,-0.173,0.790,-5.267,21.252,-11.313
1.940,0.654,-0.174,0.788,-5.191,22.122,-12.855
1.940,0.669,-0.174,0.777,-4.641,22.473,-14.672
1.950,0.667,-0.173,0.758,-4.382,21.710,-16.626
1.950,0.675,-0.164,0.729,-4.656,20.443,-18.397
1.960,0.684,-0.159,0.715,-5.481,19.282,-20.473
1.960,0.708,-0.157,0.703,-6.351,17.649,-22.931
1.960,0.723,-0.150,0.687,-7.389,15.298,-25.893
1.970,0.739,-0.157,0.656,-8.885,12.840,-29.511
1.970,0.742,-0.155,0.641,-11.115,9.939,-33.023
1.980,0.754,-0.149,0.626,-13.573,6.824,-36.748
1.980,0.765,-0.153,0.607,-16.458,3.267,-40.947
1.990,0.780,-0.155,0.603,-20.000,1.038,-44.794
1.990,0.793,-0.153,0.610,-23.466,-0.443,-48.931
1.990,0.823,-0.164,0.631,-26.046,0.229,-53.252
2.000,0.838,-0.164,0.622,-28.473,0.290,-58.382
2.000,0.857,-0.162,0.619,-30.718,0.931,-63.282
2.010,0.862,-0.170,0.617,-33.557,2.885,-68.260
2.010,0.862,-0.180,0.625,-36.061,5.084,-72.824
2.010,0.870,-0.181,0.638,-38.962,8.718,-76.366
2.020,0.868,-0.185,0.652,-40.458,13.359,-80.015
2.020,0.868,-0.195,0.646,-42.214,18.931,-83.466
2.030,0.864,-0.206,0.641,-44.702,24.366,-86.305
2.030,0.850,-0.205,0.645,-46.061,27.679,-89.038
2.040,0.812,-0.214,0.661,-43.557,25.466,-91.695
2.040,0.818,-0.233,0.643,-44.336,24.641,-95.878
2.040,0.855,-0.212,0.576,-49.221,30.672,-99.786
2.050,0.855,-0.215,0.533,-54.885,37.252,-103.954
2.050,0.809,-0.228,0.535,-59.420,39.420,-107.893
2.060,0.783,-0.233,0.554,-62.840,38.626,-111.053
2.060,0.781,-0.247,0.563,-65.817,37.466,-114.534
2.070,0.775,-0.248,0.531,-69.160,36.870,-117.847
2.070,0.750,-0.254,0.518,-72.718,35.908,-120.672
2.070,0.724,-0.256,0.499,-76.611,33.176,-123.008
2.080,0.710,-0.269,0.502,-80.046,29.328,-125.344
2.080,0.703,-0.274,0.491,-82.840,25.466,-127.664
2.090,0.692,-0.280,0.489,-86.061,21.298,-129.710
2.090,0.694,-0.283,0.469,-89.924,16.489,-132.000
2.100,0.707,-0.294,0.456,-93.634,13.099,-134.168
2.100,0.710,-0.304,0.448,-98.229,11.527,-136.947
2.110,0.714,-0.318,0.449,-103.115,12.641,-139.282
2.110,0.711,-0.333,0.453,-107.939,15.344,-140.962
2.110,0.696,-0.357,0.481,-111.053,17.893,-142.092
2.120,0.689,-0.383,0.542,-112.382,20.366,-143.450
2.120,0.662,-0.419,0.638,-111.206,23.023,-144.443
2.130,0.632,-0.456,0.701,-106.702,25.115,-144.916
2.130,0.622,-0.466,0.710,-104.580,30.824,-145.542
2.140,0.607,-0.499,0.724,-103.130,42.015,-146.473
2.140,0.565,-0.517,0.782,-100.733,52.702,-146.244
2.140,0.521,-0.540,0.814,-95.939,60.656,-145.710
2.150,0.492,-0.557,0.865,-89.756,65.389,-145.618
2.150,0.465,-0.558,0.888,-83.649,67.649,-145.176
2.160,0.446,-0.557,0.873,-78.962,70.183,-144.626
2.160,0.446,-0.577,0.851,-75.939,74.183,-144.565
2.170,0.450,-0.558,0.833,-74.947,78.702,-145.435
2.170,0.449,-0.550,0.804,-74.595,81.573,-146.733
2.180,0.439,-0.547,0.790,-74.412,81.313,-147.939
2.180,0.429,-0.545,0.785,-74.290,78.427,-149.252
2.180,0.439,-0.538,0.773,-75.099,74.702,-150.656
2.190,0.461,-0.533,0.742,-76.031,70.962,-153.405
2.190,0.494,-0.533,0.717,-77.679,66.748,-157.176
2.200,0.525,-0.531,0.700,-78.779,61.740,-161.893
2.200,0.558,-0.529,0.686,-79.985,57.374,-167.130
2.210,0.573,-0.541,0.677,-81.069,52.962,-172.137
2.210,0.574,-0.538,0.656,-82.550,49.481,-177.664
2.210,0.580,-0.560,0.660,-84.824,46.718,-182.962
2.220,0.551,-0.582,0.687,-85.771,44.885,-187.191
2.220,0.505,-0.621,0.754,-84.763,43.450,-190.061
2.230,0.462,-0.643,0.805,-81.985,42.015,-191.389
2.230,0.426,-0.666,0.839,-77.450,40.885,-191.924
2.240,0.408,-0.683,0.893,-71.634,40.397,-192.504
2.240,0.417,-0.702,0.904,-65.267,41.176,-193.038
2.240,0.410,-0.715,0.921,-59.542,44.107,-193.374
2.250,0.417,-0.716,0.902,-54.550,48.153,-193.618
2.250,0.413,-0.713,0.888,-50.153,52.137,-194.656
2.260,0.432,-0.706,0.875,-46.183,55.634,-195.740
2.260,0.442,-0.696,0.850,-43.160,58.137,-198.137
2.270,0.453,-0.690,0.828,-40.382,60.611,-200.092
2.270,0.449,-0.694,0.794,-38.183,60.992,-202.672
2.280,0.436,-0.679,0.772,-36.748,58.855,-204.947
2.280,0.419,-0.676,0.731,-36.321,55.847,-206.901
2.280,0.408,-0.669,0.708,-36.458,52.031,-208.412
2.290,0.402,-0.666,0.687,-36.427,47.038,-209.557
2.290,0.400,-0.661,0.690,-36.473,41.420,-210.916
2.300,0.411,-0.655,0.680,-37.221,36.580,-212.321
2.300,0.435,-0.651,0.659,-38.504,33.176,-212.947
2.310,0.451,-0.654,0.654,-40.382,32.580,-216.198
2.310,0.472,-0.651,0.667,-42.763,34.015,-218.565
2.310,0.481,-0.662,0.652,-45.450,37.756,-220.977
2.320,0.456,-0.678,0.657,-47.435,42.168,-222.473
2.320,0.422,-0.691,0.660,-50.183,47.649,-223.634
2.330,0.387,-0.706,0.656,-52.885,53.145,-224.321
2.330,0.351,-0.722,0.664,-55.618,58.000,-224.626
2.340,0.311,-0.726,0.662,-57.740,61.435,-224.565
2.340,0.258,-0.734,0.685,-59.756,61.771,-223.832
2.340,0.223,-0.743,0.712,-60.733,60.382,-222.366
2.350,0.175,-0.754,0.745,-60.519,57.924,-219.740
2.350,0.112,-0.756,0.773,-59.053,54.214,-215.511
2.360,0.084,-0.749,0.802,-56.382,49.496,-209.435
2.360,0.070,-0.749,0.830,-52.794,45.374,-203.511
2.370,0.062,-0.721,0.850,-51.863,42.626,-195.328
2.370,0.105,-0.797,1.035,-35.618,41.695,-190.412
2.380,0.070,-0.661,0.622,-34.840,25.313,-184.748
2.380,-0.027,-0.667,0.815,-40.702,9.832,-174.947
2.380,0.151,-0.667,0.844,-34.000,18.305,-173.618
2.390,0.203,-0.643,0.896,-23.542,11.527,-170.947
2.390,0.221,-0.633,0.810,-20.015,-2.992,-171.817
2.400,0.276,-0.587,0.730,-24.779,-1.573,-169.481
2.400,0.323,-0.608,0.689,-25.206,11.954,-169.893
2.410,0.304,-0.586,0.713,-27.344,22.397,-168.137
2.410,0.235,-0.601,0.738,-27.924,24.504,-167.252
2.410,0.220,-0.592,0.707,-30.260,26.504,-166.336
2.420,0.226,-0.588,0.676,-33.710,33.130,-166.412
2.420,0.222,-0.594,0.679,-37.206,37.252,-165.603
2.430,0.181,-0.601,0.680,-41.405,38.840,-165.298
2.430,0.135,-0.593,0.683,-44.916,38.092,-164.198
2.440,0.083,-0.609,0.714,-48.214,38.748,-162.015
2.440,0.073,-0.612,0.711,-51.786,42.061,-158.000
2.440,0.020,-0.611,0.754,-52.916,43.649,-153.344
2.450,0.006,-0.597,0.788,-53.969,45.817,-147.573
2.450,-0.017,-0.592,0.811,-54.550,47.954,-141.115
2.460,-0.020,-0.592,0.839,-54.076,51.893,-134.244
2.460,-0.017,-0.589,0.893,-52.321,56.122,-127.756
2.470,0.014,-0.572,0.885,-48.962,61.084,-121.878
2.470,0.046,-0.557,0.896,-46.672,66.244,-117.756
2.480,0.101,-0.545,0.900,-44.107,73.252,-114.748
2.480,0.117,-0.529,0.900,-40.931,77.985,-113.969
2.480,0.160,-0.512,0.855,-40.427,84.947,-113.176
2.490,0.146,-0.501,0.847,-39.038,89.573,-113.466
2.490,0.135,-0.480,0.802,-38.931,93.435,-113.008
2.500,0.105,-0.477,0.805,-39.053,95.069,-112.901
2.500,0.056,-0.466,0.785,-38.779,97.328,-111.008
2.510,0.030,-0.460,0.777,-40.107,95.908,-108.382
2.510,-0.026,-0.447,0.760,-41.267,91.374,-105.771
2.510,-0.029,-0.439,0.757,-42.672,87.008,-102.718
2.520,-0.036,-0.436,0.768,-44.534,83.145,-99.466
2.520,-0.023,-0.429,0.766,-45.328,79.206,-96.733
2.530,-0.008,-0.424,0.779,-45.176,74.122,-95.115
2.530,0.004,-0.422,0.783,-45.832,69.298,-93.511
2.540,0.023,-0.405,0.779,-46.702,67.038,-92.153
2.540,0.037,-0.400,0.790,-47.099,64.992,-90.702
2.540,0.038,-0.402,0.811,-47.023,63.069,-89.710
2.550,0.042,-0.396,0.810,-46.534,61.481,-88.382
2.550,0.051,-0.395,0.814,-46.000,60.550,-87.008
2.560,0.041,-0.399,0.827,-44.626,58.412,-85.740
2.560,0.038,-0.400,0.858,-42.672,55.023,-84.748
2.570,0.050,-0.402,0.865,-40.794,51.160,-84.214
2.570,0.078,-0.402,0.870,-38.611,47.954,-84.397
2.570,0.073,-0.413,0.891,-36.840,44.168,-84.580
2.580,0.064,-0.417,0.894,-34.794,40.901,-84.718
2.580,0.054,-0.417,0.896,-33.267,37.847,-84.595
2.590,0.049,-0.425,0.894,-31.756,35.969,-83.740
2.590,0.040,-0.418,0.894,-30.534,34.855,-82.794
2.600,0.029,-0.416,0.884,-29.893,35.176,-80.977
2.600,0.023,-0.420,0.874,-29.435,36.779,-78.931
2.600,0.021,-0.415,0.879,-29.221,39.603,-76.580
2.610,0.022,-0.414,0.859,-29.817,43.191,-74.427
2.610,0.018,-0.406,0.861,-29.954,45.573,-72.061
2.620,0.014,-0.407,0.881,-29.939,47.038,-69.817
2.620,0.016,-0.405,0.860,-30.321,48.412,-68.336
2.630,0.024,-0.399,0.848,-30.763,50.626,-67.176
2.630,0.018,-0.397,0.840,-31.191,52.046,-66.214
2.630,0.011,-0.390,0.837,-31.344,52.366,-65.206
2.640,0.001,-0.389,0.836,-31.542,51.496,-64.611
2.640,0.001,-0.391,0.834,-30.534,48.870,-64.382
2.650,-0.014,-0.394,0.848,-29.679,44.061,-64.351
2.650,-0.029,-0.389,0.845,-29.084,38.687,-64.427
2.660,-0.033,-0.396,0.847,-28.427,32.702,-64.595
2.660,-0.052,-0.385,0.850,-28.107,26.198,-64.656
2.660,-0.059,-0.382,0.861,-27.847,17.679,-64.595
2.670,-0.060,-0.385,0.864,-27.771,10.580,-63.908
2.670,-0.056,-0.382,0.883,-27.389,5.221,-62.947
2.680,-0.078,-0.387,0.890,-26.748,0.015,-61.511
2.680,-0.079,-0.385,0.901,-26.397,-4.244,-59.084
2.690,-0.077,-0.383,0.901,-25.893,-5.603,-56.427
2.690,-0.061,-0.386,0.913,-24.992,-4.947,-53.786
2.690,-0.052,-0.388,0.930,-23.725,-2.962,-51.038
2.700,-0.052,-0.387,0.936,-22.321,-0.824,-48.137
2.700,-0.052,-0.395,0.945,-20.595,1.588,-45.298
2.710,-0.042,-0.395,0.938,-18.702,5.634,-42.794
2.710,-0.049,-0.389,0.938,-17.282,9.664,-39.878
2.720,-0.058,-0.380,0.930,-16.015,12.855,-36.962
2.720,-0.049,-0.377,0.909,-14.611,15.527,-34.092
2.720,-0.048,-0.357,0.889,-14.504,16.870,-31.924
2.730,-0.041,-0.354,0.897,-14.641,18.000,-30.046
2.730,-0.032,-0.347,0.890,-14.244,17.588,-28.489
2.740,-0.039,-0.339,0.895,-14.214,15.954,-27.298
2.740,-0.046,-0.335,0.880,-14.519,13.618,-25.710
2.750,-0.039,-0.326,0.877,-14.641,11.359,-23.908
2.750,-0.025,-0.326,0.888,-14.748,9.344,-22.427
2.750,-0.028,-0.320,0.879,-15.145,7.206,-20.718
2.760,-0.020,-0.321,0.892,-15.908,5.649,-19.023
2.760,-0.030,-0.319,0.885,-15.023,3.725,-17.969
2.770,0.005,-0.311,0.879,-16.992,5.084,-15.695
2.770,0.018,-0.321,0.914,-16.809,5.145,-14.473
2.780,0.029,-0.319,0.928,-15.649,8.351,-13.389
2.780,0.023,-0.327,0.932,-14.275,9.450,-11.557
2.780,0.008,-0.323,0.924,-14.824,9.191,-9.603
2.790,0.004,-0.319,0.919,-14.595,9.450,-7.573
2.790,0.002,-0.327,0.935,-13.435,8.748,-5.679
2.800,0.001,-0.328,0.953,-12.275,7.374,-3.481
2.800,0.010,-0.327,0.953,-10.229,6.565,-1.679
2.800,0.018,-0.327,0.961,-8.840,5.252,0.382
2.810,0.031,-0.325,0.960,-8.137,3.069,2.137
2.810,0.047,-0.319,0.950,-7.710,0.977,3.466
2.820,0.082,-0.316,0.961,-7.298,-0.489,4.870
2.820,0.098,-0.315,0.958,-7.206,-1.160,5.649
2.820,0.120,-0.316,0.959,-6.458,-1.145,6.321
2.830,0.134,-0.312,0.966,-6.092,-1.389,6.885
2.830,0.145,-0.312,0.961,-6.198,-0.840,7.053
2.840,0.164,-0.313,0.969,-6.427,1.130,7.496
2.840,0.191,-0.316,0.957,-6.076,2.947,7.084
2.840,0.200,-0.312,0.984,-5.893,4.702,6.244
2.850,0.212,-0.317,0.974,-5.053,6.290,5.282
2.850,0.218,-0.316,0.977,-4.550,7.374,3.725
2.860,0.221,-0.317,0.977,-3.756,9.282,2.351
2.860,0.215,-0.326,0.985,-2.321,10.458,1.420
2.860,0.194,-0.333,0.983,-0.870,11.145,0.473
2.870,0.173,-0.336,0.991,0.977,11.221,0.031
2.870,0.165,-0.337,0.969,2.305,11.435,0.107
2.880,0.140,-0.345,0.974,3.740,10.015,0.351
2.880,0.115,-0.346,0.956,4.809,7.481,0.611
2.880,0.117,-0.344,0.960,5.664,5.130,0.901
2.890,0.127,-0.342,0.963,6.183,3.252,0.809
2.890,0.128,-0.340,0.952,7.130,1.206,0.809
2.890,0.120,-0.339,0.952,7.939,-0.870,1.053
2.900,0.118,-0.330,0.940,8.443,-2.855,1.282
2.900,0.116,-0.327,0.927,8.641,-4.427,1.588
2.910,0.123,-0.326,0.924,8.779,-5.298,1.893
2.910,0.131,-0.318,0.917,8.748,-6.275,2.427
2.910,0.126,-0.326,0.912,9.038,-6.336,3.084
2.920,0.131,-0.327,0.916,9.328,-6.046,3.908
2.920,0.134,-0.322,0.898,9.145,-5.328,4.656
2.930,0.153,-0.314,0.897,8.931,-4.489,5.084
2.930,0.157,-0.314,0.905,8.931,-3.740,5.160
2.930,0.166,-0.319,0.900,9.069,-2.962,5.481
2.940,0.158,-0.321,0.907,9.237,-2.809,5.649
2.940,0.165,-0.316,0.893,9.557,-3.267,5.893
2.950,0.173,-0.317,0.878,9.695,-3.542,5.634
2.950,0.175,-0.312,0.885,9.649,-3.527,5.252
2.950,0.167,-0.313,0.881,9.771,-3.817,5.420
2.960,0.153,-0.317,0.883,10.076,-4.947,5.420
2.960,0.154,-0.311,0.871,10.458,-6.947,5.588
2.960,0.155,-0.318,0.862,10.351,-8.489,5.588
2.970,0.158,-0.311,0.846,10.473,-9.405,5.527
2.970,0.157,-0.308,0.841,10.183,-10.977,5.466
2.980,0.156,-0.307,0.843,9.863,-12.931,5.176
2.980,0.166,-0.316,0.847,10.031,-14.412,5.069
2.990,0.176,-0.299,0.843,10.061,-14.794,5.420
2.990,0.179,-0.313,0.839,10.382,-14.748,5.756
2.990,0.189,-0.307,0.840,10.916,-13.450,5.908
3.000,0.190,-0.308,0.840,11.008,-11.878,6.473
3.000,0.208,-0.303,0.842,11.542,-9.908,7.099
3.010,0.211,-0.309,0.841,12.137,-7.344,7.603
3.010,0.218,-0.301,0.834,12.107,-5.252,7.969
3.010,0.227,-0.301,0.828,11.771,-3.389,8.153
3.020,0.233,-0.293,0.828,11.847,-1.252,8.153
3.020,0.239,-0.288,0.833,11.969,1.221,7.863
3.030,0.239,-0.285,0.811,11.908,2.397,7.756
3.030,0.228,-0.278,0.809,11.115,2.046,7.435
3.030,0.243,-0.281,0.802,10.687,1.817,6.748
3.040,0.244,-0.278,0.785,9.969,2.076,6.397
3.040,0.244,-0.268,0.795,9.511,2.840,6.107
3.040,0.239,-0.268,0.783,9.359,2.565,5.496
3.050,0.233,-0.274,0.781,8.443,1.908,5.374
3.050,0.230,-0.270,0.779,7.847,1.038,4.855
3.060,0.225,-0.269,0.777,7.664,0.198,4.473
3.060,0.225,-0.266,0.786,7.206,-0.733,4.183
3.060,0.221,-0.271,0.781,6.702,-1.344,4.198
3.070,0.218,-0.276,0.794,6.076,-2.366,3.878
3.070,0.224,-0.270,0.791,5.115,-2.992,3.832
3.080,0.227,-0.264,0.777,4.641,-2.824,4.046
3.080,0.227,-0.268,0.786,4.168,-2.214,4.290
3.080,0.226,-0.262,0.792,3.588,-2.244,4.443
3.090,0.234,-0.266,0.785,3.084,-2.489,4.366
3.090,0.242,-0.265,0.778,2.412,-1.664,4.397
3.090,0.269,-0.263,0.794,1.466,-0.275,4.076
3.100,0.265,-0.266,0.796,1.023,0.977,3.740
3.100,0.265,-0.267,0.802,0.550,1.985,3.374
3.110,0.265,-0.263,0.791,-0.031,2.321,2.977
3.110,0.259,-0.268,0.791,-0.580,2.718,2.397
3.110,0.252,-0.269,0.802,-1.359,2.718,2.031
3.120,0.248,-0.268,0.806,-1.802,2.122,1.389
3.120,0.245,-0.278,0.823,-2.015,1.725,1.008
3.130,0.229,-0.279,0.822,-2.382,1.221,0.840
3.130,0.229,-0.275,0.825,-2.473,0.458,0.305
3.130,0.216,-0.276,0.823,-2.931,-0.458,0.183
3.140,0.213,-0.279,0.820,-2.901,-1.450,-0.214
3.140,0.205,-0.284,0.823,-3.206,-3.145,-0.305
3.150,0.197,-0.281,0.823,-3.817,-4.687,-0.122
3.150,0.197,-0.284,0.832,-3.893,-5.267,0.489
3.150,0.203,-0.285,0.838,-4.321,-5.160,0.962
3.160,0.208,-0.282,0.839,-4.168,-4.458,1.435
3.160,0.208,-0.297,0.842,-4.198,-4.000,2.076
3.170,0.212,-0.296,0.852,-4.137,-3.542,2.489
3.170,0.220,-0.295,0.853,-4.107,-2.611,3.115
3.170,0.224,-0.297,0.859,-3.954,-1.466,3.649
3.180,0.241,-0.301,0.867,-3.771,0.092,3.863
3.180,0.245,-0.307,0.873,-3.405,1.481,4.122
3.190,0.254,-0.301,0.880,-3.038,2.351,3.863
3.190,0.262,-0.306,0.890,-2.733,3.023,3.405
3.190,0.258,-0.313,0.885,-2.061,3.252,3.160
3.200,0.259,-0.315,0.895,-1.099,3.878,3.130
3.200,0.266,-0.310,0.885,-0.168,3.878,2.672
3.210,0.259,-0.313,0.886,0.351,3.863,2.260
3.210,0.267,-0.308,0.877,0.977,3.725,1.634
3.210,0.257,-0.301,0.877,1.176,3.496,1.084
3.220,0.257,-0.306,0.870,1.756,3.588,0.779
3.220,0.257,-0.298,0.858,1.954,3.603,0.229
3.220,0.253,-0.292,0.846,1.771,3.679,-0.015
3.230,0.242,-0.295,0.836,1.695,3.802,-0.015
3.230,0.238,-0.290,0.830,1.053,3.344,-0.519
3.240,0.235,-0.292,0.816,0.824,2.885,-0.321
3.240,0.235,-0.285,0.816,0.275,2.198,-0.718
3.240,0.214,-0.275,0.805,-0.443,0.992,-0.763
3.250,0.209,-0.281,0.827,-1.557,-1.130,-0.427
3.250,0.215,-0.281,0.817,-2.122,-2.260,-0.656
3.260,0.221,-0.285,0.827,-2.321,-2.840,-0.656
3.260,0.216,-0.282,0.826,-2.519,-4.168,-0.641
3.260,0.213,-0.287,0.826,-2.748,-5.664,-0.687
3.270,0.220,-0.281,0.833,-3.176,-6.122,-0.748
3.270,0.237,-0.284,0.823,-3.191,-6.550,-0.916
3.280,0.255,-0.283,0.823,-3.221,-6.870,-1.298
3.280,0.254,-0.280,0.836,-3.252,-7.115,-1.557
3.280,0.255,-0.283,0.831,-3.420,-6.885,-2.198
3.290,0.259,-0.283,0.835,-3.359,-6.473,-2.672
3.290,0.252,-0.289,0.831,-3.206,-6.000,-2.870
3.300,0.249,-0.285,0.833,-3.237,-5.756,-2.748
3.300,0.246,-0.288,0.845,-3.466,-5.542,-2.412
3.310,0.247,-0.293,0.862,-2.748,-4.244,-1.802
3.310,0.245,-0.294,0.857,-2.092,-2.718,-1.481
3.310,0.249,-0.295,0.852,-1.374,-1.557,-1.420
3.320,0.260,-0.293,0.846,-1.160,-0.198,-1.924
3.320,0.255,-0.288,0.834,-1.603,1.374,-2.290
3.330,0.257,-0.288,0.836,-2.000,2.229,-2.733
3.330,0.245,-0.290,0.850,-2.137,2.733,-3.023
3.330,0.236,-0.296,0.851,-1.954,3.802,-2.855
3.340,0.234,-0.296,0.851,-1.557,5.053,-2.931
3.340,0.227,-0.292,0.849,-0.947,6.397,-2.656
3.350,0.214,-0.284,0.844,-0.870,6.672,-2.275
3.350,0.197,-0.292,0.838,-0.779,6.214,-1.786
3.350,0.198,-0.293,0.836,-0.168,5.618,-1.893
3.360,0.186,-0.291,0.831,-0.122,4.901,-1.664
3.360,0.181,-0.280,0.832,0.046,4.244,-1.557
3.370,0.184,-0.291,0.816,0.122,3.496,-1.374
3.370,0.183,-0.288,0.819,-0.031,2.809,-1.328
3.370,0.179,-0.280,0.813,-0.443,1.954,-1.084
3.380,0.182,-0.280,0.817,-0.519,1.084,-0.916
3.380,0.174,-0.282,0.818,-0.519,0.260,-0.885
3.390,0.177,-0.285,0.809,-0.412,0.336,-0.565
3.390,0.181,-0.282,0.812,-0.565,0.718,0.031
3.390,0.180,-0.280,0.806,-0.489,1.206,0.351
3.400,0.174,-0.279,0.805,-0.718,1.374,0.748
3.400,0.172,-0.279,0.812,-0.824,1.542,1.252
3.400,0.181,-0.284,0.813,-1.053,1.252,1.542
3.410,0.183,-0.282,0.800,-1.237,0.824,1.328
3.410,0.181,-0.280,0.807,-2.107,-0.336,0.855
3.420,0.195,-0.278,0.801,-2.824,-0.580,0.473
3.420,0.194,-0.280,0.818,-2.977,-0.504,0.458
3.420,0.198,-0.283,0.817,-2.962,-0.168,0.336
3.430,0.186,-0.287,0.818,-3.115,-0.137,0.565
3.430,0.183,-0.284,0.828,-2.992,-0.214,0.595
3.440,0.184,-0.288,0.819,-2.809,-0.687,0.733
3.440,0.181,-0.281,0.807,-3.008,-1.191,0.702
3.440,0.178,-0.287,0.812,-3.328,-1.359,1.313
3.450,0.182,-0.288,0.822,-3.099,-1.145,1.481
3.450,0.182,-0.289,0.821,-2.977,-0.809,1.649
3.460,0.187,-0.286,0.822,-3.405,-0.595,2.244
3.460,0.190,-0.284,0.820,-4.260,-0.122,2.656
3.460,0.196,-0.283,0.828,-4.794,0.244,3.008
3.470,0.203,-0.289,0.844,-5.191,0.763,3.359
3.470,0.208,-0.289,0.849,-4.565,1.115,3.221
3.480,0.215,-0.288,0.868,-4.061,1.237,3.420
3.480,0.208,-0.286,0.860,-3.878,1.069,3.420
3.480,0.213,-0.292,0.857,-3.969,0.840,3.511
3.490,0.226,-0.293,0.855,-3.237,0.947,3.328
3.490,0.229,-0.288,0.867,-2.489,0.763,2.885
3.500,0.225,-0.298,0.859,-2.626,-0.229,2.702
3.500,0.234,-0.286,0.858,-2.473,-1.115,2.275
3.500,0.234,-0.292,0.862,-1.771,-0.962,2.092
3.510,0.237,-0.296,0.861,-1.588,-0.565,1.817
3.510,0.237,-0.288,0.855,-1.313,0.061,1.740
3.520,0.237,-0.291,0.859,-0.901,0.687,1.634
3.520,0.234,-0.286,0.855,-1.221,1.511,1.664
3.520,0.234,-0.288,0.841,-1.069,2.794,1.908
3.530,0.230,-0.283,0.852,-1.298,4.137,2.015
3.530,0.230,-0.292,0.831,-1.649,5.511,2.397
3.540,0.225,-0.291,0.844,-1.893,7.145,2.718
3.540,0.219,-0.285,0.841,-1.893,8.473,2.916
3.540,0.217,-0.289,0.832,-2.519,9.496,3.267
3.550,0.216,-0.286,0.832,-3.008,9.466,3.267
3.550,0.206,-0.283,0.830,-3.115,9.237,3.496
3.550,0.203,-0.293,0.823,-3.115,8.748,3.817
3.560,0.194,-0.289,0.827,-3.893,7.924,4.076
3.560,0.191,-0.295,0.827,-4.305,7.069,4.595
3.570,0.192,-0.284,0.840,-5.099,6.443,5.267
3.570,0.199,-0.298,0.840,-4.840,6.733,5.710
3.570,0.191,-0.288,0.851,-4.550,6.260,6.351
3.580,0.185,-0.291,0.841,-4.702,5.221,6.641
3.580,0.188,-0.301,0.843,-5.023,4.489,7.405
3.590,0.171,-0.299,0.851,-4.931,2.870,7.969
3.590,0.153,-0.297,0.855,-4.947,-0.763,9.374
3.590,0.163,-0.301,0.868,-5.115,-3.969,10.870
3.600,0.167,-0.303,0.864,-5.053,-5.053,11.389
3.600,0.190,-0.304,0.847,-7.511,-3.115,12.489
3.610,0.230,-0.299,0.862,-8.107,0.824,11.939
3.610,0.208,-0.322,0.922,-5.618,-0.107,11.649
3.610,0.166,-0.325,0.904,-4.748,-4.534,12.366
3.620,0.176,-0.321,0.885,-5.191,-9.450,13.053
3.620,0.229,-0.312,0.884,-4.611,-10.595,11.939
3.630,0.228,-0.318,0.890,-3.130,-12.611,11.206
3.630,0.212,-0.313,0.881,-2.321,-14.870,10.290
3.630,0.197,-0.320,0.865,-2.473,-18.305,9.542
3.640,0.199,-0.313,0.849,-3.313,-20.519,8.626
3.640,0.203,-0.307,0.831,-4.275,-22.351,8.122
3.650,0.208,-0.303,0.831,-5.069,-24.000,7.359
3.650,0.204,-0.296,0.827,-6.794,-24.977,7.298
3.660,0.212,-0.299,0.830,-7.496,-26.015,7.160
3.660,0.238,-0.304,0.842,-7.786,-27.466,6.534
3.660,0.266,-0.303,0.845,-8.061,-26.962,5.649
3.670,0.284,-0.299,0.859,-8.870,-24.947,4.351
3.670,0.294,-0.311,0.840,-9.160,-22.046,3.282
3.680,0.286,-0.302,0.837,-9.237,-18.443,2.183
3.680,0.285,-0.314,0.844,-9.435,-14.107,1.267
3.680,0.291,-0.317,0.847,-9.176,-9.084,0.870
3.690,0.275,-0.309,0.849,-9.206,-5.679,0.916
3.690,0.262,-0.313,0.844,-9.557,-3.145,1.145
3.700,0.259,-0.316,0.838,-9.863,-0.611,1.160
3.700,0.261,-0.317,0.834,-10.779,1.603,1.008
3.700,0.251,-0.312,0.846,-11.603,3.282,1.084
3.710,0.259,-0.319,0.863,-11.573,3.405,0.901
3.710,0.235,-0.320,0.860,-11.939,-1.924,2.366
3.720,0.224,-0.312,0.849,-14.763,-10.229,2.840
3.720,0.221,-0.316,0.821,-17.008,-14.443,2.534
3.720,0.240,-0.304,0.837,-16.855,-14.183,3.344
3.730,0.235,-0.321,0.861,-16.214,-16.702,3.908
3.730,0.233,-0.314,0.844,-16.427,-21.176,3.954
3.740,0.258,-0.309,0.837,-17.298,-24.153,3.695
3.740,0.282,-0.302,0.819,-18.687,-28.809,3.878
3.740,0.274,-0.313,0.810,-21.649,-32.321,2.107
3.750,0.297,-0.308,0.812,-23.679,-31.405,1.389
3.750,0.273,-0.314,0.836,-22.183,-32.840,0.504
3.760,0.274,-0.320,0.848,-20.947,-35.939,-0.855
3.760,0.268,-0.317,0.820,-20.611,-35.496,-1.481
3.770,0.272,-0.328,0.815,-21.053,-32.336,-2.305
3.770,0.244,-0.309,0.825,-20.061,-32.122,-1.756
3.770,0.242,-0.321,0.817,-18.321,-31.725,-1.725
3.780,0.231,-0.322,0.808,-16.931,-30.687,-2.168
3.780,0.253,-0.324,0.834,-15.282,-27.252,-2.229
3.790,0.272,-0.327,0.827,-13.221,-21.252,-2.260
3.790,0.275,-0.329,0.808,-12.473,-15.771,-2.763
3.800,0.271,-0.315,0.810,-12.229,-11.237,-2.626
3.800,0.280,-0.317,0.802,-11.893,-7.130,-2.748
3.800,0.286,-0.324,0.814,-11.298,-3.282,-2.687
3.810,0.288,-0.324,0.816,-10.183,1.618,-2.718
3.810,0.290,-0.332,0.842,-9.359,6.031,-2.870
3.820,0.303,-0.333,0.825,-8.321,9.954,-2.718
3.820,0.305,-0.330,0.828,-7.786,12.458,-2.595
3.820,0.280,-0.328,0.846,-7.557,12.824,-2.153
3.830,0.271,-0.336,0.853,-7.053,13.237,-1.221
3.830,0.264,-0.335,0.854,-5.802,14.718,-0.519
3.840,0.266,-0.331,0.848,-5.802,15.802,-0.580
3.840,0.264,-0.344,0.849,-6.000,14.809,-1.389
3.840,0.262,-0.333,0.825,-7.099,15.206,-1.313
3.850,0.260,-0.312,0.808,-9.573,16.229,-1.481
3.850,0.238,-0.339,0.809,-10.153,14.962,-1.832
3.860,0.229,-0.345,0.841,-10.137,12.916,-1.847
3.860,0.237,-0.341,0.846,-9.863,13.756,-2.183
3.870,0.225,-0.344,0.828,-10.809,14.779,-1.893
3.870,0.209,-0.339,0.847,-11.160,13.313,-1.206
3.870,0.191,-0.341,0.836,-10.504,12.137,-0.626
3.880,0.199,-0.342,0.843,-9.695,11.878,0.137
3.880,0.204,-0.349,0.856,-8.916,11.298,0.458
3.890,0.206,-0.342,0.844,-8.672,11.878,0.824
3.890,0.213,-0.341,0.838,-8.092,12.305,1.237
3.890,0.212,-0.354,0.845,-7.405,12.733,0.947
3.900,0.211,-0.350,0.842,-6.718,13.313,0.916
3.900,0.226,-0.344,0.839,-5.664,14.366,0.733
3.910,0.219,-0.350,0.855,-3.893,15.389,0.733
3.910,0.220,-0.357,0.858,-2.427,15.023,1.053
3.910,0.214,-0.351,0.859,-1.206,13.588,0.977
3.920,0.227,-0.351,0.846,-0.305,13.573,0.473
3.920,0.235,-0.347,0.859,0.611,14.397,0.229
3.930,0.229,-0.351,0.845,1.969,15.099,0.031
3.930,0.226,-0.351,0.842,1.756,16.198,-0.198
3.930,0.221,-0.351,0.850,2.870,17.420,-0.351
3.940,0.226,-0.335,0.842,2.779,20.168,-0.397
3.940,0.242,-0.346,0.844,3.069,21.527,-0.824
3.950,0.218,-0.345,0.837,3.252,21.466,-1.176
3.950,0.190,-0.347,0.837,3.649,19.405,-0.885
3.950,0.186,-0.344,0.844,3.710,17.664,-0.336
3.960,0.182,-0.359,0.836,3.649,17.191,0.382
3.960,0.196,-0.346,0.834,3.221,17.481,1.160
3.970,0.189,-0.349,0.818,2.962,18.168,1.344
3.970,0.195,-0.349,0.819,2.992,19.053,1.756
3.970,0.181,-0.344,0.833,3.893,18.427,1.939
3.980,0.165,-0.341,0.840,4.656,16.626,1.710
3.980,0.234,-0.333,0.835,5.893,21.145,1.511
3.980,0.191,-0.357,0.843,6.290,20.870,1.664
3.990,0.160,-0.342,0.805,4.718,14.626,1.832
3.990,0.156,-0.319,0.797,3.695,8.901,1.832
4.000,0.179,-0.326,0.789,3.191,6.534,1.542
4.000,0.181,-0.322,0.789,2.473,3.298,1.023
4.000,0.165,-0.331,0.822,1.008,-6.168,0.962
4.010,0.179,-0.350,0.810,1.420,-7.695,0.824
4.010,0.204,-0.291,0.781,-0.885,-6.015,1.099
4.020,0.177,-0.320,0.767,-1.649,-10.107,0.534
4.020,0.173,-0.323,0.813,-2.565,-15.313,1.053
4.020,0.212,-0.326,0.816,-1.893,-14.885,1.145
4.030,0.231,-0.334,0.826,-2.168,-11.557,1.053
4.030,0.217,-0.329,0.823,-2.458,-10.779,1.176
4.040,0.207,-0.341,0.843,-1.985,-11.481,1.359
4.040,0.211,-0.336,0.843,-1.802,-11.359,1.679
4.040,0.227,-0.334,0.838,-1.237,-10.519,1.756
4.050,0.242,-0.323,0.824,-1.206,-9.420,1.817
4.050,0.244,-0.332,0.828,-0.977,-10.244,1.344
4.060,0.246,-0.339,0.836,-0.885,-11.130,1.267
4.060,0.260,-0.334,0.834,-1.252,-9.496,1.053
4.060,0.254,-0.337,0.848,-0.748,-9.786,0.947
4.070,0.253,-0.356,0.859,0.824,-10.489,0.366
4.070,0.268,-0.334,0.844,1.328,-7.817,-0.031
4.080,0.259,-0.343,0.840,2.519,-6.168,-0.519
4.080,0.243,-0.346,0.829,3.756,-5.420,-0.870
