Time,acce_x,acce_y,acce_z,gyro_x,gyro_y,gyro_z
0.000,0.258,-0.279,0.828,-0.885,-2.733,-0.840
0.000,0.251,-0.280,0.833,-0.870,-3.313,-1.008
0.010,0.256,-0.288,0.833,-0.779,-3.664,-0.901
0.010,0.256,-0.282,0.834,-0.779,-3.985,-0.931
0.010,0.252,-0.286,0.835,-0.595,-4.794,-0.489
0.020,0.242,-0.285,0.836,-0.626,-5.832,-0.153
0.020,0.232,-0.286,0.826,-1.008,-6.748,0.092
0.020,0.254,-0.283,0.825,-1.588,-7.893,0.473
0.030,0.277,-0.285,0.843,-2.076,-7.084,0.351
0.030,0.287,-0.280,0.844,-1.863,-5.252,0.107
0.030,0.288,-0.286,0.854,-2.092,-3.817,0.107
0.040,0.282,-0.290,0.850,-2.183,-3.069,0.076
0.040,0.280,-0.292,0.862,-2.076,-2.489,0.092
0.040,0.282,-0.295,0.855,-1.603,-1.313,0.076
0.050,0.284,-0.294,0.863,-1.298,0.214,0.122
0.050,0.282,-0.300,0.875,-0.794,1.282,-0.031
0.060,0.283,-0.295,0.863,0.000,2.000,-0.122
0.060,0.285,-0.293,0.872,0.458,1.924,-0.305
0.060,0.286,-0.294,0.881,1.298,2.321,-0.702
0.070,0.291,-0.285,0.856,1.618,2.229,-1.237
0.070,0.280,-0.281,0.847,1.679,1.695,-1.557
0.080,0.275,-0.283,0.830,1.206,1.695,-1.786
0.080,0.270,-0.279,0.834,1.084,1.756,-1.939
0.080,0.257,-0.278,0.820,0.809,1.725,-2.076
0.090,0.260,-0.276,0.819,0.107,1.847,-2.046
0.090,0.253,-0.280,0.826,-0.382,1.863,-2.015
0.090,0.245,-0.279,0.826,-0.489,2.214,-1.557
0.100,0.246,-0.274,0.832,-0.534,2.397,-1.435
0.100,0.254,-0.283,0.829,-0.336,3.359,-1.130
0.110,0.259,-0.286,0.833,-0.214,4.427,-0.947
0.110,0.259,-0.284,0.833,-0.031,4.107,-1.023
0.110,0.245,-0.279,0.830,-0.198,2.611,-1.023
0.120,0.249,-0.276,0.828,-0.809,0.947,-1.130
0.120,0.253,-0.278,0.844,-1.069,0.336,-1.359
0.130,0.267,-0.269,0.849,-1.206,0.122,-1.542
0.130,0.260,-0.272,0.840,-0.962,-0.443,-1.832
0.130,0.253,-0.279,0.843,-0.916,-1.710,-1.725
0.140,0.246,-0.278,0.839,-0.382,-2.260,-1.618
0.140,0.250,-0.275,0.843,0.000,-2.565,-1.313
0.150,0.253,-0.275,0.830,0.076,-2.046,-1.313
0.150,0.252,-0.275,0.829,0.366,-1.618,-1.053
0.150,0.252,-0.276,0.829,0.198,-0.931,-1.038
0.160,0.256,-0.276,0.834,-0.015,-0.061,-0.855
0.160,0.260,-0.272,0.824,0.000,0.931,-0.870
0.170,0.261,-0.272,0.822,-0.519,1.130,-0.931
0.170,0.260,-0.279,0.830,-1.084,1.481,-1.099
0.170,0.260,-0.274,0.836,-0.962,1.557,-1.115
0.180,0.260,-0.278,0.836,-0.779,1.420,-1.115
0.180,0.257,-0.279,0.841,-1.176,0.931,-1.405
0.190,0.257,-0.275,0.835,-1.191,-0.107,-1.664
0.190,0.260,-0.272,0.835,-1.221,-0.855,-1.924
0.200,0.261,-0.280,0.835,-1.023,-1.802,-2.076
0.200,0.255,-0.279,0.833,-0.870,-2.794,-2.076
0.200,0.242,-0.272,0.822,-0.748,-3.221,-1.679
0.210,0.245,-0.272,0.829,-0.763,-3.435,-1.313
0.210,0.248,-0.281,0.836,-0.947,-3.221,-1.084
0.220,0.254,-0.270,0.842,-1.023,-2.489,-0.840
0.220,0.255,-0.275,0.842,-1.008,-1.771,-0.626
0.220,0.253,-0.275,0.827,-1.206,-0.870,-0.214
0.230,0.256,-0.274,0.832,-1.313,0.382,-0.031
0.230,0.263,-0.278,0.829,-1.511,1.817,0.168
0.240,0.265,-0.277,0.834,-1.802,3.145,0.427
0.240,0.263,-0.276,0.841,-1.878,3.985,0.641
0.240,0.256,-0.281,0.834,-1.802,4.412,0.504
0.250,0.253,-0.278,0.838,-1.725,4.153,0.779
0.250,0.257,-0.279,0.842,-1.969,3.389,0.611
0.260,0.259,-0.282,0.838,-1.664,2.504,0.611
0.260,0.259,-0.282,0.854,-1.313,1.924,0.183
0.260,0.250,-0.283,0.853,-0.931,0.840,-0.031
0.270,0.243,-0.290,0.847,-0.534,-0.336,-0.061
0.270,0.233,-0.282,0.842,-0.397,-1.985,0.031
0.280,0.234,-0.284,0.836,-0.153,-3.573,0.153
0.280,0.244,-0.278,0.838,-0.580,-4.687,0.015
0.280,0.255,-0.276,0.836,-0.565,-4.183,0.290
0.290,0.254,-0.272,0.839,-0.748,-3.435,0.412
0.290,0.256,-0.284,0.838,-0.855,-3.130,0.534
0.290,0.260,-0.279,0.834,-1.237,-2.321,0.412
0.300,0.264,-0.277,0.838,-1.420,-0.992,0.763
0.300,0.268,-0.284,0.848,-1.573,0.458,0.794
0.310,0.265,-0.285,0.842,-1.221,1.649,0.824
0.310,0.262,-0.287,0.844,-1.252,2.305,0.870
0.310,0.261,-0.285,0.845,-1.084,2.687,0.901
0.320,0.263,-0.279,0.839,-0.824,2.824,0.977
0.320,0.258,-0.283,0.843,-0.656,2.641,0.931
0.330,0.259,-0.287,0.842,-0.534,2.718,0.962
0.330,0.261,-0.278,0.838,-0.244,2.473,0.809
0.330,0.260,-0.276,0.837,-0.183,2.519,0.534
0.340,0.263,-0.276,0.825,-0.092,2.550,0.427
0.340,0.258,-0.278,0.836,-0.122,2.321,0.595
0.350,0.253,-0.278,0.825,-0.260,1.740,0.427
0.350,0.253,-0.270,0.816,-0.534,1.374,0.092
0.350,0.263,-0.275,0.824,-1.038,1.573,0.061
0.360,0.256,-0.272,0.823,-1.557,1.679,0.137
0.360,0.248,-0.275,0.829,-2.061,1.710,0.137
0.370,0.248,-0.277,0.824,-2.015,1.374,0.260
0.370,0.254,-0.274,0.833,-2.198,1.649,0.275
0.370,0.256,-0.274,0.842,-2.107,1.908,0.244
0.380,0.253,-0.281,0.831,-2.305,1.771,0.321
0.380,0.251,-0.277,0.838,-2.260,1.389,0.321
0.390,0.250,-0.280,0.844,-2.183,1.252,0.412
0.390,0.262,-0.280,0.843,-1.969,1.282,0.275
0.390,0.257,-0.278,0.845,-1.725,1.069,0.382
0.400,0.255,-0.278,0.838,-1.573,0.626,0.366
0.400,0.250,-0.279,0.835,-1.557,-0.290,0.763
0.400,0.250,-0.279,0.832,-1.542,-1.053,0.626
0.410,0.263,-0.279,0.837,-1.603,-1.115,0.626
0.410,0.261,-0.275,0.833,-1.710,-0.656,0.611
0.420,0.260,-0.274,0.834,-2.076,-1.527,0.397
0.420,0.267,-0.278,0.834,-2.366,-2.015,0.321
0.420,0.268,-0.273,0.836,-2.534,-1.420,0.229
0.430,0.272,-0.280,0.845,-2.366,-0.992,-0.046
0.430,0.275,-0.282,0.848,-2.137,-0.885,-0.046
0.440,0.269,-0.280,0.852,-2.092,-0.565,-0.198
0.440,0.265,-0.284,0.854,-1.985,-0.794,0.183
0.440,0.264,-0.281,0.849,-1.786,-0.687,0.198
0.450,0.268,-0.272,0.847,-1.649,-0.229,0.031
0.450,0.271,-0.269,0.849,-1.389,0.244,0.275
0.460,0.273,-0.277,0.837,-1.603,0.718,0.290
0.460,0.260,-0.274,0.844,-1.527,0.962,0.382
0.460,0.258,-0.277,0.848,-1.557,0.855,0.397
0.470,0.266,-0.278,0.844,-1.420,1.405,0.519
0.470,0.266,-0.271,0.843,-1.618,1.878,0.336
0.480,0.269,-0.274,0.837,-1.695,2.076,0.351
0.480,0.261,-0.274,0.834,-1.588,2.427,0.168
0.480,0.259,-0.274,0.845,-1.664,2.519,0.382
0.490,0.257,-0.277,0.845,-1.893,2.702,0.382
0.490,0.253,-0.281,0.832,-1.893,2.534,0.458
0.500,0.260,-0.280,0.842,-1.786,1.863,0.168
0.500,0.257,-0.281,0.841,-1.893,0.962,0.076
0.500,0.253,-0.283,0.834,-1.985,-0.229,0.000
0.510,0.257,-0.280,0.849,-1.969,-0.198,0.015
0.510,0.257,-0.280,0.848,-1.695,-0.443,0.092
0.520,0.255,-0.282,0.848,-1.664,-0.855,0.137
0.520,0.253,-0.280,0.835,-1.405,-1.099,-0.092
0.520,0.255,-0.286,0.841,-1.252,-0.916,0.061
0.530,0.259,-0.274,0.840,-1.084,-0.733,0.107
0.530,0.243,-0.277,0.840,-1.221,-0.580,-0.031
0.540,0.252,-0.277,0.837,-1.344,-0.779,0.183
0.540,0.257,-0.277,0.843,-1.115,-0.534,0.412
0.540,0.257,-0.276,0.847,-1.344,-0.595,0.366
0.550,0.258,-0.276,0.842,-1.481,-1.603,0.397
0.550,0.251,-0.270,0.855,-1.618,-2.198,0.443
0.560,0.257,-0.274,0.846,-2.122,-2.779,0.305
0.560,0.262,-0.275,0.855,-2.076,-2.183,0.321
0.560,0.264,-0.278,0.853,-1.878,-1.786,0.427
0.570,0.263,-0.279,0.852,-2.061,-1.145,0.550
0.570,0.263,-0.280,0.844,-1.664,-0.611,0.702
0.580,0.272,-0.278,0.850,-1.603,-0.153,0.565
0.580,0.264,-0.285,0.851,-1.145,0.366,0.412
0.580,0.257,-0.286,0.862,-0.840,1.008,0.336
0.590,0.249,-0.282,0.845,-0.290,1.420,0.305
0.590,0.254,-0.290,0.856,0.046,1.176,0.336
0.600,0.250,-0.278,0.840,0.122,0.504,0.092
0.600,0.246,-0.281,0.842,0.183,0.000,0.290
0.600,0.248,-0.276,0.842,0.168,-0.046,0.412
0.610,0.255,-0.283,0.842,0.122,0.336,0.443
0.610,0.245,-0.280,0.834,0.031,0.168,0.809
0.610,0.239,-0.280,0.823,-0.397,-0.168,1.084
0.620,0.247,-0.278,0.832,-0.489,-0.107,1.191
0.620,0.257,-0.278,0.834,-0.489,0.427,1.252
0.630,0.263,-0.283,0.846,-0.687,0.931,1.679
0.630,0.264,-0.284,0.842,-0.611,1.282,1.817
0.630,0.264,-0.282,0.843,-0.534,1.603,1.771
0.640,0.270,-0.287,0.847,-0.504,2.107,1.420
0.640,0.269,-0.275,0.838,-0.244,1.267,1.115
0.650,0.265,-0.275,0.838,-0.779,0.427,1.038
0.650,0.259,-0.278,0.852,-0.885,-0.229,0.748
0.650,0.262,-0.276,0.840,-1.069,-0.015,0.687
0.660,0.260,-0.276,0.841,-0.687,-0.092,1.038
0.660,0.263,-0.271,0.840,-0.870,-0.153,0.840
0.670,0.260,-0.272,0.844,-0.870,-0.305,0.855
0.670,0.265,-0.271,0.834,-0.916,-0.366,0.794
0.670,0.262,-0.269,0.841,-0.626,-0.107,0.656
0.680,0.259,-0.269,0.843,-0.992,0.137,0.962
0.680,0.263,-0.272,0.843,-1.237,0.687,0.809
0.690,0.264,-0.271,0.840,-1.176,1.282,0.824
0.690,0.263,-0.272,0.859,-1.038,1.206,0.809
0.690,0.266,-0.274,0.838,-0.901,1.252,0.473
0.700,0.260,-0.272,0.835,-0.931,0.595,0.244
0.700,0.250,-0.273,0.833,-1.710,-1.481,0.137
0.710,0.260,-0.271,0.839,-2.443,-2.443,-0.046
0.710,0.271,-0.274,0.843,-2.092,-2.107,-0.198
0.710,0.269,-0.278,0.866,-2.122,-2.015,0.046
0.720,0.268,-0.279,0.847,-1.527,-2.275,0.031
0.720,0.270,-0.279,0.844,-1.527,-2.244,-0.107
0.730,0.277,-0.278,0.848,-1.084,-1.603,0.076
0.730,0.273,-0.266,0.849,-0.794,-1.160,-0.076
0.730,0.271,-0.279,0.843,-0.382,-0.565,0.061
0.740,0.271,-0.271,0.828,-0.275,0.076,0.260
0.740,0.267,-0.281,0.840,-0.046,0.321,0.427
0.750,0.256,-0.283,0.830,0.168,0.000,0.626
0.750,0.257,-0.276,0.823,-0.305,-0.351,0.550
0.750,0.268,-0.276,0.834,-0.779,-1.160,0.565
0.760,0.273,-0.272,0.827,-1.634,-1.374,0.031
0.760,0.268,-0.275,0.826,-1.985,-1.069,-0.015
0.770,0.270,-0.281,0.840,-2.290,-1.298,-0.092
0.770,0.266,-0.286,0.841,-2.382,-1.481,-0.427
0.770,0.264,-0.288,0.841,-2.107,-1.328,-0.275
0.780,0.263,-0.286,0.841,-1.908,-0.748,-0.183
0.780,0.266,-0.284,0.852,-1.618,-0.275,0.122
0.790,0.260,-0.283,0.849,-1.145,-0.046,0.198
0.790,0.265,-0.281,0.838,-0.809,0.229,0.153
0.790,0.258,-0.287,0.846,-0.626,0.107,0.137
0.800,0.261,-0.277,0.839,-0.718,0.061,0.168
0.800,0.266,-0.272,0.837,-0.947,0.015,0.168
0.800,0.273,-0.283,0.825,-0.718,0.183,-0.137
0.810,0.266,-0.275,0.834,-1.008,0.870,-0.260
0.810,0.264,-0.275,0.837,-0.977,1.511,-0.168
0.820,0.251,-0.277,0.825,-1.313,1.496,0.000
0.820,0.257,-0.271,0.834,-1.466,1.450,0.122
0.820,0.255,-0.282,0.833,-1.588,1.695,0.443
0.830,0.260,-0.282,0.846,-1.313,2.168,0.672
0.830,0.264,-0.279,0.839,-1.527,2.458,0.870
0.840,0.268,-0.283,0.853,-1.237,2.534,0.748
0.840,0.267,-0.284,0.847,-1.130,2.290,0.550
0.840,0.285,-0.281,0.848,-0.916,2.183,0.321
0.850,0.283,-0.282,0.848,-0.947,2.137,-0.015
0.850,0.274,-0.282,0.845,-1.053,2.198,-0.397
0.860,0.272,-0.272,0.847,-0.931,1.924,-0.595
0.860,0.269,-0.275,0.846,-0.626,2.198,-0.733
0.860,0.261,-0.274,0.842,-0.718,2.198,-0.702
0.870,0.260,-0.279,0.842,-0.641,1.908,-0.519
0.870,0.255,-0.268,0.832,-0.504,1.649,-0.489
0.880,0.253,-0.274,0.830,-0.901,0.748,-0.550
0.880,0.250,-0.277,0.822,-1.145,-0.351,0.000
0.880,0.250,-0.272,0.826,-1.557,-0.504,0.107
0.890,0.261,-0.273,0.837,-1.740,-0.534,0.092
0.890,0.261,-0.276,0.842,-1.969,-0.321,0.137
0.900,0.261,-0.272,0.830,-2.000,-0.183,0.076
0.900,0.260,-0.278,0.838,-2.046,-0.015,0.198
0.900,0.264,-0.274,0.836,-1.939,0.153,-0.107
0.910,0.263,-0.278,0.847,-1.634,0.687,-0.260
0.910,0.261,-0.278,0.835,-1.527,0.504,-0.137
0.920,0.256,-0.276,0.838,-1.481,0.214,-0.305
0.920,0.261,-0.271,0.841,-1.557,0.626,-0.305
0.920,0.260,-0.276,0.835,-1.557,0.565,-0.382
0.930,0.257,-0.267,0.834,-1.481,0.565,-0.443
0.930,0.262,-0.267,0.831,-1.786,0.031,-0.198
0.940,0.259,-0.267,0.833,-2.076,0.214,-0.290
0.940,0.257,-0.265,0.836,-1.893,0.046,-0.458
0.940,0.254,-0.268,0.844,-2.046,-0.656,-0.397
0.950,0.262,-0.272,0.845,-2.153,-1.282,-0.779
0.950,0.265,-0.269,0.839,-2.397,-0.931,-0.779
0.960,0.262,-0.270,0.847,-2.351,-0.870,-0.763
0.960,0.259,-0.275,0.842,-2.458,-1.069,-0.977
0.960,0.257,-0.269,0.844,-2.382,-1.084,-0.885
0.970,0.259,-0.268,0.846,-2.305,-0.931,-0.809
0.970,0.264,-0.277,0.852,-2.046,-0.779,-0.824
0.980,0.261,-0.275,0.854,-1.939,-0.153,-0.855
0.980,0.261,-0.276,0.858,-1.649,0.229,-0.763
0.980,0.254,-0.282,0.857,-1.527,0.275,-0.870
0.990,0.248,-0.281,0.847,-1.450,0.107,-0.840
0.990,0.249,-0.279,0.855,-1.557,-0.015,-0.672
1.000,0.244,-0.282,0.859,-1.359,-0.336,-0.550
1.000,0.242,-0.279,0.861,-1.237,-0.412,-0.168
1.000,0.242,-0.282,0.862,-1.191,-0.840,0.000
1.010,0.250,-0.283,0.868,-1.023,-1.115,-0.168
1.010,0.258,-0.283,0.865,-0.748,-1.069,-0.076
1.020,0.258,-0.289,0.860,-0.366,-0.824,-0.107
1.020,0.246,-0.280,0.869,-0.244,-0.962,0.321
1.030,0.249,-0.283,0.862,0.214,-0.427,0.336
1.030,0.256,-0.282,0.861,0.427,0.198,0.534
1.030,0.259,-0.282,0.856,0.779,0.244,0.580
1.040,0.260,-0.279,0.852,0.809,0.855,0.534
1.040,0.254,-0.279,0.847,0.870,1.481,0.489
1.040,0.249,-0.274,0.841,0.947,1.664,0.733
1.050,0.256,-0.269,0.840,0.702,1.695,0.718
1.050,0.256,-0.275,0.827,0.504,1.771,0.687
1.060,0.261,-0.272,0.834,0.366,2.550,0.611
1.060,0.251,-0.266,0.832,-0.061,2.794,0.443
1.060,0.251,-0.269,0.838,0.015,2.550,0.580
1.070,0.254,-0.271,0.840,-0.076,2.550,0.244
1.070,0.256,-0.269,0.831,-0.305,2.275,0.107
1.080,0.242,-0.266,0.833,-0.412,2.351,0.061
1.080,0.246,-0.268,0.844,-0.366,2.382,0.137
1.080,0.240,-0.272,0.844,-0.229,2.229,0.412
1.090,0.232,-0.269,0.837,-0.183,1.725,0.412
1.090,0.229,-0.268,0.827,-0.260,0.885,0.901
1.090,0.230,-0.271,0.821,-0.748,-0.168,0.916
1.100,0.232,-0.270,0.831,-0.977,-0.397,0.885
1.100,0.227,-0.274,0.839,-0.733,-0.366,1.084
1.110,0.228,-0.281,0.853,-0.687,-0.626,1.466
1.110,0.227,-0.272,0.844,-0.718,-0.641,1.344
1.110,0.229,-0.275,0.845,-0.656,-1.038,1.924
1.120,0.226,-0.284,0.852,-0.443,-0.626,2.153
1.120,0.218,-0.287,0.866,-0.153,-0.840,2.076
1.130,0.209,-0.300,0.863,0.137,-1.450,2.550
1.130,0.195,-0.300,0.884,0.321,-2.107,2.626
1.130,0.183,-0.301,0.890,0.840,-3.191,3.130
1.140,0.179,-0.311,0.897,1.130,-3.954,3.573
1.140,0.173,-0.314,0.915,1.725,-4.611,4.046
1.150,0.163,-0.320,0.906,2.885,-5.008,4.794
1.150,0.161,-0.327,0.917,3.847,-5.023,5.573
1.150,0.151,-0.328,0.918,4.947,-5.313,6.321
1.160,0.146,-0.330,0.918,6.031,-5.481,7.069
1.160,0.145,-0.324,0.920,6.824,-5.099,7.954
1.170,0.140,-0.321,0.910,7.557,-5.053,9.099
1.170,0.140,-0.315,0.918,8.473,-4.656,10.076
1.170,0.134,-0.322,0.902,8.809,-4.198,11.160
1.180,0.125,-0.318,0.904,9.679,-4.260,12.534
1.180,0.112,-0.311,0.902,10.137,-4.824,13.817
1.190,0.119,-0.305,0.915,10.580,-5.130,15.359
1.190,0.132,-0.304,0.907,10.840,-4.870,16.626
1.190,0.142,-0.303,0.913,11.695,-4.580,18.000
1.200,0.150,-0.296,0.913,12.229,-3.893,19.191
1.200,0.152,-0.307,0.926,13.206,-3.466,20.092
1.210,0.143,-0.305,0.927,14.336,-2.840,21.511
1.210,0.137,-0.309,0.931,15.328,-2.992,23.084
1.210,0.129,-0.302,0.931,16.565,-3.298,24.794
1.220,0.120,-0.308,0.933,17.893,-3.405,26.183
1.220,0.104,-0.294,0.942,19.527,-4.061,28.275
1.230,0.094,-0.297,0.940,20.947,-4.992,30.763
1.230,0.089,-0.301,0.924,22.626,-5.221,32.901
1.230,0.087,-0.296,0.920,23.527,-5.847,35.008
1.240,0.089,-0.298,0.912,24.504,-6.534,37.099
1.240,0.094,-0.285,0.911,25.191,-6.626,38.840
1.250,0.103,-0.289,0.909,25.985,-6.992,40.076
1.250,0.105,-0.286,0.918,27.145,-7.298,41.618
1.250,0.095,-0.289,0.912,28.137,-8.168,42.977
1.260,0.092,-0.282,0.902,28.870,-9.023,44.580
1.260,0.076,-0.285,0.900,29.817,-9.924,46.427
1.270,0.073,-0.278,0.910,30.260,-10.885,48.198
1.270,0.060,-0.287,0.907,30.763,-12.214,50.244
1.280,0.056,-0.288,0.905,31.008,-14.214,52.076
1.280,0.066,-0.284,0.901,31.450,-15.756,53.863
1.280,0.056,-0.291,0.912,31.359,-16.626,55.527
1.290,0.059,-0.284,0.909,31.496,-17.634,57.053
1.290,0.057,-0.287,0.898,31.298,-18.794,58.198
1.300,0.049,-0.284,0.902,30.916,-20.244,59.481
1.300,0.059,-0.286,0.914,30.809,-20.824,60.656
1.300,0.055,-0.295,0.906,30.992,-21.420,62.031
1.310,0.052,-0.298,0.912,31.084,-21.634,63.267
1.310,0.051,-0.296,0.923,31.130,-21.969,65.008
1.320,0.048,-0.299,0.931,31.405,-21.679,66.473
1.320,0.057,-0.291,0.928,31.863,-20.947,67.817
1.330,0.066,-0.300,0.938,32.504,-20.656,69.160
1.330,0.062,-0.297,0.933,32.763,-20.809,70.061
1.330,0.079,-0.294,0.937,33.481,-20.489,70.641
1.340,0.090,-0.288,0.931,33.878,-19.863,70.992
1.340,0.086,-0.293,0.942,34.305,-19.588,71.237
1.350,0.077,-0.291,0.939,34.962,-20.137,71.695
1.350,0.069,-0.284,0.941,35.588,-20.855,72.244
1.350,0.075,-0.281,0.922,36.000,-21.282,72.504
1.360,0.078,-0.286,0.927,35.649,-22.427,72.748
1.360,0.079,-0.275,0.920,35.603,-23.664,73.115
1.370,0.073,-0.280,0.928,35.542,-24.382,73.695
1.370,0.072,-0.279,0.931,35.298,-25.023,74.580
1.380,0.066,-0.278,0.935,35.344,-25.832,75.695
1.380,0.075,-0.282,0.925,35.466,-25.863,76.687
1.380,0.072,-0.283,0.937,35.832,-25.771,77.511
1.390,0.062,-0.279,0.938,36.076,-25.298,78.840
1.390,0.059,-0.287,0.931,36.901,-25.221,80.015
1.400,0.062,-0.289,0.935,37.557,-24.427,81.298
1.400,0.059,-0.278,0.928,38.260,-23.267,82.107
1.400,0.059,-0.286,0.917,38.565,-22.885,83.298
1.410,0.056,-0.285,0.926,38.885,-22.611,84.214
1.410,0.058,-0.284,0.903,39.221,-22.519,84.870
1.420,0.050,-0.276,0.906,39.344,-23.115,85.511
1.420,0.044,-0.287,0.895,39.557,-24.397,86.183
1.430,0.035,-0.284,0.897,39.282,-25.649,87.069
1.430,0.027,-0.279,0.879,39.084,-27.389,87.954
1.430,0.026,-0.283,0.881,38.519,-29.695,88.931
1.440,0.020,-0.288,0.887,38.656,-31.695,89.863
1.440,0.022,-0.287,0.891,38.687,-33.603,90.870
1.450,0.027,-0.286,0.885,39.038,-35.878,91.618
1.450,0.030,-0.284,0.874,38.733,-37.527,92.702
1.450,0.038,-0.274,0.873,38.611,-38.366,93.969
1.460,0.051,-0.275,0.875,38.443,-38.824,95.160
1.460,0.053,-0.275,0.867,38.260,-38.809,96.076
1.470,0.049,-0.277,0.858,37.603,-38.122,97.649
1.470,0.039,-0.273,0.858,37.099,-37.511,99.481
1.480,0.046,-0.272,0.857,36.718,-37.557,101.603
1.480,0.056,-0.278,0.867,36.046,-36.977,103.328
1.480,0.067,-0.285,0.866,35.557,-36.580,104.809
1.490,0.079,-0.286,0.868,34.824,-37.084,105.618
1.490,0.092,-0.289,0.873,34.580,-38.260,106.122
1.500,0.105,-0.284,0.882,34.122,-37.985,106.427
1.500,0.120,-0.300,0.893,35.038,-37.802,106.718
1.510,0.110,-0.301,0.905,35.817,-38.061,107.206
1.510,0.116,-0.305,0.904,36.824,-37.924,108.031
1.510,0.115,-0.304,0.903,37.618,-37.771,108.519
1.520,0.118,-0.316,0.894,38.992,-37.878,108.763
1.520,0.111,-0.318,0.900,40.351,-37.985,109.344
1.530,0.104,-0.311,0.906,41.786,-38.550,109.802
1.530,0.101,-0.315,0.896,43.130,-40.000,110.397
1.540,0.095,-0.318,0.893,43.832,-41.267,111.374
1.540,0.099,-0.317,0.881,44.443,-40.824,112.672
1.540,0.088,-0.317,0.885,45.405,-40.718,114.076
1.550,0.093,-0.315,0.874,45.695,-41.618,115.908
1.550,0.095,-0.313,0.854,45.527,-42.076,117.527
1.560,0.112,-0.309,0.860,45.405,-41.176,119.206
1.560,0.130,-0.323,0.859,45.405,-40.840,120.718
1.560,0.124,-0.323,0.864,45.450,-40.962,122.122
1.570,0.139,-0.322,0.858,45.603,-41.344,123.450
1.570,0.155,-0.318,0.845,45.527,-40.611,124.672
1.580,0.151,-0.329,0.838,45.634,-39.740,125.649
1.580,0.155,-0.321,0.850,46.244,-39.115,127.130
1.590,0.165,-0.323,0.841,46.733,-38.015,128.504
1.590,0.182,-0.326,0.834,47.588,-36.214,129.710
1.590,0.187,-0.324,0.837,48.031,-34.473,130.962
1.600,0.193,-0.328,0.816,48.321,-32.565,131.878
1.600,0.198,-0.330,0.804,48.290,-30.168,132.840
1.610,0.198,-0.328,0.793,47.832,-28.962,133.771
1.610,0.192,-0.329,0.790,47.069,-28.382,134.794
1.620,0.196,-0.330,0.789,46.076,-28.534,135.725
1.620,0.203,-0.329,0.778,44.672,-29.069,136.794
1.620,0.208,-0.334,0.793,44.305,-28.626,137.924
1.630,0.208,-0.333,0.805,43.832,-28.046,138.824
1.630,0.213,-0.337,0.804,43.878,-27.924,139.740
1.640,0.223,-0.341,0.804,44.122,-26.718,140.702
1.640,0.236,-0.341,0.816,44.473,-25.008,141.359
1.650,0.234,-0.336,0.819,45.557,-24.061,142.000
1.650,0.232,-0.342,0.816,46.672,-23.756,142.824
1.650,0.224,-0.335,0.806,47.710,-23.878,143.679
1.660,0.222,-0.345,0.796,48.153,-24.580,144.641
1.660,0.233,-0.344,0.788,48.382,-24.870,145.328
1.670,0.244,-0.356,0.773,48.458,-24.534,145.542
1.670,0.237,-0.359,0.775,48.183,-24.076,145.710
1.680,0.219,-0.362,0.769,47.939,-25.084,146.443
1.680,0.209,-0.370,0.785,47.725,-27.450,147.496
1.680,0.222,-0.373,0.790,47.496,-27.863,149.267
1.690,0.240,-0.382,0.802,47.969,-26.015,150.916
1.690,0.259,-0.387,0.800,48.443,-24.244,151.817
1.700,0.277,-0.394,0.789,48.534,-24.092,152.305
1.700,0.292,-0.391,0.790,48.473,-24.122,152.687
1.710,0.309,-0.397,0.788,48.473,-23.053,152.718
1.710,0.322,-0.402,0.797,48.718,-21.588,152.565
1.710,0.320,-0.401,0.802,49.252,-21.145,152.595
1.720,0.313,-0.404,0.797,50.397,-20.794,152.901
1.720,0.310,-0.403,0.812,51.847,-20.885,153.344
1.730,0.314,-0.413,0.813,54.183,-21.664,153.985
1.730,0.298,-0.423,0.829,57.771,-24.076,154.595
1.730,0.296,-0.436,0.838,61.603,-27.435,154.840
1.740,0.295,-0.449,0.863,65.832,-32.000,154.855
1.740,0.305,-0.457,0.876,71.191,-38.107,153.908
1.750,0.309,-0.459,0.909,76.641,-43.160,153.313
1.750,0.316,-0.467,0.904,83.969,-48.947,152.397
1.760,0.298,-0.472,0.937,90.015,-57.008,152.382
1.760,0.331,-0.475,0.894,94.397,-60.260,152.534
1.760,0.341,-0.484,0.880,99.145,-63.710,152.107
1.770,0.333,-0.476,0.896,104.580,-70.962,152.504
1.770,0.347,-0.483,0.866,110.061,-77.160,152.076
1.780,0.407,-0.461,0.773,109.847,-73.618,150.458
1.780,0.459,-0.431,0.681,106.702,-65.405,148.443
1.790,0.459,-0.416,0.676,102.763,-60.092,146.748
1.790,0.457,-0.399,0.673,97.817,-54.809,145.954
1.790,0.475,-0.380,0.658,94.443,-48.076,144.779
1.800,0.486,-0.364,0.626,89.511,-41.527,144.382
1.800,0.489,-0.355,0.632,84.656,-36.626,144.031
1.810,0.496,-0.351,0.610,79.924,-32.443,143.008
1.810,0.516,-0.339,0.616,75.573,-29.588,141.954
1.820,0.528,-0.337,0.633,71.847,-27.267,140.458
1.820,0.540,-0.334,0.649,68.931,-26.137,138.733
1.820,0.554,-0.337,0.669,66.733,-27.176,136.168
1.830,0.562,-0.355,0.690,65.344,-28.870,133.191
1.830,0.565,-0.357,0.715,64.366,-31.130,130.275
1.840,0.572,-0.363,0.732,63.954,-33.252,128.198
1.840,0.584,-0.359,0.750,63.939,-34.580,125.969
1.850,0.611,-0.365,0.760,64.702,-35.496,123.511
1.850,0.624,-0.366,0.754,64.855,-35.389,120.962
1.850,0.624,-0.359,0.758,64.321,-35.282,118.901
1.860,0.609,-0.356,0.763,63.924,-35.405,117.954
1.860,0.606,-0.360,0.789,64.015,-34.550,118.076
1.870,0.604,-0.363,0.792,65.160,-32.382,119.176
1.870,0.622,-0.354,0.797,66.092,-29.008,120.580
1.880,0.642,-0.343,0.779,67.099,-24.153,121.771
1.880,0.664,-0.336,0.759,67.344,-19.038,122.458
1.880,0.704,-0.324,0.738,67.023,-13.618,121.939
1.890,0.716,-0.314,0.715,65.740,-8.565,120.046
1.890,0.706,-0.307,0.697,63.511,-3.939,118.611
1.900,0.691,-0.295,0.710,61.908,-0.626,117.969
1.900,0.657,-0.296,0.714,60.901,0.992,117.832
1.910,0.649,-0.284,0.717,60.443,2.305,117.802
1.910,0.650,-0.274,0.711,59.252,5.008,118.000
1.910,0.639,-0.276,0.695,58.244,7.817,118.366
1.920,0.635,-0.269,0.687,57.206,9.145,118.550
1.920,0.640,-0.260,0.682,57.038,9.481,118.718
1.930,0.658,-0.253,0.662,56.366,10.916,118.443
1.930,0.672,-0.239,0.647,54.855,12.611,117.252
1.930,0.677,-0.237,0.626,53.374,12.397,115.710
1.940,0.687,-0.219,0.620,51.282,12.244,113.954
1.940,0.682,-0.210,0.620,48.824,12.412,112.168
1.950,0.681,-0.208,0.607,46.565,12.977,110.198
1.950,0.676,-0.206,0.593,44.153,12.061,108.305
1.950,0.661,-0.195,0.583,40.840,10.260,106.092
1.960,0.645,-0.198,0.582,37.542,9.328,105.053
1.960,0.622,-0.191,0.588,35.252,8.198,104.336
1.970,0.616,-0.192,0.595,33.099,6.931,103.832
1.970,0.598,-0.193,0.588,30.504,5.756,103.389
1.980,0.603,-0.195,0.590,27.725,5.115,102.427
1.980,0.600,-0.201,0.587,24.947,4.748,101.649
1.980,0.588,-0.199,0.603,22.031,5.115,100.687
1.990,0.579,-0.185,0.599,19.740,5.084,101.084
1.990,0.559,-0.199,0.625,18.198,5.252,101.145
2.000,0.551,-0.200,0.636,17.191,6.290,102.427
2.000,0.531,-0.192,0.659,16.763,7.756,104.015
2.000,0.527,-0.188,0.667,16.794,9.771,105.649
2.010,0.521,-0.180,0.651,15.847,12.473,107.298
2.010,0.522,-0.185,0.657,14.901,15.069,108.702
2.020,0.525,-0.179,0.658,14.443,17.359,110.076
2.020,0.541,-0.176,0.661,13.405,19.542,110.443
2.020,0.549,-0.175,0.660,11.359,21.038,109.969
2.030,0.554,-0.174,0.669,9.832,20.305,109.099
2.030,0.567,-0.183,0.685,7.557,19.145,107.878
2.040,0.739,-0.172,0.734,2.870,27.282,104.809
2.040,0.836,-0.192,0.788,6.565,28.641,95.328
2.040,0.740,-0.172,0.693,12.626,8.092,83.405
2.050,0.635,-0.153,0.655,4.947,-14.641,76.550
2.050,0.695,-0.142,0.649,-3.466,-19.466,72.244
2.060,0.738,-0.180,0.756,0.840,-21.450,66.885
2.060,0.716,-0.184,0.788,5.267,-34.397,61.038
2.070,0.666,-0.167,0.731,3.588,-49.267,57.069
2.070,0.659,-0.165,0.678,0.809,-56.290,54.321
2.070,0.671,-0.174,0.713,-0.168,-59.908,52.336
2.080,0.690,-0.177,0.766,0.183,-63.435,50.565
2.080,0.740,-0.171,0.769,0.031,-62.534,48.641
2.090,0.769,-0.177,0.779,-0.076,-59.206,45.771
2.090,0.775,-0.188,0.801,0.565,-54.809,43.145
2.090,0.798,-0.183,0.809,1.267,-49.328,40.672
2.100,0.841,-0.164,0.797,1.603,-41.145,38.397
2.100,0.874,-0.155,0.787,1.206,-31.863,36.031
2.110,0.863,-0.149,0.782,0.183,-24.092,33.878
2.110,0.856,-0.140,0.774,0.183,-17.924,31.740
2.110,0.862,-0.143,0.775,-0.321,-12.458,29.878
2.120,0.868,-0.133,0.775,-0.489,-6.885,27.908
2.120,0.870,-0.138,0.781,-0.092,-3.557,25.115
2.130,0.876,-0.135,0.796,0.168,-1.664,22.046
2.130,0.865,-0.127,0.780,0.366,-1.557,18.534
2.130,0.873,-0.127,0.797,0.550,0.046,15.069
2.140,0.875,-0.128,0.798,1.344,2.244,11.511
2.140,0.879,-0.128,0.812,1.847,5.084,8.015
2.150,0.863,-0.127,0.797,2.382,6.763,3.786
2.150,0.823,-0.122,0.773,2.000,7.160,-0.397
2.150,0.770,-0.120,0.759,0.702,5.893,-4.000
2.160,0.726,-0.115,0.754,-1.053,4.458,-6.718
2.160,0.675,-0.107,0.750,-2.305,4.183,-8.687
2.170,0.621,-0.115,0.753,-3.496,3.481,-9.618
2.170,0.554,-0.110,0.748,-4.595,1.145,-9.191
2.170,0.520,-0.114,0.752,-6.290,-1.282,-8.443
2.180,0.494,-0.111,0.748,-7.481,-1.985,-7.359
2.180,0.467,-0.119,0.762,-8.611,-2.504,-6.168
2.190,0.437,-0.109,0.770,-8.565,-3.221,-4.947
2.190,0.435,-0.111,0.771,-8.718,-3.405,-4.214
2.190,0.427,-0.124,0.782,-8.931,-3.023,-3.802
2.200,0.428,-0.124,0.784,-8.916,-2.595,-3.313
2.200,0.429,-0.122,0.792,-8.412,-1.756,-2.947
2.210,0.426,-0.133,0.797,-7.527,-0.443,-2.702
2.210,0.428,-0.129,0.805,-6.916,1.588,-2.489
2.210,0.424,-0.120,0.804,-6.931,4.565,-2.046
2.220,0.412,-0.130,0.795,-6.763,7.008,-1.496
2.220,0.401,-0.129,0.789,-6.779,8.656,-0.977
2.230,0.401,-0.129,0.782,-6.977,10.427,-0.611
2.230,0.392,-0.119,0.784,-7.237,12.702,-0.107
2.230,0.379,-0.122,0.791,-7.115,14.412,0.397
2.240,0.372,-0.113,0.802,-6.718,15.298,0.931
2.240,0.362,-0.112,0.793,-6.931,15.252,1.511
2.250,0.359,-0.108,0.794,-7.481,14.733,1.832
2.250,0.379,-0.104,0.800,-7.573,15.221,2.092
2.250,0.386,-0.105,0.797,-7.511,15.786,1.863
2.260,0.391,-0.110,0.797,-8.046,15.481,1.771
2.260,0.394,-0.100,0.777,-8.321,15.191,1.664
2.270,0.395,-0.099,0.781,-8.840,14.870,1.847
2.270,0.405,-0.100,0.785,-8.947,15.008,1.817
2.270,0.419,-0.105,0.777,-9.160,14.489,1.710
2.280,0.434,-0.112,0.789,-9.634,13.908,1.542
2.280,0.444,-0.116,0.802,-8.992,13.939,1.344
2.290,0.454,-0.119,0.802,-8.748,13.802,1.084
2.290,0.464,-0.123,0.802,-8.779,13.206,0.534
2.290,0.480,-0.130,0.798,-8.901,12.962,0.000
2.300,0.498,-0.128,0.806,-8.595,12.595,-0.840
2.300,0.471,-0.136,0.780,-7.466,8.809,-2.275
2.310,0.491,-0.137,0.783,-11.221,5.527,-2.626
2.310,0.553,-0.153,0.805,-11.511,6.366,-3.924
2.310,0.624,-0.156,0.817,-10.214,10.672,-6.733
2.320,0.626,-0.154,0.810,-10.443,8.977,-10.046
2.320,0.621,-0.146,0.794,-11.328,6.092,-12.824
2.330,0.588,-0.156,0.764,-10.183,0.687,-15.908
2.330,0.584,-0.155,0.773,-12.824,-4.458,-17.725
2.340,0.581,-0.162,0.802,-13.221,-6.519,-17.878
2.340,0.614,-0.179,0.823,-11.038,-4.412,-18.336
2.340,0.608,-0.175,0.799,-10.092,-5.863,-19.099
2.350,0.608,-0.168,0.774,-10.305,-6.977,-18.901
2.350,0.631,-0.170,0.761,-10.366,-4.214,-18.427
2.360,0.666,-0.174,0.758,-9.985,0.229,-18.031
2.360,0.695,-0.160,0.738,-9.908,2.611,-18.427
2.370,0.709,-0.157,0.706,-10.672,4.992,-19.771
2.370,0.735,-0.155,0.667,-12.183,6.626,-21.328
2.370,0.746,-0.160,0.651,-13.817,7.695,-23.588
2.380,0.753,-0.158,0.635,-15.588,8.092,-26.076
2.380,0.766,-0.162,0.615,-18.382,8.153,-28.305
2.390,0.759,-0.167,0.607,-20.733,7.740,-30.351
2.390,0.775,-0.167,0.580,-23.878,7.893,-33.130
2.390,0.792,-0.183,0.588,-26.458,7.878,-34.595
2.400,0.824,-0.189,0.591,-28.947,10.534,-37.405
2.400,0.869,-0.194,0.599,-30.916,14.244,-40.519
2.410,0.893,-0.204,0.594,-33.145,17.038,-44.366
2.410,0.912,-0.214,0.600,-36.000,19.252,-49.527
2.420,0.929,-0.215,0.593,-38.260,20.107,-54.595
2.420,0.927,-0.219,0.589,-40.473,18.336,-60.275
2.420,0.937,-0.232,0.597,-42.458,13.756,-65.893
2.430,0.947,-0.236,0.597,-44.229,9.328,-71.878
2.430,0.956,-0.245,0.581,-46.718,4.977,-77.435
2.440,0.966,-0.249,0.569,-49.405,0.870,-82.885
2.440,0.982,-0.248,0.554,-52.351,-2.611,-87.969
2.450,1.013,-0.245,0.542,-55.176,-3.298,-93.145
2.450,1.040,-0.260,0.547,-58.107,-1.588,-98.565
2.450,1.051,-0.265,0.542,-61.420,2.198,-103.634
2.460,1.060,-0.284,0.542,-64.809,7.099,-108.824
2.460,1.017,-0.310,0.570,-67.527,11.847,-112.794
2.470,0.985,-0.326,0.604,-69.359,16.641,-115.802
2.470,0.951,-0.346,0.642,-70.290,22.275,-118.015
2.480,0.927,-0.352,0.674,-71.557,28.198,-119.588
2.480,0.904,-0.360,0.663,-72.046,34.809,-120.885
2.480,0.892,-0.367,0.664,-72.107,41.160,-122.244
2.490,0.885,-0.380,0.675,-72.122,47.145,-123.954
2.490,0.871,-0.374,0.669,-72.000,50.962,-126.366
2.500,0.844,-0.379,0.664,-72.443,52.397,-128.992
2.500,0.831,-0.385,0.663,-72.260,51.573,-131.893
2.510,0.811,-0.397,0.685,-71.328,49.176,-135.481
2.510,0.789,-0.404,0.704,-70.321,45.389,-139.221
2.510,0.758,-0.416,0.711,-69.145,39.313,-142.947
2.520,0.729,-0.429,0.715,-68.290,31.710,-146.229
2.520,0.717,-0.431,0.710,-67.496,23.847,-149.802
2.530,0.713,-0.431,0.701,-67.298,17.313,-152.992
2.530,0.707,-0.425,0.697,-67.298,11.695,-155.908
2.540,0.716,-0.425,0.682,-67.557,6.214,-159.160
2.540,0.740,-0.407,0.669,-68.901,2.305,-162.840
2.540,0.775,-0.406,0.651,-71.298,1.435,-167.252
2.550,0.795,-0.411,0.618,-74.550,2.977,-172.031
2.550,0.798,-0.421,0.640,-77.527,6.015,-176.153
2.560,0.787,-0.427,0.648,-80.137,11.939,-179.664
2.560,0.768,-0.439,0.679,-82.626,21.328,-182.183
2.570,0.750,-0.453,0.694,-85.023,32.382,-184.458
2.570,0.712,-0.459,0.705,-86.840,42.672,-186.031
2.570,0.656,-0.476,0.727,-88.443,52.611,-187.038
2.580,0.607,-0.491,0.753,-89.252,62.595,-187.267
2.580,0.542,-0.512,0.786,-88.840,70.198,-187.069
2.590,0.494,-0.520,0.798,-88.092,74.595,-186.977
2.590,0.433,-0.530,0.828,-86.580,75.557,-186.931
2.600,0.371,-0.548,0.849,-84.076,71.710,-187.405
2.600,0.321,-0.556,0.862,-80.168,62.580,-187.969
2.600,0.291,-0.567,0.896,-76.519,51.908,-188.702
2.610,0.272,-0.561,0.900,-72.458,40.092,-189.496
2.610,0.262,-0.555,0.930,-67.863,25.099,-190.290
2.620,0.263,-0.552,0.923,-63.542,10.748,-191.328
2.620,0.284,-0.535,0.912,-60.870,-1.084,-191.847
2.630,0.302,-0.517,0.907,-58.824,-9.695,-191.282
2.630,0.327,-0.501,0.901,-57.725,-15.344,-190.870
2.640,0.387,-0.491,0.884,-57.313,-15.557,-190.916
2.640,0.442,-0.495,0.884,-57.420,-9.389,-191.435
2.640,0.468,-0.493,0.877,-57.878,0.397,-191.832
2.650,0.484,-0.497,0.865,-58.733,11.771,-192.992
2.650,0.494,-0.492,0.841,-60.046,24.656,-194.198
2.660,0.497,-0.494,0.805,-61.740,39.221,-195.191
2.660,0.489,-0.493,0.765,-64.321,52.061,-196.000
2.670,0.448,-0.501,0.732,-66.550,62.305,-196.565
2.670,0.415,-0.492,0.715,-69.405,69.023,-196.641
2.670,0.374,-0.492,0.691,-72.901,72.840,-195.832
2.680,0.328,-0.500,0.702,-74.794,74.153,-194.427
2.680,0.283,-0.502,0.728,-74.992,72.427,-191.863
2.690,0.241,-0.506,0.771,-73.527,68.534,-188.153
2.690,0.226,-0.508,0.780,-71.267,64.885,-183.817
2.700,0.231,-0.505,0.800,-67.725,61.542,-178.931
2.700,0.248,-0.492,0.816,-64.763,59.466,-174.870
2.700,0.258,-0.479,0.811,-61.084,58.656,-169.878
2.710,0.267,-0.485,0.802,-56.611,58.870,-167.176
2.710,0.274,-0.466,0.793,-53.420,59.634,-163.908
2.720,0.288,-0.464,0.752,-51.053,62.046,-160.992
2.720,0.297,-0.457,0.739,-49.618,64.718,-158.382
2.730,0.292,-0.450,0.722,-48.473,66.870,-156.076
2.730,0.298,-0.437,0.682,-47.786,69.206,-153.954
2.740,0.295,-0.432,0.662,-48.198,70.885,-152.504
2.740,0.269,-0.441,0.624,-49.160,70.427,-151.038
2.740,0.253,-0.436,0.609,-51.802,69.069,-149.359
2.750,0.247,-0.437,0.574,-55.069,67.359,-148.168
2.750,0.235,-0.443,0.573,-58.260,64.046,-147.527
2.760,0.248,-0.438,0.583,-61.710,59.542,-147.389
2.760,0.266,-0.451,0.608,-64.885,55.084,-148.366
2.770,0.288,-0.460,0.619,-67.603,50.382,-150.168
2.770,0.297,-0.461,0.621,-69.618,45.679,-152.397
2.770,0.300,-0.450,0.628,-71.557,40.840,-154.366
2.780,0.285,-0.457,0.630,-73.527,34.916,-155.924
2.780,0.269,-0.465,0.653,-74.794,28.321,-156.870
2.790,0.246,-0.463,0.695,-74.763,22.290,-156.687
2.790,0.223,-0.480,0.742,-72.718,15.756,-155.695
2.800,0.203,-0.477,0.780,-70.092,10.489,-153.634
2.800,0.206,-0.470,0.800,-67.618,7.466,-150.397
2.800,0.223,-0.468,0.807,-65.099,6.870,-146.916
2.810,0.258,-0.465,0.805,-63.053,8.015,-144.260
2.810,0.276,-0.458,0.786,-61.206,10.260,-141.786
2.820,0.289,-0.459,0.774,-59.756,13.389,-141.130
2.820,0.299,-0.450,0.758,-59.420,17.206,-139.878
2.830,0.316,-0.437,0.731,-60.061,21.481,-138.702
2.830,0.333,-0.462,0.711,-59.710,24.168,-139.496
2.830,0.319,-0.415,0.701,-61.710,29.344,-137.740
2.840,0.293,-0.445,0.689,-64.458,32.687,-136.534
2.840,0.297,-0.434,0.670,-66.015,38.794,-135.527
2.850,0.264,-0.442,0.672,-67.206,39.328,-134.550
2.850,0.279,-0.436,0.667,-68.824,39.267,-133.618
2.860,0.280,-0.437,0.686,-69.374,40.076,-133.527
2.860,0.281,-0.450,0.694,-69.786,40.412,-133.649
2.870,0.280,-0.449,0.701,-70.901,40.305,-134.351
2.870,0.291,-0.460,0.711,-71.405,39.389,-135.420
2.870,0.285,-0.472,0.727,-71.695,37.450,-137.084
2.880,0.274,-0.483,0.741,-72.305,34.809,-138.595
2.880,0.253,-0.484,0.730,-72.947,32.183,-139.924
2.890,0.228,-0.486,0.735,-73.298,28.962,-140.901
2.890,0.192,-0.480,0.756,-73.191,25.634,-140.763
2.900,0.169,-0.493,0.779,-72.412,23.466,-139.985
2.900,0.131,-0.492,0.775,-71.420,21.206,-138.275
2.900,0.100,-0.496,0.781,-70.183,19.267,-135.893
2.910,0.099,-0.495,0.789,-69.511,19.008,-132.840
2.910,0.073,-0.491,0.802,-68.336,19.389,-129.221
2.920,0.058,-0.500,0.811,-66.733,21.023,-125.008
2.920,0.038,-0.494,0.809,-65.695,23.603,-120.260
2.930,0.037,-0.489,0.817,-64.565,27.313,-115.374
2.930,0.039,-0.485,0.823,-63.405,31.618,-110.595
2.930,0.050,-0.482,0.820,-62.794,35.618,-106.641
2.940,0.074,-0.477,0.815,-62.305,40.168,-103.679
2.940,0.097,-0.474,0.829,-61.374,45.511,-101.237
2.950,0.094,-0.468,0.813,-60.718,49.695,-99.267
2.950,0.095,-0.462,0.805,-60.458,52.580,-98.397
2.960,0.083,-0.466,0.780,-60.427,53.893,-97.863
2.960,0.076,-0.460,0.787,-60.702,53.389,-97.756
2.960,0.052,-0.462,0.792,-60.718,51.466,-97.481
2.970,0.027,-0.461,0.785,-60.656,48.031,-97.160
2.970,0.012,-0.467,0.804,-60.458,43.405,-96.855
2.980,-0.009,-0.476,0.815,-60.122,38.321,-96.641
2.980,-0.024,-0.470,0.822,-59.573,32.840,-96.656
2.990,-0.039,-0.474,0.831,-59.053,26.321,-96.305
2.990,-0.048,-0.478,0.844,-58.504,19.817,-95.725
2.990,-0.052,-0.467,0.860,-58.275,14.382,-94.565
3.000,-0.061,-0.458,0.861,-57.649,9.527,-92.397
3.000,-0.053,-0.446,0.873,-57.527,6.000,-89.802
3.010,-0.030,-0.443,0.884,-56.809,3.985,-87.389
3.010,-0.019,-0.438,0.898,-56.229,4.962,-84.794
3.020,-0.018,-0.442,0.917,-54.382,6.229,-81.924
3.020,-0.025,-0.443,0.942,-52.366,7.863,-78.504
3.020,-0.021,-0.441,0.937,-49.878,10.763,-74.870
3.030,-0.010,-0.438,0.942,-48.122,14.992,-70.840
3.030,-0.022,-0.436,0.947,-45.557,18.809,-66.840
3.040,-0.018,-0.433,0.946,-42.962,22.550,-62.992
3.040,0.000,-0.422,0.934,-40.992,26.107,-59.557
3.050,0.013,-0.411,0.924,-39.115,29.008,-56.382
3.050,0.026,-0.411,0.918,-37.359,30.321,-54.382
3.050,0.023,-0.407,0.908,-35.740,30.519,-52.443
3.060,0.032,-0.394,0.885,-35.053,28.580,-51.023
3.060,0.067,-0.387,0.869,-34.595,26.885,-50.595
3.070,0.094,-0.383,0.857,-34.504,24.092,-50.687
3.070,0.111,-0.383,0.855,-34.015,20.702,-51.023
3.080,0.123,-0.375,0.859,-34.015,16.626,-51.618
3.080,0.127,-0.372,0.842,-34.382,12.809,-52.046
3.080,0.131,-0.370,0.851,-35.069,9.298,-52.275
3.090,0.143,-0.373,0.866,-35.679,6.321,-52.366
3.090,0.150,-0.383,0.884,-35.817,5.313,-51.832
3.100,0.167,-0.387,0.898,-35.176,5.740,-50.885
3.100,0.174,-0.383,0.908,-34.534,7.008,-49.435
3.110,0.179,-0.385,0.915,-34.031,9.588,-48.473
3.110,0.201,-0.390,0.918,-32.977,13.008,-47.038
3.110,0.211,-0.388,0.915,-32.061,16.916,-45.985
3.120,0.219,-0.389,0.911,-31.008,21.450,-44.931
3.120,0.232,-0.382,0.906,-30.153,26.870,-43.725
3.130,0.237,-0.378,0.870,-29.420,32.137,-42.763
3.130,0.225,-0.380,0.869,-29.435,36.183,-41.786
3.130,0.223,-0.372,0.854,-29.344,39.542,-41.176
3.140,0.223,-0.376,0.833,-30.473,41.588,-40.794
3.140,0.205,-0.383,0.834,-31.405,42.885,-40.504
3.150,0.206,-0.382,0.836,-31.878,43.496,-40.305
3.150,0.187,-0.387,0.850,-32.947,43.130,-39.908
3.160,0.188,-0.395,0.847,-33.359,42.550,-39.344
3.160,0.186,-0.398,0.874,-33.359,41.847,-38.962
3.160,0.177,-0.407,0.875,-32.931,40.855,-38.534
3.170,0.172,-0.406,0.869,-33.008,40.122,-38.137
3.170,0.172,-0.415,0.863,-33.145,40.031,-37.466
3.180,0.168,-0.419,0.882,-33.359,40.336,-36.824
3.180,0.156,-0.438,0.895,-33.435,40.076,-36.351
3.190,0.121,-0.452,0.928,-33.771,38.244,-35.099
3.190,0.068,-0.457,0.968,-32.885,35.282,-33.450
3.190,0.037,-0.474,1.004,-30.351,31.893,-31.496
3.200,0.022,-0.483,1.025,-27.252,28.290,-29.008
3.200,0.007,-0.499,1.063,-23.603,24.107,-26.183
3.210,0.004,-0.500,1.080,-18.702,20.351,-23.924
3.210,0.003,-0.504,1.084,-14.015,17.435,-20.840
3.220,0.012,-0.492,1.089,-9.176,13.679,-18.366
3.220,0.038,-0.500,1.100,-4.718,12.168,-16.382
3.220,0.058,-0.490,1.085,-0.687,11.893,-14.611
3.230,0.078,-0.485,1.089,3.893,12.092,-13.191
3.230,0.084,-0.477,1.066,7.405,12.305,-11.557
3.240,0.095,-0.462,1.038,10.153,12.198,-10.565
3.240,0.099,-0.451,1.007,12.595,11.710,-9.389
3.240,0.098,-0.429,0.986,14.168,10.382,-7.832
3.250,0.095,-0.416,0.960,14.794,8.214,-6.198
3.250,0.111,-0.407,0.944,14.687,6.824,-4.794
3.260,0.117,-0.399,0.927,14.519,5.603,-3.695
3.260,0.129,-0.388,0.924,14.672,4.489,-2.947
3.260,0.139,-0.380,0.901,14.061,2.351,-2.260
3.270,0.145,-0.368,0.891,13.038,0.382,-1.664
3.270,0.153,-0.361,0.885,12.290,-0.519,-1.084
3.280,0.170,-0.359,0.880,12.046,-0.718,-0.733
3.280,0.176,-0.356,0.867,11.863,-1.084,-0.412
3.280,0.166,-0.354,0.866,11.588,-1.466,-0.092
3.290,0.156,-0.346,0.876,11.634,-1.786,0.595
3.290,0.159,-0.341,0.873,11.649,-2.046,1.557
3.300,0.151,-0.336,0.853,11.267,-1.878,2.397
3.300,0.156,-0.327,0.844,10.947,-1.603,3.328
3.300,0.160,-0.327,0.836,10.183,-1.893,3.863
3.310,0.159,-0.323,0.834,9.481,-2.595,4.366
3.310,0.158,-0.316,0.838,8.885,-3.267,4.611
3.320,0.167,-0.314,0.839,7.985,-3.832,5.053
3.320,0.161,-0.312,0.832,7.115,-4.504,5.649
3.320,0.164,-0.306,0.835,6.321,-5.282,6.397
3.330,0.169,-0.308,0.850,6.015,-5.878,6.931
3.330,0.167,-0.315,0.858,5.603,-6.534,7.557
3.340,0.184,-0.316,0.868,5.908,-7.481,7.863
3.340,0.194,-0.318,0.869,6.366,-7.863,7.924
3.340,0.207,-0.322,0.893,6.427,-7.725,8.061
3.350,0.204,-0.319,0.885,7.221,-7.588,8.015
3.350,0.213,-0.320,0.886,8.198,-8.168,8.015
3.360,0.217,-0.318,0.885,8.855,-8.702,7.954
3.360,0.229,-0.325,0.885,9.924,-9.206,7.969
3.360,0.236,-0.316,0.863,10.275,-9.817,7.603
3.370,0.229,-0.312,0.868,10.168,-10.809,7.389
3.370,0.238,-0.315,0.855,10.565,-11.298,7.221
3.380,0.238,-0.303,0.866,10.779,-11.450,7.099
3.380,0.237,-0.301,0.853,10.855,-11.802,7.008
3.380,0.232,-0.298,0.845,10.992,-12.015,7.527
3.390,0.234,-0.303,0.831,10.855,-12.183,7.664
3.390,0.238,-0.296,0.830,10.626,-12.107,8.107
3.400,0.249,-0.294,0.826,10.122,-11.786,8.183
3.400,0.263,-0.298,0.836,9.359,-11.145,8.641
3.400,0.273,-0.293,0.825,8.733,-9.878,8.733
3.410,0.295,-0.296,0.841,8.198,-7.847,8.550
3.410,0.311,-0.292,0.852,8.351,-5.878,8.046
3.420,0.320,-0.304,0.851,8.534,-4.046,7.756
3.420,0.316,-0.302,0.847,8.763,-2.076,7.496
3.420,0.312,-0.302,0.851,8.763,-0.565,7.084
3.430,0.309,-0.299,0.840,8.947,1.023,6.916
3.430,0.300,-0.294,0.844,9.389,2.214,6.656
3.440,0.291,-0.299,0.832,9.695,2.580,6.809
3.440,0.278,-0.299,0.820,9.511,2.824,6.962
3.440,0.273,-0.301,0.804,9.298,2.473,7.008
3.450,0.280,-0.300,0.823,8.977,2.107,7.115
3.450,0.285,-0.290,0.812,8.718,2.260,6.824
3.450,0.285,-0.284,0.802,8.626,1.969,6.473
3.460,0.289,-0.286,0.801,8.183,1.817,6.092
3.460,0.287,-0.295,0.781,8.092,1.435,5.969
3.470,0.281,-0.295,0.781,7.679,1.282,5.679
3.470,0.283,-0.293,0.788,7.557,0.977,5.771
3.470,0.283,-0.298,0.792,7.389,0.794,5.359
3.480,0.272,-0.289,0.785,7.435,0.061,5.344
3.480,0.273,-0.294,0.778,7.038,-0.611,5.374
3.490,0.260,-0.295,0.778,6.336,-1.832,5.420
3.490,0.277,-0.287,0.782,5.511,-2.473,5.740
3.490,0.281,-0.289,0.783,4.840,-2.458,5.771
3.500,0.281,-0.296,0.780,4.336,-2.565,5.969
3.500,0.279,-0.295,0.799,4.076,-2.763,5.969
3.500,0.274,-0.293,0.780,3.740,-2.916,6.244
3.510,0.287,-0.293,0.796,3.710,-2.916,6.397
3.510,0.287,-0.299,0.790,3.786,-2.336,6.595
3.520,0.294,-0.305,0.783,3.771,-1.969,6.947
3.520,0.286,-0.302,0.798,3.725,-1.771,6.641
3.520,0.296,-0.308,0.792,4.260,-1.405,6.122
3.530,0.288,-0.306,0.789,4.687,-1.511,5.863
3.530,0.281,-0.317,0.781,4.641,-2.412,5.664
3.540,0.266,-0.314,0.781,4.550,-3.893,5.511
3.540,0.260,-0.317,0.776,3.939,-5.069,5.695
3.540,0.260,-0.312,0.788,3.450,-6.382,5.908
3.550,0.256,-0.310,0.800,3.298,-7.069,6.321
3.550,0.258,-0.315,0.801,3.206,-7.450,6.870
3.560,0.265,-0.313,0.803,3.282,-7.939,7.328
3.560,0.267,-0.315,0.801,2.962,-7.817,7.695
3.560,0.288,-0.318,0.804,2.870,-7.344,8.076
3.570,0.301,-0.315,0.806,2.840,-6.168,7.969
3.570,0.308,-0.322,0.824,2.916,-4.947,7.908
3.570,0.319,-0.316,0.832,3.206,-3.649,7.786
3.580,0.316,-0.317,0.822,3.160,-2.000,7.557
3.580,0.324,-0.315,0.826,3.221,-0.580,7.695
3.590,0.326,-0.311,0.830,3.237,1.008,7.435
3.590,0.320,-0.312,0.834,3.405,2.046,7.420
3.590,0.320,-0.309,0.832,3.756,2.489,7.405
3.600,0.326,-0.316,0.825,4.382,2.702,7.191
3.600,0.327,-0.305,0.822,4.519,3.008,6.733
3.610,0.321,-0.303,0.826,4.763,2.885,6.626
3.610,0.314,-0.299,0.816,4.763,2.183,6.092
3.610,0.322,-0.288,0.809,4.565,1.023,5.664
3.620,0.323,-0.290,0.797,4.336,0.901,5.420
3.620,0.322,-0.283,0.800,4.427,1.099,5.176
3.620,0.317,-0.286,0.799,4.153,1.008,5.191
3.630,0.312,-0.282,0.785,3.725,0.947,4.947
3.630,0.313,-0.275,0.778,3.053,1.176,4.733
3.640,0.319,-0.277,0.779,2.412,1.450,4.504
3.640,0.320,-0.278,0.778,1.908,1.725,4.214
3.640,0.319,-0.276,0.784,1.481,0.901,3.740
3.650,0.316,-0.271,0.777,1.389,-1.298,3.237
3.650,0.331,-0.271,0.781,-0.061,-3.695,2.656
3.660,0.350,-0.269,0.788,-1.023,-3.511,2.153
3.660,0.350,-0.275,0.812,-1.435,-2.763,1.878
3.660,0.344,-0.275,0.813,-1.710,-2.901,1.313
3.670,0.350,-0.279,0.811,-1.878,-2.977,0.977
3.670,0.345,-0.274,0.807,-2.534,-2.427,0.382
3.680,0.347,-0.279,0.813,-2.595,-1.634,0.244
3.680,0.341,-0.286,0.817,-2.702,-0.885,0.061
3.680,0.349,-0.295,0.814,-2.992,0.046,-0.366
3.690,0.339,-0.289,0.809,-3.160,0.992,-0.763
3.690,0.337,-0.294,0.811,-3.344,1.893,-0.947
3.700,0.337,-0.298,0.819,-3.405,2.718,-1.618
3.700,0.331,-0.295,0.820,-3.267,3.282,-1.969
3.700,0.312,-0.298,0.829,-2.794,3.176,-1.863
3.710,0.302,-0.303,0.814,-3.069,1.206,-1.969
3.710,0.309,-0.295,0.807,-3.740,-1.069,-2.534
3.720,0.312,-0.293,0.808,-4.244,-0.977,-3.191
3.720,0.294,-0.303,0.818,-4.046,-1.038,-3.267
3.720,0.284,-0.303,0.826,-4.137,-2.458,-3.130
3.730,0.277,-0.302,0.819,-4.244,-3.496,-3.099
3.730,0.270,-0.305,0.822,-4.244,-4.183,-2.580
3.740,0.261,-0.307,0.820,-4.214,-4.733,-1.969
3.740,0.258,-0.309,0.844,-3.939,-5.115,-1.023
3.740,0.264,-0.310,0.826,-3.511,-4.672,-0.046
3.750,0.269,-0.316,0.836,-3.008,-3.985,0.763
3.750,0.280,-0.313,0.848,-2.656,-2.718,1.115
3.760,0.289,-0.311,0.850,-2.336,-1.237,1.588
3.760,0.302,-0.319,0.857,-1.939,0.901,1.786
3.760,0.309,-0.314,0.864,-1.313,3.176,2.015
3.770,0.305,-0.316,0.848,-1.145,4.763,1.985
3.770,0.305,-0.313,0.853,-0.977,5.893,2.183
3.780,0.297,-0.320,0.847,-0.198,6.534,1.908
3.780,0.288,-0.310,0.852,0.534,4.748,1.573
3.780,0.290,-0.312,0.842,0.092,1.557,0.550
3.790,0.294,-0.304,0.834,-0.153,-0.458,-0.092
3.790,0.300,-0.307,0.840,-0.122,-1.679,-0.412
3.800,0.288,-0.309,0.851,0.489,-3.450,-0.534
3.800,0.278,-0.310,0.841,0.702,-5.664,-0.885
3.800,0.283,-0.302,0.832,0.672,-6.229,-0.779
3.810,0.285,-0.296,0.819,0.351,-6.397,-0.534
3.810,0.282,-0.303,0.821,0.427,-6.031,-0.122
3.820,0.294,-0.295,0.811,0.382,-5.405,0.244
3.820,0.288,-0.296,0.812,0.351,-4.565,0.519
3.820,0.298,-0.295,0.820,-0.061,-3.267,0.763
3.830,0.302,-0.296,0.806,-0.748,-1.802,0.916
3.830,0.312,-0.298,0.809,-1.313,-0.336,0.855
3.840,0.314,-0.297,0.810,-1.878,0.947,0.534
3.840,0.313,-0.292,0.814,-1.817,2.107,0.122
3.840,0.311,-0.293,0.817,-1.817,2.580,0.031
3.850,0.304,-0.289,0.820,-1.740,1.634,0.046
3.850,0.301,-0.295,0.818,-2.076,1.115,-0.351
3.850,0.288,-0.297,0.810,-2.031,0.656,-0.260
3.860,0.282,-0.292,0.818,-1.954,-0.580,-0.061
3.860,0.284,-0.294,0.816,-1.985,-1.725,-0.015
3.870,0.295,-0.297,0.818,-2.305,-2.244,-0.183
3.870,0.296,-0.297,0.823,-2.443,-2.366,0.137
3.880,0.288,-0.294,0.817,-2.382,-2.489,0.214
3.880,0.300,-0.294,0.842,-2.305,-2.198,0.137
3.880,0.299,-0.296,0.842,-2.061,-1.084,0.305
3.890,0.298,-0.294,0.834,-1.740,0.260,0.427
3.890,0.300,-0.300,0.848,-1.771,1.893,0.702
3.890,0.302,-0.304,0.835,-1.603,3.496,0.809
3.900,0.299,-0.302,0.844,-1.344,5.023,0.992
3.900,0.301,-0.306,0.836,-1.053,6.336,0.870
3.910,0.302,-0.305,0.837,-0.672,7.084,0.565
3.910,0.300,-0.306,0.833,-0.244,7.542,0.672
3.910,0.289,-0.308,0.831,0.198,7.710,0.519
3.920,0.278,-0.297,0.822,0.473,7.420,0.489
3.920,0.268,-0.307,0.820,0.794,6.397,0.840
3.930,0.263,-0.304,0.817,0.702,5.160,0.916
3.930,0.258,-0.301,0.805,0.611,3.908,0.992
3.930,0.255,-0.298,0.811,0.718,2.763,1.221
3.940,0.256,-0.297,0.793,0.305,1.420,1.084
3.940,0.257,-0.296,0.805,0.076,0.122,1.282
3.940,0.266,-0.296,0.796,-0.229,-0.550,1.221
3.950,0.267,-0.291,0.794,-0.870,-1.481,1.191
3.950,0.266,-0.289,0.796,-1.481,-2.595,1.298
3.960,0.269,-0.291,0.814,-1.786,-2.992,1.405
3.960,0.281,-0.293,0.806,-2.076,-2.626,1.557
3.960,0.283,-0.286,0.811,-2.260,-2.473,1.725
3.970,0.285,-0.298,0.817,-2.214,-2.198,1.679
3.970,0.284,-0.302,0.819,-2.290,-1.908,1.832
3.980,0.280,-0.301,0.829,-2.351,-1.588,1.969
3.980,0.299,-0.302,0.826,-2.443,-1.206,1.985
3.980,0.292,-0.310,0.837,-2.183,-1.466,1.679
3.990,0.295,-0.308,0.836,-2.137,-2.092,1.588
3.990,0.296,-0.312,0.852,-1.634,-2.351,1.405
4.000,0.299,-0.311,0.850,-0.809,-2.122,1.313
4.000,0.301,-0.313,0.854,-0.107,-1.847,1.008
4.000,0.296,-0.312,0.857,0.458,-1.969,1.130
4.010,0.295,-0.304,0.848,1.130,-1.634,1.084
4.010,0.288,-0.302,0.849,1.679,-0.824,1.206
4.020,0.289,-0.285,0.838,1.985,-0.122,1.481
4.020,0.291,-0.292,0.825,2.015,0.519,1.573
4.020,0.287,-0.284,0.828,2.260,0.489,1.527
4.030,0.288,-0.294,0.819,2.046,1.191,1.527
4.030,0.294,-0.292,0.823,2.076,1.924,1.542
4.040,0.293,-0.276,0.821,1.725,2.702,1.832
4.040,0.294,-0.282,0.822,1.527,3.099,1.924
4.040,0.294,-0.283,0.807,1.191,3.405,1.985
4.050,0.294,-0.288,0.812,0.809,4.000,2.000
4.050,0.294,-0.287,0.813,0.534,4.809,1.771
4.050,0.288,-0.283,0.801,-0.076,4.718,1.847
4.060,0.285,-0.285,0.790,-0.748,4.382,1.771
4.060,0.280,-0.289,0.806,-1.160,3.832,1.634
4.070,0.287,-0.289,0.811,-1.344,2.840,1.557
