Time,acce_x,acce_y,acce_z,gyro_x,gyro_y,gyro_z
0.000,0.252,-0.281,0.833,-1.893,1.863,0.580
0.000,0.250,-0.288,0.839,-1.908,2.611,0.718
0.010,0.251,-0.290,0.842,-1.893,2.809,0.718
0.010,0.252,-0.290,0.837,-1.847,3.267,0.870
0.010,0.245,-0.292,0.832,-1.786,3.435,0.718
0.020,0.257,-0.286,0.841,-1.802,3.573,0.870
0.020,0.259,-0.292,0.831,-1.588,3.695,0.794
0.020,0.248,-0.285,0.841,-1.481,3.969,0.672
0.030,0.248,-0.290,0.840,-1.695,3.573,0.733
0.030,0.249,-0.292,0.835,-1.695,3.069,0.763
0.030,0.250,-0.291,0.828,-2.122,2.885,0.641
0.040,0.256,-0.289,0.829,-2.107,2.809,0.718
0.040,0.250,-0.295,0.845,-2.214,2.885,0.580
0.040,0.249,-0.293,0.838,-2.031,1.893,0.489
0.050,0.247,-0.290,0.846,-2.214,1.252,0.748
0.050,0.248,-0.287,0.848,-1.985,0.977,0.641
0.050,0.253,-0.286,0.850,-1.618,0.748,0.824
0.060,0.260,-0.286,0.857,-1.252,0.534,0.626
0.060,0.256,-0.287,0.841,-0.977,0.366,0.656
0.070,0.256,-0.283,0.837,-0.855,0.260,0.550
0.070,0.254,-0.283,0.839,-0.626,0.595,0.611
0.070,0.254,-0.281,0.832,-0.733,1.344,0.779
0.080,0.264,-0.279,0.824,-1.176,1.985,0.794
0.080,0.267,-0.272,0.819,-1.298,2.397,1.191
0.090,0.260,-0.271,0.829,-1.725,2.672,1.069
0.090,0.261,-0.270,0.828,-2.092,2.870,1.298
0.090,0.257,-0.276,0.823,-2.427,2.397,1.298
0.100,0.262,-0.281,0.824,-2.855,1.878,1.008
0.100,0.263,-0.280,0.832,-3.450,1.206,0.840
0.100,0.267,-0.275,0.828,-3.710,0.519,0.687
0.110,0.260,-0.281,0.839,-3.832,-0.244,0.366
0.110,0.262,-0.280,0.838,-4.076,-0.824,0.229
0.120,0.255,-0.284,0.834,-4.015,-1.725,0.168
0.120,0.255,-0.287,0.847,-4.214,-2.626,0.504
0.120,0.253,-0.288,0.851,-4.000,-2.824,0.351
0.130,0.262,-0.290,0.848,-3.603,-2.794,0.473
0.130,0.262,-0.292,0.862,-3.359,-2.763,0.565
0.140,0.270,-0.294,0.866,-2.870,-2.458,0.443
0.140,0.268,-0.303,0.868,-2.611,-1.969,0.214
0.140,0.275,-0.297,0.854,-2.092,-1.817,0.198
0.150,0.276,-0.296,0.870,-1.908,-1.817,0.092
0.150,0.271,-0.297,0.872,-1.618,-1.618,0.107
0.160,0.267,-0.296,0.868,-1.740,-1.084,-0.015
0.160,0.270,-0.291,0.861,-1.725,-0.794,0.031
0.160,0.266,-0.287,0.864,-1.405,-1.053,-0.107
0.170,0.256,-0.292,0.865,-1.298,-1.008,-0.168
0.170,0.259,-0.282,0.852,-1.160,-1.099,-0.168
0.180,0.250,-0.281,0.857,-1.267,-1.786,-0.168
0.180,0.243,-0.281,0.851,-1.221,-2.229,0.244
0.180,0.240,-0.279,0.846,-1.160,-2.198,0.397
0.190,0.246,-0.273,0.844,-1.466,-2.931,0.626
0.190,0.246,-0.275,0.833,-1.679,-3.237,0.840
0.200,0.246,-0.274,0.833,-2.244,-3.145,0.916
0.200,0.249,-0.276,0.834,-2.443,-3.298,0.885
0.200,0.251,-0.279,0.834,-2.870,-3.069,1.313
0.210,0.259,-0.277,0.844,-3.176,-2.214,1.450
0.210,0.262,-0.277,0.846,-3.069,-1.542,1.786
0.220,0.271,-0.282,0.854,-2.794,-0.550,1.924
0.220,0.279,-0.289,0.858,-2.397,0.534,1.969
0.220,0.283,-0.283,0.876,-1.649,1.145,1.802
0.230,0.284,-0.279,0.869,-1.267,1.420,1.405
0.230,0.282,-0.280,0.860,-1.023,1.603,1.038
0.240,0.291,-0.283,0.869,-0.824,1.634,0.702
0.240,0.291,-0.283,0.868,-0.366,1.756,0.107
0.240,0.288,-0.287,0.862,0.061,1.496,-0.366
0.250,0.269,-0.287,0.859,0.229,0.885,-0.565
0.250,0.271,-0.286,0.856,0.397,0.397,-0.687
0.260,0.267,-0.279,0.845,0.443,-0.031,-0.840
0.260,0.261,-0.281,0.838,0.687,-0.489,-0.794
0.260,0.265,-0.282,0.844,0.885,-0.794,-1.069
0.270,0.248,-0.278,0.830,0.733,-1.740,-1.099
0.270,0.250,-0.278,0.824,0.336,-2.397,-0.901
0.280,0.249,-0.273,0.831,0.061,-2.626,-0.947
0.280,0.243,-0.278,0.831,-0.397,-2.519,-0.641
0.280,0.248,-0.281,0.828,-0.977,-2.824,-0.672
0.290,0.253,-0.281,0.821,-1.313,-2.626,-0.580
0.290,0.245,-0.274,0.826,-1.542,-2.061,-0.366
0.300,0.242,-0.278,0.816,-2.000,-2.031,0.092
0.300,0.252,-0.290,0.825,-2.046,-1.817,0.443
0.300,0.253,-0.284,0.828,-2.183,-1.313,0.260
0.310,0.259,-0.284,0.840,-2.198,-0.794,0.580
0.310,0.271,-0.282,0.852,-2.061,-0.260,0.229
0.320,0.274,-0.280,0.853,-1.771,0.244,-0.015
0.320,0.272,-0.281,0.854,-1.450,0.656,-0.198
0.320,0.271,-0.277,0.847,-1.252,0.397,-0.443
0.330,0.269,-0.282,0.855,-1.221,0.260,-0.504
0.330,0.268,-0.280,0.854,-1.145,0.748,-0.595
0.340,0.268,-0.283,0.847,-0.916,0.702,-0.626
0.340,0.266,-0.279,0.854,-0.931,0.962,-0.595
0.340,0.273,-0.286,0.854,-0.412,1.145,-0.779
0.350,0.271,-0.286,0.849,-0.015,1.817,-0.641
0.350,0.271,-0.287,0.843,0.015,2.611,-0.733
0.360,0.263,-0.288,0.843,0.107,2.870,-0.580
0.360,0.256,-0.285,0.836,0.473,2.809,-0.534
0.360,0.257,-0.287,0.833,0.244,3.069,-0.809
0.370,0.255,-0.286,0.825,0.122,3.374,-0.595
0.370,0.243,-0.283,0.807,0.153,3.542,-0.519
0.380,0.243,-0.278,0.812,-0.183,3.176,-0.458
0.380,0.238,-0.283,0.818,-0.763,2.748,-0.153
0.380,0.245,-0.276,0.819,-1.191,2.458,-0.137
0.390,0.243,-0.283,0.815,-1.679,1.802,0.107
0.390,0.242,-0.281,0.816,-2.183,1.527,0.244
0.400,0.251,-0.283,0.824,-2.336,0.885,0.122
0.400,0.250,-0.280,0.827,-2.595,0.382,0.198
0.400,0.256,-0.287,0.827,-2.763,0.000,0.336
0.410,0.261,-0.289,0.834,-2.824,0.046,0.290
0.410,0.268,-0.285,0.843,-2.824,0.031,0.183
0.410,0.270,-0.281,0.845,-2.901,0.153,0.092
0.420,0.267,-0.281,0.838,-2.763,0.718,-0.092
0.420,0.268,-0.277,0.840,-2.611,1.176,-0.198
0.430,0.269,-0.281,0.827,-2.519,1.634,-0.214
0.430,0.265,-0.278,0.834,-2.626,2.000,-0.107
0.430,0.268,-0.275,0.830,-2.382,2.870,0.107
0.440,0.264,-0.277,0.838,-2.534,3.420,0.443
0.440,0.266,-0.275,0.826,-2.504,3.634,0.397
0.450,0.261,-0.280,0.833,-2.595,4.046,0.458
0.450,0.260,-0.270,0.830,-2.779,4.351,0.489
0.450,0.263,-0.268,0.817,-3.084,4.718,0.611
0.460,0.265,-0.279,0.828,-3.557,4.687,0.473
0.460,0.267,-0.275,0.827,-3.542,5.130,0.443
0.470,0.270,-0.282,0.830,-3.893,5.481,0.351
0.470,0.263,-0.273,0.830,-4.122,5.420,0.031
0.470,0.265,-0.274,0.830,-4.336,5.511,-0.275
0.480,0.263,-0.276,0.835,-4.290,5.847,-0.321
0.480,0.251,-0.271,0.833,-4.336,5.649,-0.702
0.490,0.248,-0.278,0.828,-4.641,5.511,-0.702
0.490,0.251,-0.280,0.839,-4.595,5.160,-0.702
0.490,0.254,-0.278,0.846,-4.351,4.931,-0.779
0.500,0.247,-0.275,0.833,-4.351,4.748,-0.977
0.500,0.247,-0.279,0.832,-4.519,4.397,-1.130
0.510,0.239,-0.277,0.829,-5.191,4.015,-1.237
0.510,0.231,-0.275,0.831,-5.450,2.916,-0.656
0.510,0.242,-0.282,0.815,-4.687,3.099,-1.389
0.520,0.230,-0.286,0.829,-4.305,1.374,-1.313
0.520,0.228,-0.279,0.833,-4.672,0.534,-1.237
0.530,0.231,-0.270,0.822,-5.176,0.122,-1.115
0.530,0.232,-0.277,0.834,-5.191,-0.580,-1.252
0.530,0.243,-0.278,0.833,-5.237,-1.847,-1.038
0.540,0.240,-0.285,0.840,-5.145,-2.168,-1.099
0.540,0.248,-0.280,0.844,-5.160,-1.740,-0.992
0.550,0.247,-0.285,0.848,-4.947,-1.786,-1.145
0.550,0.246,-0.285,0.853,-4.260,-1.282,-1.099
0.550,0.255,-0.289,0.858,-3.847,-0.748,-0.947
0.560,0.253,-0.290,0.853,-3.618,-0.382,-0.931
0.560,0.250,-0.296,0.863,-3.084,0.092,-0.977
0.570,0.248,-0.291,0.863,-2.962,0.275,-1.115
0.570,0.243,-0.296,0.868,-2.489,0.443,-1.099
0.570,0.244,-0.302,0.869,-2.092,0.443,-0.916
0.580,0.235,-0.293,0.859,-1.832,0.412,-0.916
0.580,0.240,-0.293,0.867,-1.481,0.351,-0.794
0.590,0.242,-0.295,0.842,-1.481,0.305,-0.626
0.590,0.242,-0.296,0.847,-1.557,0.550,-0.687
0.590,0.246,-0.288,0.851,-1.802,0.382,-0.779
0.600,0.244,-0.294,0.857,-1.924,0.427,-0.824
0.600,0.242,-0.295,0.848,-2.046,-0.015,-0.885
0.610,0.235,-0.298,0.850,-2.229,-0.641,-0.672
0.610,0.229,-0.297,0.850,-2.168,-1.023,-0.779
0.610,0.229,-0.298,0.859,-2.137,-0.962,-0.534
0.620,0.225,-0.300,0.859,-2.046,-1.176,-0.275
0.620,0.216,-0.301,0.867,-1.893,-1.435,-0.092
0.630,0.228,-0.302,0.864,-1.573,-1.084,0.244
0.630,0.232,-0.301,0.858,-1.450,-1.313,0.305
0.630,0.227,-0.300,0.863,-1.252,-1.725,0.290
0.640,0.230,-0.300,0.865,-0.779,-2.122,0.336
0.640,0.236,-0.298,0.862,-0.550,-1.710,0.336
0.650,0.243,-0.297,0.865,-0.336,-1.466,0.443
0.650,0.235,-0.297,0.857,-0.397,-1.450,0.626
0.650,0.233,-0.294,0.862,-0.107,-1.420,0.870
0.660,0.227,-0.290,0.854,-0.031,-1.954,1.221
0.660,0.240,-0.290,0.863,-0.275,-2.519,1.298
0.670,0.251,-0.293,0.850,-0.153,-1.863,1.267
0.670,0.251,-0.284,0.860,-0.061,-1.420,1.267
0.670,0.248,-0.291,0.859,-0.198,-1.313,1.237
0.680,0.245,-0.294,0.850,-0.244,-1.405,1.237
0.680,0.248,-0.292,0.858,-0.168,-1.450,1.450
0.690,0.259,-0.295,0.860,-0.046,-0.855,1.527
0.690,0.255,-0.297,0.862,0.305,-0.046,1.481
0.690,0.260,-0.291,0.854,0.290,0.198,1.573
0.700,0.253,-0.293,0.854,0.382,0.153,1.679
0.700,0.259,-0.284,0.851,0.550,0.412,1.374
0.710,0.262,-0.288,0.865,0.977,0.733,1.450
0.710,0.255,-0.294,0.855,1.145,1.176,1.374
0.710,0.256,-0.284,0.857,1.084,1.267,1.389
0.720,0.261,-0.285,0.844,1.221,1.130,1.328
0.720,0.256,-0.289,0.838,1.206,1.282,1.359
0.730,0.260,-0.283,0.838,1.038,1.389,1.298
0.730,0.252,-0.286,0.828,0.595,1.435,1.313
0.730,0.257,-0.283,0.828,0.122,1.053,1.298
0.740,0.256,-0.284,0.834,-0.122,1.053,1.191
0.740,0.249,-0.281,0.829,-0.550,0.977,1.237
0.740,0.258,-0.281,0.839,-0.718,0.931,1.649
0.750,0.254,-0.291,0.839,-0.962,0.992,1.771
0.750,0.253,-0.291,0.843,-0.840,1.557,1.847
0.760,0.258,-0.288,0.851,-0.550,1.771,2.076
0.760,0.258,-0.292,0.844,-0.427,1.908,2.153
0.760,0.272,-0.292,0.852,-0.107,2.092,1.878
0.770,0.283,-0.286,0.849,0.061,2.290,1.832
0.770,0.279,-0.294,0.856,0.550,2.412,1.282
0.780,0.281,-0.288,0.858,0.733,2.641,0.718
0.780,0.282,-0.287,0.855,0.840,2.870,0.489
0.780,0.266,-0.284,0.840,1.374,2.809,0.275
0.790,0.262,-0.281,0.840,1.298,2.198,0.137
0.790,0.263,-0.283,0.838,1.145,1.298,0.168
0.790,0.261,-0.284,0.830,1.267,0.916,-0.046
0.800,0.259,-0.283,0.818,0.794,0.626,0.061
0.800,0.262,-0.280,0.818,0.504,0.214,0.000
0.810,0.257,-0.279,0.819,0.183,-0.641,-0.092
0.810,0.257,-0.278,0.814,-0.290,-1.099,-0.076
0.810,0.256,-0.281,0.818,-0.656,-0.947,-0.153
0.820,0.253,-0.280,0.823,-0.702,-0.198,-0.168
0.820,0.254,-0.278,0.826,-0.885,0.366,-0.198
0.830,0.244,-0.274,0.820,-0.779,0.550,0.183
0.830,0.246,-0.277,0.819,-0.931,1.069,0.107
0.830,0.241,-0.274,0.822,-0.992,1.038,0.198
0.840,0.235,-0.280,0.816,-1.221,0.489,0.489
0.840,0.236,-0.279,0.823,-1.618,0.153,0.550
0.850,0.241,-0.288,0.829,-1.420,0.000,0.626
0.850,0.232,-0.283,0.833,-1.496,-0.824,0.763
0.850,0.223,-0.292,0.843,-1.405,-1.863,1.038
0.860,0.224,-0.289,0.846,-1.176,-1.985,1.389
0.860,0.223,-0.281,0.845,-0.840,-1.725,1.802
0.870,0.226,-0.289,0.854,-0.534,-1.466,2.427
0.870,0.224,-0.290,0.858,-0.137,-0.763,2.763
0.870,0.234,-0.297,0.858,0.366,-0.076,2.718
0.880,0.244,-0.290,0.860,0.565,0.015,2.641
0.880,0.233,-0.288,0.858,0.641,0.290,2.656
0.890,0.227,-0.289,0.855,0.855,0.153,2.824
0.890,0.230,-0.290,0.866,0.916,0.153,2.702
0.890,0.224,-0.298,0.853,1.176,-0.443,2.763
0.900,0.209,-0.296,0.846,1.023,-2.092,2.443
0.900,0.196,-0.300,0.868,0.641,-3.420,2.534
0.900,0.183,-0.310,0.877,0.885,-3.817,2.809
0.910,0.170,-0.320,0.881,1.344,-4.702,3.176
0.910,0.148,-0.320,0.892,1.664,-6.656,3.557
0.920,0.132,-0.330,0.898,2.198,-7.924,4.397
0.920,0.115,-0.333,0.901,3.115,-9.145,5.527
0.920,0.102,-0.343,0.905,3.695,-10.168,6.626
0.930,0.086,-0.338,0.916,4.656,-10.473,8.214
0.930,0.082,-0.341,0.923,5.649,-9.969,9.832
0.940,0.081,-0.344,0.927,6.718,-9.679,11.160
0.940,0.078,-0.338,0.936,7.725,-9.573,12.733
0.940,0.067,-0.335,0.944,8.458,-9.740,14.168
0.950,0.066,-0.339,0.926,9.481,-9.389,15.756
0.950,0.057,-0.340,0.944,10.351,-8.489,17.298
0.960,0.052,-0.339,0.932,11.176,-8.351,19.053
0.960,0.033,-0.339,0.935,11.817,-8.870,20.702
0.960,0.025,-0.340,0.945,12.565,-9.893,22.718
0.970,0.016,-0.345,0.962,13.954,-11.053,25.023
0.970,0.008,-0.344,0.961,15.069,-11.450,26.885
0.980,-0.004,-0.350,0.961,15.847,-12.947,28.794
0.980,-0.011,-0.358,0.980,16.687,-15.130,30.779
0.990,-0.019,-0.365,0.987,18.244,-17.679,32.275
0.990,-0.031,-0.369,0.987,19.603,-20.336,33.832
0.990,-0.044,-0.372,1.001,21.206,-22.977,35.450
1.000,-0.050,-0.375,1.003,22.702,-25.267,37.084
1.000,-0.060,-0.385,1.020,24.595,-26.962,39.206
1.010,-0.072,-0.386,1.024,26.885,-28.244,41.527
1.010,-0.070,-0.385,1.020,28.534,-28.458,43.939
1.010,-0.080,-0.387,1.015,30.489,-28.550,46.641
1.020,-0.083,-0.384,1.017,32.198,-28.840,49.450
1.020,-0.100,-0.385,1.016,33.893,-28.779,52.565
1.030,-0.105,-0.380,1.019,35.191,-28.885,55.710
1.030,-0.120,-0.386,1.012,36.397,-29.359,59.115
1.040,-0.125,-0.389,1.010,37.710,-30.504,62.580
1.040,-0.136,-0.386,1.010,39.008,-32.031,65.847
1.040,-0.123,-0.384,1.005,40.611,-33.145,69.298
1.050,-0.124,-0.380,1.014,42.061,-33.618,72.840
1.050,-0.121,-0.381,1.007,43.832,-34.061,76.214
1.060,-0.106,-0.376,0.985,45.069,-33.817,79.176
1.060,-0.099,-0.367,0.979,46.092,-33.802,82.229
1.070,-0.083,-0.369,0.963,46.962,-33.237,85.145
1.070,-0.076,-0.366,0.965,47.557,-33.053,87.420
1.070,-0.079,-0.359,0.948,48.153,-32.901,89.664
1.080,-0.087,-0.357,0.935,48.214,-33.664,92.214
1.080,-0.085,-0.357,0.931,48.153,-35.481,93.863
1.090,-0.081,-0.359,0.935,48.198,-35.893,96.626
1.090,-0.085,-0.366,0.929,48.137,-37.679,98.321
1.100,-0.094,-0.376,0.930,48.809,-40.427,99.618
1.100,-0.101,-0.386,0.930,49.374,-42.916,101.466
1.100,-0.101,-0.387,0.935,50.397,-45.344,102.962
1.110,-0.109,-0.388,0.938,51.496,-48.198,104.885
1.110,-0.108,-0.399,0.940,52.672,-50.443,106.962
1.120,-0.111,-0.400,0.938,53.969,-52.260,109.344
1.120,-0.123,-0.401,0.938,55.527,-52.824,112.427
1.130,-0.127,-0.406,0.930,56.870,-51.786,116.092
1.130,-0.116,-0.411,0.926,58.168,-50.382,119.817
1.130,-0.123,-0.410,0.917,59.008,-48.061,123.893
1.140,-0.125,-0.411,0.907,59.603,-44.748,128.122
1.140,-0.123,-0.403,0.907,60.168,-42.580,132.229
1.150,-0.115,-0.407,0.896,59.893,-41.359,135.924
1.150,-0.115,-0.403,0.883,59.481,-41.084,139.435
1.160,-0.098,-0.405,0.907,59.344,-41.405,142.458
1.160,-0.093,-0.414,0.893,59.328,-42.168,145.252
1.170,-0.085,-0.419,0.887,59.740,-44.763,147.710
1.170,-0.070,-0.415,0.893,60.092,-47.695,149.634
1.170,-0.038,-0.412,0.882,61.008,-49.435,150.809
1.180,-0.016,-0.413,0.864,61.405,-50.809,151.221
1.180,0.008,-0.414,0.869,61.496,-52.611,151.084
1.190,0.018,-0.419,0.849,61.053,-53.496,150.351
1.190,0.019,-0.424,0.854,61.893,-55.939,150.824
1.200,0.007,-0.427,0.882,63.542,-58.718,151.191
1.200,0.022,-0.422,0.862,64.824,-59.069,151.969
1.200,0.038,-0.414,0.832,64.687,-59.084,152.794
1.210,0.044,-0.419,0.819,64.351,-58.214,153.664
1.210,0.044,-0.419,0.817,64.534,-57.588,154.885
1.220,0.052,-0.428,0.804,64.000,-56.718,156.290
1.220,0.054,-0.421,0.784,63.481,-55.313,158.168
1.220,0.053,-0.422,0.791,63.313,-54.565,160.412
1.230,0.046,-0.426,0.792,63.634,-54.947,162.748
1.230,0.071,-0.429,0.787,64.198,-55.756,164.885
1.240,0.083,-0.436,0.800,65.328,-56.061,166.534
1.240,0.091,-0.443,0.793,66.748,-56.748,168.275
1.250,0.113,-0.444,0.789,67.847,-56.809,170.137
1.250,0.138,-0.433,0.772,68.763,-55.481,171.542
1.250,0.165,-0.437,0.757,69.618,-53.725,172.718
1.260,0.189,-0.428,0.742,70.107,-52.000,173.237
1.260,0.217,-0.428,0.733,70.198,-50.565,173.756
1.270,0.220,-0.435,0.725,70.031,-48.687,174.290
1.270,0.226,-0.428,0.710,69.664,-46.992,174.824
1.280,0.232,-0.428,0.699,69.191,-46.534,175.664
1.280,0.237,-0.431,0.677,68.137,-46.519,176.076
1.280,0.228,-0.432,0.672,66.870,-47.420,177.282
1.290,0.226,-0.441,0.681,66.504,-48.855,178.947
1.290,0.228,-0.436,0.676,65.985,-50.824,180.626
1.300,0.242,-0.443,0.661,65.710,-52.656,182.183
1.300,0.273,-0.445,0.664,64.992,-55.588,182.305
1.310,0.310,-0.445,0.650,64.412,-57.450,181.832
1.310,0.335,-0.449,0.657,63.695,-58.962,181.099
1.310,0.365,-0.453,0.651,62.885,-59.832,180.061
1.320,0.387,-0.450,0.650,62.443,-59.634,179.145
1.320,0.387,-0.452,0.642,62.198,-58.305,178.672
1.330,0.398,-0.443,0.632,62.000,-56.901,178.412
1.330,0.410,-0.452,0.634,61.679,-55.359,178.031
1.340,0.421,-0.455,0.634,61.710,-53.221,178.046
1.340,0.421,-0.459,0.638,61.450,-51.328,178.244
1.340,0.426,-0.464,0.644,61.649,-50.000,178.672
1.350,0.447,-0.463,0.656,60.840,-46.809,179.069
1.350,0.451,-0.469,0.657,60.565,-44.366,179.725
1.360,0.462,-0.474,0.658,59.969,-41.969,180.443
1.360,0.485,-0.482,0.683,60.580,-38.962,180.977
1.370,0.497,-0.489,0.709,61.740,-36.473,181.542
1.370,0.501,-0.493,0.707,63.985,-34.550,182.183
1.370,0.506,-0.486,0.710,65.557,-33.160,182.305
1.380,0.513,-0.490,0.693,66.641,-32.092,182.519
1.380,0.531,-0.486,0.687,67.695,-30.489,182.015
1.390,0.538,-0.492,0.687,68.397,-28.107,182.168
1.390,0.540,-0.484,0.671,68.427,-26.794,182.000
1.400,0.553,-0.476,0.658,68.168,-25.450,181.313
1.400,0.572,-0.479,0.654,67.237,-23.878,180.031
1.400,0.573,-0.475,0.650,66.366,-23.450,178.550
1.410,0.573,-0.474,0.658,65.771,-23.588,176.916
1.410,0.578,-0.469,0.678,65.313,-23.420,175.374
1.420,0.585,-0.470,0.682,65.450,-23.679,173.466
1.420,0.590,-0.469,0.675,65.160,-23.893,171.466
1.420,0.580,-0.470,0.676,64.931,-25.038,169.710
1.430,0.561,-0.470,0.672,65.023,-27.939,168.260
1.430,0.546,-0.453,0.683,65.450,-32.992,167.450
1.440,0.557,-0.456,0.672,67.481,-38.214,165.374
1.440,0.587,-0.431,0.654,65.359,-39.359,163.649
1.450,0.620,-0.410,0.581,62.076,-36.641,161.634
1.450,0.624,-0.409,0.589,60.672,-36.916,159.603
1.450,0.620,-0.400,0.599,58.870,-37.985,157.878
1.460,0.630,-0.392,0.579,57.145,-37.344,155.939
1.460,0.644,-0.393,0.577,54.901,-35.649,153.878
1.470,0.642,-0.391,0.564,52.305,-34.641,151.786
1.470,0.651,-0.385,0.572,49.374,-33.802,149.893
1.480,0.663,-0.383,0.579,46.550,-31.374,148.061
1.480,0.671,-0.384,0.587,44.214,-27.969,146.046
1.480,0.679,-0.396,0.585,41.786,-26.153,143.069
1.490,0.683,-0.398,0.583,38.885,-24.137,139.649
1.490,0.667,-0.394,0.600,36.473,-22.702,136.840
1.500,0.651,-0.399,0.610,34.351,-21.511,134.275
1.500,0.628,-0.406,0.617,32.031,-20.794,131.588
1.510,0.603,-0.412,0.635,30.076,-21.649,129.252
1.510,0.560,-0.411,0.661,28.931,-24.458,127.740
1.510,0.530,-0.415,0.679,28.885,-27.420,127.176
1.520,0.523,-0.412,0.690,29.313,-29.756,127.634
1.520,0.515,-0.412,0.704,30.336,-30.885,128.046
1.530,0.514,-0.404,0.710,30.992,-30.443,128.840
1.530,0.526,-0.404,0.710,31.771,-28.504,129.908
1.540,0.530,-0.397,0.699,32.702,-24.534,131.496
1.540,0.551,-0.385,0.704,32.763,-20.336,133.191
1.540,0.578,-0.386,0.686,32.458,-14.687,133.435
1.550,0.608,-0.379,0.671,31.542,-7.954,133.099
1.550,0.619,-0.374,0.681,30.397,-2.336,132.794
1.560,0.618,-0.380,0.679,29.206,1.771,132.290
1.560,0.621,-0.372,0.689,28.382,4.916,131.832
1.560,0.626,-0.382,0.707,28.305,7.237,131.267
1.570,0.629,-0.381,0.709,28.748,9.573,130.305
1.570,0.634,-0.384,0.709,28.962,11.282,128.565
1.580,0.651,-0.376,0.695,28.260,12.855,126.595
1.580,0.647,-0.380,0.697,27.664,14.275,124.107
1.590,0.640,-0.375,0.697,26.412,14.977,121.527
1.590,0.624,-0.369,0.685,25.115,14.611,119.267
1.590,0.585,-0.376,0.692,23.588,13.145,117.557
1.600,0.547,-0.383,0.702,22.870,10.809,116.901
1.600,0.518,-0.386,0.726,22.672,6.702,116.550
1.610,0.496,-0.398,0.745,22.901,3.115,116.443
1.610,0.488,-0.395,0.753,22.702,0.672,115.817
1.610,0.483,-0.396,0.734,21.557,-1.817,115.282
1.620,0.473,-0.380,0.735,20.718,-4.611,115.069
1.620,0.479,-0.385,0.742,19.878,-6.336,115.221
1.630,0.481,-0.387,0.759,19.099,-7.924,115.115
1.630,0.479,-0.390,0.777,18.321,-10.000,115.374
1.640,0.474,-0.394,0.804,18.763,-12.611,115.481
1.640,0.492,-0.389,0.824,19.756,-13.771,115.359
1.640,0.517,-0.393,0.823,21.115,-13.588,114.351
1.650,0.554,-0.385,0.849,21.908,-11.817,112.656
1.650,0.591,-0.373,0.836,23.237,-9.191,110.351
1.660,0.613,-0.366,0.853,24.031,-6.519,107.511
1.660,0.634,-0.359,0.834,24.519,-3.359,104.031
1.660,0.645,-0.355,0.812,23.832,0.168,101.099
1.670,0.671,-0.351,0.849,23.924,5.023,98.290
1.670,0.679,-0.357,0.836,25.023,9.099,93.802
1.680,0.683,-0.343,0.828,24.168,10.840,88.855
1.680,0.677,-0.340,0.819,22.534,10.198,83.863
1.680,0.660,-0.344,0.796,21.420,5.924,78.656
1.690,0.636,-0.335,0.787,20.626,-3.542,72.809
1.690,0.596,-0.331,0.749,19.023,-16.687,68.153
1.700,0.595,-0.332,0.754,15.679,-29.802,65.053
1.700,0.628,-0.323,0.735,13.237,-40.153,61.878
1.710,0.710,-0.328,0.737,10.611,-47.908,57.252
1.710,0.766,-0.313,0.716,7.557,-54.809,52.214
1.710,0.813,-0.311,0.721,6.168,-62.382,47.756
1.720,0.855,-0.323,0.750,5.008,-67.786,43.405
1.720,0.896,-0.331,0.787,6.046,-68.290,39.878
1.730,0.925,-0.340,0.803,7.725,-65.527,36.290
1.730,0.956,-0.350,0.821,8.824,-62.977,33.008
1.730,0.973,-0.340,0.806,10.366,-58.824,29.298
1.740,1.023,-0.339,0.805,12.183,-51.695,25.023
1.740,1.024,-0.329,0.806,14.137,-42.550,21.267
1.750,1.009,-0.334,0.785,14.840,-33.450,16.885
1.750,0.974,-0.319,0.766,15.282,-24.824,13.389
1.750,0.956,-0.325,0.758,15.450,-17.099,9.679
1.760,0.912,-0.301,0.730,14.870,-13.313,6.840
1.760,0.885,-0.295,0.707,14.168,-10.275,4.809
1.770,0.865,-0.285,0.712,11.847,-8.626,3.405
1.770,0.852,-0.282,0.694,11.420,-5.634,1.817
1.780,0.844,-0.281,0.686,12.702,-3.298,-1.237
1.780,0.798,-0.258,0.642,12.092,-4.580,-3.771
1.780,0.744,-0.251,0.634,9.573,-7.450,-5.206
1.790,0.703,-0.256,0.632,7.893,-8.321,-6.198
1.790,0.681,-0.247,0.647,7.069,-7.985,-6.809
1.800,0.641,-0.251,0.648,5.969,-7.924,-7.649
1.800,0.609,-0.247,0.651,5.008,-8.229,-8.244
1.800,0.581,-0.238,0.658,3.710,-9.359,-8.763
1.810,0.575,-0.233,0.661,2.641,-8.229,-8.916
1.810,0.563,-0.223,0.682,1.237,-5.359,-9.160
1.820,0.550,-0.228,0.674,0.458,-1.939,-10.031
1.820,0.536,-0.209,0.665,-0.718,1.206,-10.595
1.820,0.515,-0.211,0.669,-1.634,4.137,-11.160
1.830,0.483,-0.207,0.671,-2.855,6.809,-11.252
1.830,0.456,-0.204,0.671,-4.305,10.824,-11.084
1.840,0.421,-0.198,0.685,-6.031,12.733,-10.504
1.840,0.397,-0.194,0.694,-8.107,14.443,-10.198
1.840,0.391,-0.195,0.701,-9.725,17.130,-9.802
1.850,0.368,-0.195,0.707,-11.634,19.298,-9.221
1.850,0.349,-0.197,0.707,-13.588,20.443,-8.534
1.860,0.348,-0.199,0.718,-16.290,21.954,-7.985
1.860,0.348,-0.191,0.717,-18.611,24.046,-7.450
1.860,0.349,-0.195,0.726,-20.473,25.649,-6.870
1.870,0.336,-0.195,0.747,-21.664,25.847,-6.534
1.870,0.343,-0.208,0.775,-22.458,25.145,-6.321
1.880,0.348,-0.215,0.787,-23.237,25.130,-6.443
1.880,0.355,-0.214,0.806,-23.511,24.931,-6.168
1.890,0.353,-0.228,0.819,-22.977,23.817,-6.229
1.890,0.360,-0.237,0.837,-22.687,22.611,-5.954
1.890,0.376,-0.236,0.845,-21.542,21.221,-5.511
1.900,0.404,-0.240,0.866,-20.382,20.916,-5.511
1.900,0.424,-0.232,0.872,-19.359,20.321,-5.603
1.910,0.461,-0.241,0.876,-18.015,20.443,-5.954
1.910,0.493,-0.243,0.875,-16.321,21.313,-6.962
1.910,0.515,-0.243,0.872,-14.458,22.260,-8.046
1.920,0.537,-0.241,0.865,-13.282,23.786,-9.298
1.920,0.549,-0.240,0.850,-12.290,25.420,-10.809
1.930,0.577,-0.225,0.829,-12.122,26.565,-12.473
1.930,0.595,-0.219,0.807,-12.015,27.038,-14.779
1.940,0.613,-0.220,0.804,-12.000,27.573,-17.115
1.940,0.630,-0.212,0.772,-12.687,27.344,-19.389
1.940,0.649,-0.209,0.767,-13.924,25.939,-22.031
1.950,0.653,-0.207,0.741,-15.115,25.176,-25.008
1.950,0.658,-0.209,0.733,-16.244,23.542,-27.939
1.960,0.659,-0.203,0.743,-16.779,20.580,-31.053
1.960,0.671,-0.212,0.735,-17.115,17.267,-34.260
1.970,0.667,-0.208,0.732,-17.527,14.198,-37.282
1.970,0.671,-0.216,0.725,-17.985,12.214,-40.244
1.970,0.668,-0.206,0.713,-18.229,10.336,-43.038
1.980,0.680,-0.203,0.701,-18.565,9.176,-45.954
1.980,0.685,-0.201,0.682,-19.298,8.351,-49.038
1.990,0.706,-0.196,0.665,-20.885,8.641,-51.954
1.990,0.712,-0.194,0.670,-22.427,10.183,-55.420
2.000,0.731,-0.191,0.654,-24.382,13.908,-58.718
2.000,0.720,-0.191,0.649,-26.489,18.382,-61.771
2.000,0.710,-0.200,0.622,-28.809,22.580,-64.718
2.010,0.710,-0.194,0.602,-31.847,27.282,-67.603
2.010,0.696,-0.198,0.607,-34.779,31.664,-70.489
2.020,0.693,-0.195,0.601,-38.107,35.756,-72.763
2.020,0.674,-0.202,0.587,-41.221,39.603,-74.855
2.020,0.669,-0.217,0.589,-44.229,41.969,-77.023
2.030,0.674,-0.226,0.597,-47.374,44.366,-78.947
2.030,0.679,-0.233,0.593,-50.076,46.580,-81.038
2.040,0.672,-0.248,0.613,-52.351,48.046,-83.130
2.040,0.656,-0.261,0.637,-52.779,45.618,-85.405
2.050,0.635,-0.292,0.691,-52.061,41.786,-88.351
2.050,0.616,-0.310,0.701,-51.252,39.221,-90.840
2.050,0.589,-0.329,0.724,-50.000,35.573,-92.198
2.060,0.537,-0.344,0.748,-48.244,29.298,-93.099
2.060,0.514,-0.350,0.760,-46.443,21.756,-93.832
2.070,0.508,-0.362,0.757,-44.611,14.656,-94.565
2.070,0.511,-0.359,0.764,-42.901,7.679,-95.191
2.080,0.508,-0.349,0.756,-41.893,1.130,-95.496
2.080,0.515,-0.351,0.728,-41.374,-4.473,-95.939
2.080,0.536,-0.345,0.725,-41.053,-8.412,-96.397
2.090,0.560,-0.348,0.718,-41.053,-10.443,-96.595
2.090,0.580,-0.343,0.686,-41.634,-10.977,-97.435
2.100,0.601,-0.341,0.684,-43.023,-8.748,-98.397
2.100,0.624,-0.353,0.677,-44.214,-5.649,-99.908
2.110,0.640,-0.354,0.689,-45.939,-0.962,-101.527
2.110,0.645,-0.368,0.679,-48.183,4.809,-103.206
2.110,0.637,-0.373,0.677,-50.183,10.351,-104.901
2.120,0.623,-0.382,0.678,-53.023,15.802,-106.427
2.120,0.631,-0.386,0.686,-56.473,22.718,-107.527
2.130,0.641,-0.397,0.699,-58.290,30.290,-108.840
2.130,0.639,-0.410,0.703,-59.603,36.534,-110.458
2.140,0.613,-0.414,0.692,-61.710,39.939,-111.756
2.140,0.590,-0.420,0.699,-63.756,41.832,-112.473
2.140,0.567,-0.423,0.685,-65.450,42.336,-113.359
2.150,0.547,-0.433,0.695,-66.916,40.015,-113.893
2.150,0.540,-0.446,0.707,-67.130,36.153,-114.870
2.160,0.537,-0.457,0.723,-66.885,32.534,-115.618
2.160,0.538,-0.461,0.728,-66.504,28.275,-116.382
2.170,0.541,-0.462,0.739,-65.725,24.565,-117.115
2.170,0.547,-0.466,0.727,-64.565,20.809,-117.863
2.180,0.567,-0.465,0.727,-63.511,18.595,-118.687
2.180,0.582,-0.463,0.717,-62.672,17.450,-119.786
2.180,0.613,-0.469,0.707,-62.473,16.855,-121.863
2.190,0.653,-0.458,0.692,-62.947,18.168,-124.565
2.190,0.680,-0.462,0.674,-64.321,21.924,-127.893
2.200,0.706,-0.472,0.663,-66.244,27.618,-131.740
2.200,0.694,-0.486,0.664,-68.366,33.237,-135.420
2.210,0.673,-0.508,0.689,-69.985,38.458,-138.840
2.210,0.652,-0.528,0.716,-71.053,42.962,-141.634
2.210,0.619,-0.551,0.735,-71.191,46.290,-144.183
2.220,0.577,-0.571,0.751,-70.733,48.840,-146.336
2.220,0.546,-0.592,0.769,-70.168,50.015,-147.634
2.230,0.512,-0.600,0.780,-68.595,50.779,-148.962
2.230,0.495,-0.608,0.803,-67.115,50.931,-149.420
2.240,0.469,-0.613,0.796,-65.863,50.840,-149.160
2.240,0.438,-0.613,0.800,-64.000,49.450,-148.168
2.240,0.422,-0.624,0.801,-62.153,47.649,-146.672
2.250,0.410,-0.612,0.802,-60.336,46.092,-145.634
2.250,0.399,-0.613,0.780,-59.069,44.092,-144.290
2.260,0.398,-0.605,0.763,-58.137,41.084,-143.298
2.260,0.411,-0.596,0.762,-57.618,38.611,-142.992
2.270,0.441,-0.592,0.742,-56.672,37.298,-143.298
2.270,0.458,-0.586,0.739,-55.985,35.863,-143.969
2.270,0.464,-0.582,0.715,-55.756,34.611,-144.687
2.280,0.469,-0.574,0.705,-56.122,34.305,-145.145
2.280,0.488,-0.567,0.689,-57.176,35.130,-145.542
2.290,0.510,-0.557,0.670,-58.351,37.954,-146.244
2.290,0.534,-0.547,0.634,-60.641,42.656,-147.679
2.300,0.561,-0.543,0.614,-63.679,49.313,-149.863
2.300,0.576,-0.539,0.583,-67.924,57.206,-152.366
2.310,0.582,-0.551,0.567,-71.679,64.992,-155.740
2.310,0.580,-0.552,0.592,-75.313,71.649,-158.626
2.310,0.555,-0.574,0.631,-77.908,77.939,-161.466
2.320,0.561,-0.583,0.661,-79.405,86.260,-164.183
2.320,0.516,-0.607,0.687,-80.229,91.985,-166.183
2.330,0.462,-0.625,0.703,-79.191,94.672,-167.588
2.330,0.425,-0.633,0.741,-77.359,95.863,-168.214
2.340,0.381,-0.639,0.769,-75.405,98.840,-168.992
2.340,0.435,-0.632,0.814,-70.382,121.893,-173.588
2.340,0.412,-0.681,0.770,-59.481,138.244,-171.832
2.350,0.187,-0.636,0.803,-61.038,105.420,-170.275
2.350,0.141,-0.615,0.827,-56.534,74.290,-165.603
2.360,0.197,-0.638,0.856,-47.939,58.947,-163.939
2.360,0.277,-0.625,0.841,-47.298,60.076,-161.527
2.370,0.264,-0.613,0.764,-48.244,63.481,-157.664
2.370,0.217,-0.608,0.768,-47.863,55.221,-153.695
2.380,0.219,-0.598,0.779,-46.656,44.458,-150.687
2.380,0.290,-0.584,0.785,-45.985,43.084,-148.595
2.380,0.334,-0.578,0.773,-45.344,47.115,-147.008
2.390,0.328,-0.580,0.760,-45.298,49.740,-145.603
2.390,0.344,-0.578,0.725,-45.832,52.962,-144.702
2.400,0.374,-0.575,0.720,-45.832,58.947,-144.489
2.400,0.379,-0.586,0.737,-45.450,64.779,-144.489
2.410,0.355,-0.585,0.735,-45.267,68.824,-144.672
2.410,0.347,-0.587,0.734,-45.053,72.397,-144.641
2.410,0.330,-0.586,0.725,-44.504,74.763,-144.656
2.420,0.307,-0.590,0.750,-43.481,75.832,-144.840
2.420,0.295,-0.593,0.736,-42.198,76.229,-144.794
2.430,0.284,-0.585,0.741,-41.237,75.695,-144.855
2.430,0.316,-0.562,0.745,-47.023,84.046,-141.817
2.440,0.206,-0.673,0.827,-29.725,55.863,-149.252
2.440,0.280,-0.522,0.655,-40.718,65.038,-144.840
2.440,0.179,-0.572,0.709,-44.015,58.595,-145.237
2.450,0.329,-0.573,0.713,-39.496,66.397,-147.863
2.450,0.303,-0.568,0.758,-36.580,53.756,-151.832
2.460,0.279,-0.543,0.690,-39.649,46.626,-152.550
2.460,0.289,-0.550,0.683,-40.763,52.092,-152.397
2.470,0.300,-0.559,0.710,-40.641,59.237,-151.466
2.470,0.267,-0.566,0.736,-39.725,61.145,-150.611
2.470,0.222,-0.576,0.727,-38.763,60.641,-149.527
2.480,0.191,-0.565,0.717,-38.229,61.160,-147.985
2.480,0.194,-0.562,0.710,-38.809,64.244,-145.511
2.490,0.179,-0.567,0.716,-38.641,64.412,-143.863
2.490,0.154,-0.566,0.716,-38.595,64.046,-141.802
2.500,0.119,-0.554,0.711,-38.336,59.969,-139.893
2.500,0.108,-0.556,0.722,-39.023,57.573,-137.328
2.510,0.109,-0.547,0.727,-39.542,55.740,-134.885
2.510,0.125,-0.558,0.741,-39.252,54.244,-133.084
2.510,0.106,-0.557,0.770,-38.489,52.855,-130.992
2.520,0.111,-0.553,0.777,-37.298,50.931,-129.130
2.520,0.097,-0.569,0.790,-36.076,50.244,-127.405
2.530,0.075,-0.571,0.816,-34.046,48.733,-125.496
2.530,0.085,-0.564,0.816,-32.931,48.611,-123.618
2.540,0.066,-0.561,0.803,-31.420,47.695,-121.634
2.540,0.075,-0.558,0.822,-31.344,50.290,-119.221
2.540,0.071,-0.550,0.828,-29.389,52.687,-117.527
2.550,0.054,-0.547,0.828,-28.550,54.489,-114.702
2.550,0.052,-0.554,0.817,-28.519,56.107,-112.122
2.560,0.059,-0.544,0.793,-28.198,58.931,-109.573
2.560,0.041,-0.539,0.803,-28.397,59.053,-106.901
2.570,0.032,-0.524,0.802,-28.473,59.191,-105.023
2.570,0.049,-0.522,0.792,-28.672,59.786,-102.901
2.570,0.044,-0.512,0.788,-28.595,60.321,-101.542
2.580,0.053,-0.508,0.804,-28.229,59.740,-100.229
2.580,0.060,-0.497,0.783,-28.092,58.290,-99.496
2.590,0.055,-0.490,0.789,-28.214,57.038,-98.672
2.590,0.052,-0.473,0.773,-28.641,55.695,-97.863
2.600,0.053,-0.465,0.763,-28.840,54.382,-96.962
2.600,0.056,-0.460,0.754,-29.298,52.641,-96.321
2.600,0.062,-0.453,0.761,-29.282,50.977,-95.511
2.610,0.045,-0.448,0.761,-29.893,49.237,-94.427
2.610,0.033,-0.431,0.760,-30.382,47.282,-92.687
2.620,0.040,-0.429,0.758,-31.679,45.313,-91.084
2.620,0.056,-0.418,0.763,-32.763,44.260,-89.588
2.630,0.080,-0.431,0.780,-33.435,44.397,-88.702
2.630,0.082,-0.432,0.793,-33.145,43.221,-88.031
2.630,0.091,-0.425,0.801,-33.008,41.328,-87.664
2.640,0.090,-0.427,0.798,-32.672,39.710,-87.389
2.640,0.111,-0.431,0.812,-32.534,37.511,-87.252
2.650,0.104,-0.432,0.820,-32.626,35.511,-86.977
2.650,0.101,-0.431,0.827,-32.244,33.695,-86.550
2.660,0.091,-0.431,0.833,-31.802,31.771,-85.863
2.660,0.100,-0.440,0.849,-30.824,29.664,-85.374
2.660,0.097,-0.436,0.863,-29.939,27.802,-84.840
2.670,0.099,-0.424,0.873,-28.427,26.916,-84.260
2.670,0.094,-0.433,0.877,-26.748,26.534,-83.511
2.680,0.083,-0.430,0.875,-25.053,26.351,-82.382
2.680,0.086,-0.427,0.856,-23.985,26.076,-81.435
2.690,0.082,-0.421,0.852,-23.145,26.092,-80.794
2.690,0.075,-0.414,0.834,-22.137,25.756,-80.305
2.690,0.057,-0.403,0.826,-21.847,25.389,-79.176
2.700,0.064,-0.392,0.818,-22.366,25.130,-78.305
2.700,0.062,-0.396,0.815,-22.427,24.702,-77.115
2.710,0.059,-0.385,0.813,-22.687,23.374,-75.939
2.710,0.050,-0.376,0.800,-23.420,22.519,-74.473
2.720,0.052,-0.381,0.783,-24.244,21.374,-73.267
2.720,0.049,-0.380,0.789,-25.282,20.244,-72.031
2.720,0.047,-0.382,0.796,-26.076,18.840,-70.779
2.730,0.060,-0.381,0.810,-27.252,17.557,-69.771
2.730,0.065,-0.397,0.823,-28.092,16.534,-68.794
2.740,0.063,-0.390,0.825,-28.687,15.435,-68.198
2.740,0.055,-0.395,0.840,-28.855,13.344,-67.649
2.740,0.043,-0.399,0.861,-29.160,11.359,-66.947
2.750,0.037,-0.409,0.876,-28.092,9.435,-66.061
2.750,0.031,-0.407,0.893,-27.221,7.939,-64.947
2.760,0.010,-0.418,0.899,-26.046,6.763,-63.084
2.760,-0.003,-0.413,0.912,-24.168,5.069,-60.962
2.770,-0.015,-0.415,0.922,-22.366,4.321,-58.336
2.770,-0.010,-0.417,0.921,-20.000,4.611,-55.542
2.770,-0.012,-0.412,0.919,-18.031,5.802,-52.672
2.780,0.011,-0.402,0.920,-16.321,7.405,-49.893
2.780,0.027,-0.405,0.907,-14.397,9.924,-47.695
2.790,0.048,-0.394,0.908,-12.611,13.481,-46.076
2.790,0.057,-0.389,0.887,-11.328,18.427,-44.840
2.800,0.056,-0.381,0.887,-10.626,22.153,-43.237
2.800,0.063,-0.372,0.868,-10.397,25.939,-41.740
2.800,0.065,-0.367,0.856,-9.985,30.748,-40.092
2.810,0.065,-0.365,0.848,-9.802,36.061,-38.229
2.810,0.052,-0.359,0.839,-9.634,41.237,-36.336
2.820,0.050,-0.350,0.823,-9.710,46.229,-34.107
2.820,0.057,-0.343,0.803,-10.672,51.206,-32.076
2.820,0.052,-0.339,0.795,-11.389,56.779,-30.214
2.830,0.049,-0.337,0.808,-11.939,62.153,-28.580
2.830,0.036,-0.333,0.803,-12.168,65.832,-26.870
2.840,0.016,-0.333,0.805,-12.687,68.153,-26.015
2.840,-0.004,-0.328,0.794,-13.206,67.618,-25.130
2.850,-0.028,-0.337,0.793,-13.511,65.573,-24.382
2.850,-0.045,-0.336,0.797,-14.183,61.221,-24.031
2.850,-0.095,-0.347,0.818,-15.008,52.534,-23.634
2.860,-0.146,-0.358,0.872,-14.275,39.176,-22.718
2.860,-0.173,-0.372,0.911,-11.863,24.046,-21.649
2.870,-0.193,-0.380,0.964,-9.313,8.076,-20.427
2.870,-0.196,-0.385,0.997,-6.336,-7.695,-18.534
2.880,-0.182,-0.387,1.034,-2.229,-21.664,-16.336
2.880,-0.147,-0.388,1.051,1.710,-32.840,-14.427
2.890,-0.096,-0.389,1.064,5.481,-40.733,-12.748
2.890,-0.052,-0.384,1.073,8.626,-44.458,-11.328
2.890,-0.014,-0.389,1.090,12.412,-46.565,-9.832
2.900,0.024,-0.376,1.070,15.160,-44.397,-8.641
2.900,0.050,-0.373,1.060,17.237,-40.000,-6.916
2.910,0.074,-0.366,1.045,19.191,-33.084,-5.328
2.910,0.085,-0.353,1.032,20.855,-25.267,-3.511
2.910,0.090,-0.353,1.022,22.031,-17.679,-1.450
2.920,0.090,-0.345,0.993,22.534,-10.855,0.397
2.920,0.090,-0.340,0.973,22.702,-5.695,2.031
2.930,0.093,-0.332,0.955,22.656,-2.244,2.977
2.930,0.098,-0.317,0.935,21.832,0.183,4.046
2.930,0.094,-0.317,0.913,21.420,0.412,5.099
2.940,0.093,-0.317,0.897,20.947,-0.244,5.725
2.940,0.098,-0.312,0.877,19.863,-1.588,6.321
2.950,0.104,-0.298,0.870,18.611,-3.832,6.901
2.950,0.118,-0.296,0.866,16.947,-5.450,7.664
2.950,0.139,-0.290,0.853,15.679,-5.618,8.168
2.960,0.154,-0.281,0.844,14.412,-4.916,8.702
2.960,0.167,-0.282,0.833,13.008,-4.031,9.145
2.970,0.185,-0.277,0.827,11.771,-2.061,9.282
2.970,0.210,-0.277,0.827,9.985,0.779,9.099
2.970,0.231,-0.265,0.824,8.901,4.031,8.321
2.980,0.249,-0.261,0.832,7.893,7.924,7.817
2.980,0.239,-0.263,0.813,6.504,11.649,7.420
2.990,0.233,-0.256,0.804,5.328,14.321,7.237
2.990,0.222,-0.258,0.787,4.000,15.954,6.718
2.990,0.214,-0.264,0.787,2.733,16.092,6.565
3.000,0.206,-0.259,0.791,0.885,14.977,6.595
3.000,0.213,-0.263,0.802,-0.137,13.710,6.290
3.010,0.222,-0.263,0.810,-0.947,11.924,5.954
3.010,0.229,-0.273,0.813,-1.847,9.573,5.496
3.010,0.226,-0.277,0.812,-2.504,6.611,4.641
3.020,0.233,-0.277,0.817,-2.626,3.847,3.954
3.020,0.240,-0.285,0.828,-2.565,0.855,3.191
3.030,0.240,-0.289,0.842,-2.275,-1.481,2.809
3.030,0.247,-0.295,0.842,-2.168,-2.718,2.336
3.030,0.255,-0.298,0.838,-2.107,-3.374,1.939
3.040,0.260,-0.301,0.845,-1.893,-3.969,1.649
3.040,0.259,-0.297,0.841,-1.756,-4.473,1.496
3.040,0.268,-0.300,0.834,-1.847,-4.183,1.267
3.050,0.267,-0.300,0.838,-1.924,-3.405,0.611
3.050,0.258,-0.302,0.832,-2.061,-3.542,0.382
3.060,0.271,-0.310,0.837,-2.046,-4.687,-0.305
3.060,0.277,-0.312,0.850,-1.603,-5.725,-1.237
3.070,0.275,-0.315,0.836,-0.931,-5.786,-2.000
3.070,0.276,-0.317,0.845,-0.443,-5.466,-2.718
3.070,0.266,-0.318,0.837,-0.214,-6.015,-3.344
3.080,0.251,-0.314,0.818,-0.229,-6.992,-3.878
3.080,0.239,-0.318,0.823,0.061,-7.481,-3.893
3.090,0.237,-0.313,0.815,0.122,-7.450,-3.664
3.090,0.230,-0.311,0.823,-0.046,-7.298,-3.252
3.090,0.229,-0.317,0.820,-0.260,-6.656,-2.641
3.100,0.225,-0.314,0.810,-0.458,-6.076,-1.863
3.100,0.230,-0.313,0.809,-0.702,-5.008,-1.069
3.110,0.231,-0.313,0.802,-1.328,-3.725,-0.565
3.110,0.239,-0.323,0.808,-2.275,-3.282,-0.046
3.110,0.248,-0.328,0.819,-2.641,-1.969,-0.137
3.120,0.248,-0.328,0.819,-2.672,-0.656,-0.290
3.120,0.247,-0.333,0.815,-2.855,-0.473,-0.305
3.130,0.240,-0.336,0.817,-3.023,-0.412,-0.351
3.130,0.241,-0.339,0.811,-2.565,-0.458,-0.519
3.130,0.243,-0.338,0.816,-2.229,-0.611,-0.534
3.140,0.231,-0.337,0.808,-1.908,-1.405,-0.351
3.140,0.234,-0.333,0.799,-1.969,-2.000,-0.366
3.150,0.233,-0.322,0.794,-1.908,-1.740,-0.321
3.150,0.234,-0.322,0.772,-2.122,-1.374,-0.382
3.150,0.242,-0.309,0.773,-2.641,-0.443,-0.519
3.160,0.246,-0.304,0.757,-3.924,0.870,-0.443
3.160,0.253,-0.300,0.756,-4.748,2.641,-0.275
3.170,0.256,-0.294,0.754,-5.573,4.229,-0.718
3.170,0.255,-0.301,0.764,-6.809,5.099,-1.008
3.170,0.252,-0.291,0.755,-8.031,5.573,-1.527
3.180,0.250,-0.307,0.761,-9.023,5.649,-1.710
3.180,0.252,-0.300,0.780,-10.000,5.679,-2.046
3.190,0.256,-0.300,0.785,-10.244,6.321,-2.137
3.190,0.243,-0.303,0.802,-10.122,6.824,-1.832
3.190,0.239,-0.308,0.807,-9.832,6.779,-1.344
3.200,0.235,-0.309,0.804,-8.977,7.359,-0.947
3.200,0.232,-0.315,0.820,-8.718,7.771,-0.031
3.210,0.208,-0.318,0.833,-8.198,6.198,1.328
3.210,0.196,-0.316,0.836,-7.252,4.672,2.687
3.210,0.195,-0.327,0.850,-5.893,3.450,4.046
3.220,0.218,-0.328,0.877,-4.382,3.725,5.191
3.220,0.223,-0.325,0.870,-2.748,4.611,6.061
3.230,0.241,-0.322,0.871,-1.847,5.206,6.153
3.230,0.260,-0.316,0.850,-0.901,6.382,6.229
3.230,0.279,-0.320,0.840,-0.443,8.076,5.786
3.240,0.292,-0.312,0.837,-0.061,9.893,5.130
3.240,0.291,-0.317,0.826,0.321,10.656,4.489
3.250,0.284,-0.314,0.826,0.122,11.237,3.954
3.250,0.279,-0.311,0.810,-0.214,11.847,3.145
3.250,0.272,-0.312,0.797,-0.473,12.321,2.901
3.260,0.267,-0.299,0.797,-0.840,12.107,2.305
3.260,0.261,-0.306,0.799,-1.664,11.878,1.542
3.270,0.261,-0.304,0.796,-2.198,11.832,1.023
3.270,0.254,-0.303,0.790,-3.038,11.649,0.427
3.270,0.241,-0.301,0.791,-3.756,11.221,0.153
3.280,0.233,-0.303,0.790,-4.275,10.733,0.122
3.280,0.221,-0.310,0.799,-4.885,10.229,0.137
3.290,0.228,-0.312,0.805,-5.282,10.244,0.244
3.290,0.229,-0.312,0.810,-5.328,10.412,0.397
3.290,0.229,-0.307,0.819,-5.679,10.748,0.687
3.300,0.235,-0.309,0.819,-5.496,11.511,0.779
3.300,0.236,-0.310,0.812,-5.466,12.198,0.580
3.310,0.229,-0.308,0.813,-5.725,12.061,0.458
3.310,0.224,-0.313,0.814,-5.954,11.496,0.122
3.310,0.224,-0.315,0.814,-6.473,11.206,-0.336
3.320,0.209,-0.307,0.816,-6.626,10.519,-0.260
3.320,0.199,-0.307,0.818,-6.763,9.420,0.000
3.330,0.194,-0.309,0.830,-6.901,8.092,0.229
3.330,0.202,-0.315,0.822,-6.962,6.794,0.260
3.330,0.202,-0.309,0.816,-6.931,5.908,0.626
3.340,0.203,-0.308,0.833,-7.221,5.252,0.489
3.340,0.212,-0.311,0.835,-7.053,4.290,0.779
3.350,0.215,-0.306,0.839,-7.313,3.649,0.656
3.350,0.209,-0.310,0.833,-7.328,2.916,0.473
3.350,0.216,-0.316,0.849,-7.389,2.748,0.687
3.360,0.219,-0.309,0.861,-7.130,2.336,0.794
3.360,0.212,-0.317,0.873,-6.565,2.351,0.931
3.360,0.220,-0.313,0.877,-6.290,2.275,1.069
3.370,0.221,-0.310,0.875,-5.603,2.702,1.282
3.370,0.225,-0.319,0.872,-4.702,3.130,1.481
3.380,0.227,-0.322,0.879,-4.290,3.802,1.725
3.380,0.234,-0.320,0.885,-3.313,4.870,1.710
3.380,0.231,-0.319,0.875,-3.130,5.679,1.557
3.390,0.230,-0.316,0.868,-2.748,6.107,1.252
3.390,0.225,-0.323,0.860,-2.534,5.527,1.130
3.400,0.209,-0.319,0.844,-2.489,4.748,0.855
3.400,0.193,-0.322,0.856,-2.504,4.061,0.931
3.400,0.187,-0.316,0.866,-2.412,3.725,1.176
3.410,0.181,-0.310,0.865,-2.336,3.298,1.481
3.410,0.171,-0.317,0.853,-2.046,2.641,2.183
3.420,0.170,-0.320,0.869,-2.015,2.153,2.565
3.420,0.173,-0.323,0.863,-1.588,2.183,3.221
3.420,0.170,-0.321,0.864,-0.718,1.756,3.924
3.430,0.179,-0.329,0.866,-0.489,1.008,4.427
3.430,0.183,-0.322,0.873,-0.214,0.641,4.870
3.440,0.192,-0.328,0.878,0.015,1.405,5.008
3.440,0.193,-0.321,0.883,0.336,2.366,5.496
3.440,0.195,-0.326,0.872,0.809,2.534,5.740
3.450,0.194,-0.332,0.871,0.504,2.382,6.427
3.450,0.193,-0.334,0.869,0.779,2.519,6.763
3.450,0.196,-0.334,0.879,1.130,3.053,6.977
3.460,0.189,-0.334,0.879,1.649,3.405,7.389
3.460,0.186,-0.335,0.870,1.863,3.435,7.481
3.470,0.190,-0.334,0.865,2.305,3.176,7.924
3.470,0.190,-0.335,0.854,2.611,2.962,7.924
3.470,0.185,-0.328,0.854,2.885,2.153,8.092
3.480,0.184,-0.326,0.845,2.885,1.588,8.260
3.480,0.187,-0.322,0.836,2.824,0.977,8.275
3.480,0.195,-0.314,0.832,2.565,0.504,8.305
3.490,0.191,-0.317,0.831,1.985,-0.427,8.076
3.490,0.188,-0.315,0.835,1.863,-2.168,8.000
3.500,0.188,-0.319,0.834,1.511,-4.107,7.969
3.500,0.197,-0.313,0.843,1.038,-5.588,8.244
3.500,0.198,-0.312,0.845,0.794,-5.618,8.641
3.510,0.207,-0.313,0.855,0.611,-5.893,9.069
3.510,0.212,-0.321,0.857,0.534,-6.290,9.160
3.520,0.225,-0.317,0.863,0.672,-6.794,9.038
3.520,0.241,-0.323,0.875,1.099,-6.046,8.443
3.520,0.259,-0.321,0.884,1.557,-4.809,8.244
3.530,0.257,-0.323,0.878,1.954,-3.237,8.015
3.530,0.261,-0.321,0.876,2.351,-1.893,7.618
3.540,0.263,-0.332,0.862,2.885,-0.733,7.191
3.540,0.267,-0.331,0.879,2.931,0.061,6.748
3.540,0.272,-0.333,0.869,3.466,1.298,6.046
3.550,0.266,-0.334,0.863,3.832,2.382,5.542
3.550,0.253,-0.338,0.857,4.000,3.237,5.008
3.550,0.234,-0.334,0.837,3.725,3.313,5.115
3.560,0.232,-0.328,0.829,3.634,3.252,4.702
3.560,0.229,-0.333,0.831,3.099,3.252,4.611
3.570,0.221,-0.331,0.809,2.962,2.901,4.473
3.570,0.219,-0.325,0.810,2.336,2.427,4.550
3.570,0.204,-0.320,0.806,1.908,1.679,4.504
3.580,0.207,-0.327,0.810,1.344,1.099,4.595
3.580,0.209,-0.321,0.808,1.191,0.000,4.794
3.590,0.217,-0.313,0.796,-0.260,0.763,4.550
3.590,0.215,-0.324,0.799,-1.328,0.977,4.427
3.590,0.217,-0.331,0.796,-2.351,1.130,4.779
3.600,0.212,-0.324,0.805,-3.099,1.435,5.069
3.600,0.221,-0.328,0.811,-3.969,1.771,5.313
3.600,0.238,-0.333,0.815,-4.702,2.015,5.328
3.610,0.236,-0.333,0.834,-4.885,1.786,4.901
3.610,0.250,-0.337,0.831,-4.931,1.282,4.382
3.620,0.257,-0.334,0.852,-4.962,0.046,3.908
3.620,0.264,-0.342,0.857,-4.931,-0.290,3.267
3.620,0.269,-0.343,0.860,-4.656,-0.870,2.595
3.630,0.273,-0.348,0.873,-3.725,-1.298,2.107
3.630,0.276,-0.339,0.906,-2.412,-2.565,1.496
3.640,0.253,-0.358,0.907,1.481,-5.985,0.855
3.640,0.237,-0.357,0.909,3.328,-10.489,2.122
3.640,0.253,-0.345,0.844,1.099,-8.382,0.901
3.650,0.265,-0.347,0.854,0.198,-5.603,0.748
3.650,0.265,-0.351,0.885,1.023,-5.985,0.611
3.660,0.252,-0.349,0.906,2.107,-7.634,0.076
3.660,0.246,-0.351,0.890,3.069,-7.695,-0.229
3.660,0.250,-0.352,0.877,3.771,-6.702,-0.473
3.670,0.237,-0.341,0.865,4.443,-6.351,-0.534
3.670,0.222,-0.344,0.863,4.611,-7.374,-0.061
3.680,0.218,-0.339,0.855,4.885,-6.931,0.443
3.680,0.216,-0.334,0.860,5.771,-5.405,1.206
3.680,0.222,-0.329,0.847,6.198,-4.137,1.634
3.690,0.218,-0.331,0.844,6.443,-3.710,2.107
3.690,0.217,-0.331,0.844,6.519,-3.298,2.321
3.700,0.221,-0.328,0.838,6.641,-2.046,2.809
3.700,0.220,-0.319,0.812,6.702,-0.550,3.115
3.700,0.220,-0.316,0.825,6.611,0.321,3.237
3.710,0.220,-0.319,0.808,6.855,0.290,3.328
3.710,0.218,-0.313,0.803,6.626,0.092,3.695
3.710,0.210,-0.307,0.797,6.412,-0.275,3.618
3.720,0.212,-0.312,0.779,5.588,-1.298,3.618
3.720,0.219,-0.311,0.781,4.626,-2.031,3.374
3.730,0.225,-0.303,0.789,3.832,-2.351,3.176
3.730,0.238,-0.304,0.784,3.450,-2.626,2.748
3.730,0.238,-0.295,0.781,2.733,-2.947,2.092
3.740,0.234,-0.295,0.791,2.198,-3.481,1.832
3.740,0.235,-0.289,0.792,1.847,-4.046,1.771
3.750,0.230,-0.301,0.788,1.710,-4.672,1.435
3.750,0.232,-0.299,0.788,1.221,-4.794,1.328
3.750,0.237,-0.299,0.803,0.977,-4.824,0.992
3.760,0.234,-0.303,0.801,1.023,-4.092,0.855
3.760,0.235,-0.302,0.820,1.313,-3.634,0.748
3.770,0.226,-0.305,0.813,1.450,-3.588,0.580
3.770,0.221,-0.311,0.823,1.573,-3.206,0.626
3.770,0.218,-0.304,0.817,1.985,-2.473,0.794
3.780,0.219,-0.310,0.824,2.366,-0.901,0.947
3.780,0.223,-0.308,0.823,2.809,1.023,1.252
3.780,0.223,-0.305,0.827,3.267,2.504,1.328
3.790,0.218,-0.301,0.819,3.344,3.435,1.450
3.790,0.224,-0.300,0.826,3.435,4.137,1.374
3.800,0.224,-0.302,0.818,3.435,5.115,1.176
3.800,0.226,-0.296,0.817,3.786,5.832,1.099
3.800,0.216,-0.298,0.812,3.802,5.863,1.038
3.810,0.201,-0.296,0.808,3.695,5.756,1.176
3.810,0.199,-0.288,0.802,3.557,5.206,1.450
3.820,0.201,-0.287,0.792,3.115,4.351,1.588
3.820,0.197,-0.285,0.791,2.290,3.618,1.756
3.820,0.191,-0.282,0.792,1.618,2.763,1.786
3.830,0.201,-0.294,0.806,0.672,2.107,1.969
3.830,0.190,-0.291,0.808,0.137,2.427,2.137
3.830,0.202,-0.284,0.811,-0.489,2.122,2.305
3.840,0.198,-0.296,0.828,-1.084,1.252,2.260
3.840,0.200,-0.299,0.836,-1.313,0.504,2.336
3.850,0.198,-0.305,0.845,-1.008,0.931,2.366
3.850,0.206,-0.302,0.873,-0.504,1.756,2.840
3.850,0.204,-0.303,0.870,0.122,2.641,3.267
3.860,0.201,-0.303,0.870,0.962,3.542,3.649
3.860,0.212,-0.300,0.885,1.389,4.153,4.000
3.870,0.216,-0.298,0.870,1.985,5.160,3.954
3.870,0.219,-0.306,0.861,2.305,5.679,3.725
3.870,0.218,-0.305,0.855,2.458,6.183,3.771
3.880,0.223,-0.298,0.860,2.519,6.733,3.649
3.880,0.221,-0.304,0.854,2.733,7.206,3.450
3.880,0.216,-0.304,0.860,2.718,6.916,3.344
3.890,0.214,-0.300,0.847,2.916,6.153,2.992
3.890,0.212,-0.302,0.846,2.504,5.252,2.550
3.900,0.206,-0.297,0.846,2.137,4.473,2.427
3.900,0.202,-0.299,0.848,1.939,4.153,2.183
3.900,0.204,-0.315,0.853,1.634,4.000,2.137
3.910,0.198,-0.311,0.850,1.725,3.374,2.046
3.910,0.192,-0.318,0.852,2.015,3.313,1.786
3.920,0.184,-0.308,0.834,1.847,3.008,1.817
3.920,0.191,-0.319,0.819,0.977,2.031,1.863
3.920,0.191,-0.312,0.833,-0.153,1.908,1.832
3.930,0.196,-0.330,0.838,0.260,2.626,1.878
3.930,0.203,-0.317,0.844,-0.641,3.481,2.198
3.930,0.208,-0.319,0.845,-0.519,3.924,2.336
3.940,0.209,-0.319,0.854,-0.718,4.000,1.985
3.940,0.212,-0.311,0.855,-0.580,3.466,1.053
3.950,0.207,-0.318,0.866,-0.260,2.214,0.290
3.950,0.206,-0.315,0.883,-0.672,0.763,-0.015
3.950,0.219,-0.317,0.911,-0.061,0.000,-0.641
3.960,0.219,-0.319,0.934,1.542,-0.687,-1.344
3.960,0.227,-0.311,0.936,4.244,-2.397,-2.351
3.970,0.204,-0.320,0.919,6.229,-6.794,-3.099
3.970,0.184,-0.320,0.875,5.420,-8.733,-3.252
3.970,0.174,-0.316,0.854,4.824,-8.656,-2.519
3.980,0.169,-0.320,0.872,5.542,-9.679,-1.725
3.980,0.179,-0.310,0.886,6.473,-11.511,-1.206
3.990,0.178,-0.315,0.881,7.664,-11.282,-0.763
3.990,0.176,-0.320,0.859,8.183,-10.214,-0.351
3.990,0.158,-0.312,0.845,8.443,-10.137,0.504
4.000,0.165,-0.308,0.854,8.183,-10.076,1.191
4.000,0.172,-0.310,0.868,8.168,-9.298,2.168
4.010,0.178,-0.302,0.865,8.595,-7.649,3.008
4.010,0.177,-0.300,0.867,9.160,-6.000,3.618
4.010,0.181,-0.299,0.848,9.374,-5.267,4.458
4.020,0.183,-0.306,0.836,9.008,-4.794,5.038
4.020,0.188,-0.291,0.827,8.382,-4.366,5.939
4.030,0.198,-0.300,0.839,8.031,-3.038,6.458
4.030,0.198,-0.285,0.811,6.962,-1.542,7.084
4.030,0.213,-0.277,0.793,6.244,-0.947,7.298
4.040,0.214,-0.271,0.806,5.863,-1.756,7.328
4.040,0.221,-0.267,0.800,5.160,-2.443,7.084
4.050,0.227,-0.255,0.792,3.679,-2.565,7.130
4.050,0.227,-0.246,0.792,1.969,-2.641,6.824
4.050,0.224,-0.250,0.791,0.855,-2.565,6.931
4.060,0.222,-0.247,0.809,-0.336,-2.916,6.931
4.060,0.240,-0.255,0.817,-1.450,-3.206,6.534
4.060,0.262,-0.252,0.841,-2.244,-3.008,5.740
4.070,0.283,-0.259,0.851,-2.397,-2.183,5.023
