Time,acce_x,acce_y,acce_z,gyro_x,gyro_y,gyro_z
0.000,0.233,-0.224,0.862,-1.710,-0.718,1.939
0.000,0.225,-0.219,0.859,-1.542,-0.550,1.771
0.010,0.227,-0.221,0.862,-1.618,-0.519,1.908
0.010,0.224,-0.219,0.863,-1.679,-0.412,1.695
0.010,0.221,-0.225,0.859,-1.985,-0.519,1.618
0.020,0.224,-0.216,0.866,-2.183,-0.748,1.496
0.020,0.223,-0.223,0.850,-2.489,-0.656,1.344
0.020,0.228,-0.226,0.866,-2.336,-0.107,1.145
0.030,0.231,-0.229,0.876,-2.351,0.229,1.130
0.030,0.229,-0.227,0.865,-2.855,0.122,1.069
0.030,0.221,-0.228,0.868,-2.947,0.122,0.824
0.040,0.231,-0.228,0.867,-2.763,0.000,0.748
0.040,0.236,-0.229,0.877,-2.962,0.168,0.519
0.040,0.233,-0.223,0.885,-2.702,0.046,0.290
0.050,0.228,-0.234,0.896,-2.366,0.504,0.275
0.050,0.226,-0.242,0.887,-2.107,0.489,-0.076
0.050,0.225,-0.233,0.878,-1.573,0.672,-0.275
0.060,0.225,-0.232,0.883,-1.237,0.672,-0.260
0.060,0.223,-0.230,0.877,-1.282,-0.137,-0.412
0.070,0.225,-0.228,0.876,-1.389,-0.840,-0.519
0.070,0.229,-0.229,0.888,-1.206,-0.290,-0.794
0.070,0.226,-0.227,0.878,-0.901,0.305,-1.084
0.080,0.219,-0.232,0.885,-0.870,0.336,-1.282
0.080,0.217,-0.227,0.884,-0.824,0.107,-1.466
0.090,0.222,-0.227,0.859,-0.962,0.901,-1.664
0.090,0.213,-0.228,0.863,-0.656,1.466,-1.786
0.090,0.211,-0.228,0.862,-0.885,1.405,-1.802
0.100,0.207,-0.227,0.854,-0.977,0.824,-1.679
0.100,0.208,-0.222,0.855,-1.069,0.641,-1.710
0.110,0.204,-0.226,0.858,-1.313,1.221,-1.725
0.110,0.206,-0.225,0.865,-1.588,1.023,-1.710
0.110,0.193,-0.224,0.851,-1.817,0.809,-1.908
0.120,0.188,-0.232,0.857,-1.649,0.214,-2.061
0.120,0.194,-0.231,0.859,-2.046,0.351,-2.031
0.130,0.185,-0.230,0.857,-1.969,0.260,-1.725
0.130,0.182,-0.231,0.851,-2.046,0.351,-1.603
0.130,0.178,-0.227,0.853,-2.076,0.580,-1.099
0.140,0.183,-0.229,0.850,-2.412,0.427,-0.855
0.140,0.178,-0.230,0.854,-2.351,0.366,-0.565
0.150,0.181,-0.234,0.865,-2.809,0.061,-0.565
0.150,0.192,-0.231,0.859,-2.824,-0.092,-0.565
0.150,0.184,-0.230,0.874,-2.885,-0.275,-0.458
0.160,0.191,-0.229,0.873,-2.916,-0.336,-0.397
0.160,0.188,-0.229,0.879,-2.489,-0.137,-0.229
0.170,0.183,-0.229,0.871,-2.183,0.046,0.046
0.170,0.185,-0.228,0.874,-1.954,-0.168,0.137
0.170,0.185,-0.229,0.873,-1.557,-0.183,0.412
0.180,0.188,-0.228,0.867,-1.267,-0.473,0.702
0.180,0.193,-0.227,0.860,-1.359,-0.763,0.779
0.190,0.192,-0.225,0.869,-1.664,-0.595,0.641
0.190,0.207,-0.225,0.866,-1.527,-0.702,0.580
0.190,0.203,-0.228,0.874,-1.359,-0.840,0.366
0.200,0.211,-0.223,0.890,-1.389,-0.382,0.458
0.200,0.212,-0.226,0.874,-1.160,-0.397,0.687
0.210,0.207,-0.223,0.866,-0.962,-0.229,0.748
0.210,0.209,-0.219,0.869,-0.992,0.229,0.809
0.210,0.203,-0.218,0.867,-1.069,0.092,0.824
0.220,0.211,-0.220,0.862,-1.313,-0.046,0.626
0.220,0.213,-0.219,0.856,-1.527,-0.015,0.656
0.230,0.219,-0.221,0.862,-1.420,0.031,0.275
0.230,0.223,-0.220,0.865,-1.710,0.214,0.137
0.230,0.223,-0.219,0.865,-1.817,0.321,-0.076
0.240,0.221,-0.217,0.871,-1.725,0.275,-0.321
0.240,0.221,-0.218,0.865,-1.664,0.137,-0.626
0.250,0.213,-0.213,0.862,-1.389,0.443,-0.748
0.250,0.209,-0.215,0.869,-1.389,0.046,-0.595
0.250,0.203,-0.221,0.862,-1.405,-0.580,-0.595
0.260,0.209,-0.215,0.857,-1.328,-0.656,-0.565
0.260,0.205,-0.215,0.862,-1.695,-1.237,-0.702
0.270,0.216,-0.206,0.850,-1.969,-1.221,-0.779
0.270,0.214,-0.205,0.846,-2.214,-0.779,-0.931
0.270,0.205,-0.210,0.855,-2.260,-1.038,-0.947
0.280,0.212,-0.209,0.845,-2.382,-1.237,-0.962
0.280,0.209,-0.208,0.852,-2.580,-1.618,-0.840
0.290,0.205,-0.204,0.842,-2.748,-1.863,-0.916
0.290,0.215,-0.205,0.866,-2.870,-1.817,-1.053
0.300,0.211,-0.210,0.864,-2.809,-1.679,-1.206
0.300,0.210,-0.208,0.875,-2.763,-0.824,-0.962
0.300,0.212,-0.213,0.875,-2.427,-0.519,-1.221
0.310,0.213,-0.212,0.878,-2.366,-0.366,-1.237
0.310,0.211,-0.214,0.881,-2.275,0.718,-1.176
0.320,0.214,-0.218,0.871,-1.893,1.481,-1.084
0.320,0.202,-0.220,0.867,-1.756,1.557,-1.145
0.320,0.191,-0.224,0.869,-1.756,1.618,-0.870
0.330,0.200,-0.222,0.875,-1.588,1.710,-0.916
0.330,0.199,-0.225,0.872,-1.786,1.710,-1.053
0.340,0.191,-0.226,0.869,-1.939,1.160,-1.115
0.340,0.197,-0.231,0.870,-2.000,0.565,-1.145
0.340,0.195,-0.223,0.880,-1.588,0.244,-1.221
0.350,0.192,-0.222,0.869,-1.389,0.031,-1.252
0.350,0.187,-0.229,0.872,-1.405,0.076,-1.145
0.360,0.190,-0.226,0.867,-1.267,-0.427,-1.160
0.360,0.190,-0.225,0.876,-1.252,-0.824,-1.115
0.360,0.186,-0.232,0.876,-1.603,-0.931,-0.870
0.370,0.187,-0.227,0.875,-1.542,-1.038,-0.763
0.370,0.187,-0.233,0.877,-1.389,-0.244,-0.458
0.380,0.181,-0.232,0.885,-1.038,-0.031,-0.489
0.380,0.187,-0.231,0.882,-1.405,-0.107,-0.076
0.380,0.176,-0.234,0.882,-1.038,-0.305,0.122
0.390,0.185,-0.235,0.887,-0.901,-0.015,0.351
0.390,0.184,-0.239,0.883,-0.626,0.397,0.672
0.400,0.184,-0.232,0.886,-0.504,0.565,0.763
0.400,0.189,-0.233,0.879,-0.137,-0.412,0.779
0.400,0.193,-0.231,0.882,-0.015,-1.221,0.641
0.410,0.201,-0.236,0.890,-0.031,-1.389,0.718
0.410,0.196,-0.232,0.888,0.275,-0.718,0.779
0.420,0.198,-0.229,0.888,0.779,-0.122,1.008
0.420,0.206,-0.234,0.872,1.221,0.260,1.008
0.420,0.197,-0.225,0.871,1.252,-0.168,1.221
0.430,0.205,-0.230,0.868,1.466,-0.153,1.252
0.430,0.205,-0.219,0.863,1.221,0.275,1.298
0.440,0.199,-0.224,0.855,1.206,0.351,1.344
0.440,0.208,-0.220,0.849,0.855,0.336,1.466
0.440,0.206,-0.218,0.854,0.595,0.458,1.359
0.450,0.207,-0.222,0.849,0.458,0.305,1.313
0.450,0.211,-0.219,0.857,-0.183,-0.031,1.115
0.450,0.206,-0.221,0.857,-0.107,-0.061,0.931
0.460,0.209,-0.219,0.856,-0.153,0.305,1.221
0.460,0.201,-0.221,0.860,-0.351,0.153,1.038
0.470,0.212,-0.218,0.862,-0.336,0.107,0.901
0.470,0.216,-0.221,0.852,-0.336,-0.031,0.824
0.470,0.207,-0.219,0.855,-0.611,-0.229,0.794
0.480,0.204,-0.222,0.856,-0.855,-0.672,0.672
0.480,0.206,-0.219,0.855,-0.992,-1.237,0.519
0.490,0.211,-0.215,0.856,-1.298,-1.527,0.519
0.490,0.217,-0.222,0.865,-1.420,-1.695,0.305
0.490,0.216,-0.219,0.869,-1.221,-1.435,0.260
0.500,0.213,-0.220,0.865,-1.176,-1.206,0.244
0.500,0.206,-0.217,0.865,-1.252,-1.863,0.412
0.510,0.207,-0.220,0.853,-1.099,-1.954,0.244
0.510,0.214,-0.217,0.851,-1.313,-1.618,0.305
0.510,0.221,-0.219,0.866,-1.084,-0.962,0.092
0.520,0.213,-0.219,0.867,-1.237,-0.687,0.260
0.520,0.212,-0.219,0.864,-1.008,-0.916,0.107
0.530,0.219,-0.215,0.861,-1.206,-0.336,0.122
0.530,0.224,-0.211,0.851,-1.237,-0.214,0.031
0.530,0.226,-0.211,0.863,-1.542,0.183,-0.260
0.540,0.213,-0.205,0.848,-1.435,-0.336,-0.473
0.540,0.212,-0.203,0.854,-1.481,-0.427,-0.504
0.550,0.216,-0.206,0.855,-1.603,-0.107,-0.885
0.550,0.216,-0.208,0.849,-1.954,-0.015,-0.916
0.550,0.213,-0.208,0.848,-2.046,-0.489,-1.191
0.560,0.208,-0.204,0.852,-2.443,-0.672,-1.420
0.560,0.208,-0.206,0.858,-2.305,-0.947,-1.237
0.570,0.207,-0.208,0.847,-2.275,-0.824,-1.237
0.570,0.197,-0.215,0.862,-2.382,-0.641,-1.328
0.570,0.201,-0.199,0.862,-2.244,-0.550,-1.282
0.580,0.210,-0.208,0.871,-1.847,-0.092,-1.359
0.580,0.200,-0.207,0.873,-1.679,0.153,-1.313
0.590,0.206,-0.209,0.865,-1.511,0.336,-1.573
0.590,0.197,-0.210,0.857,-1.664,0.290,-1.679
0.590,0.198,-0.211,0.868,-1.496,0.198,-1.603
0.600,0.194,-0.210,0.882,-1.313,-0.015,-1.802
0.600,0.185,-0.210,0.858,-1.206,-0.153,-1.649
0.610,0.193,-0.207,0.863,-1.160,-0.229,-1.435
0.610,0.189,-0.207,0.860,-1.206,0.061,-1.557
0.620,0.195,-0.209,0.858,-1.115,0.305,-1.405
0.620,0.188,-0.204,0.855,-0.901,0.977,-1.267
0.620,0.188,-0.214,0.847,-0.962,1.481,-0.992
0.630,0.173,-0.211,0.842,-1.130,1.511,-0.718
0.630,0.180,-0.206,0.833,-1.206,1.710,-0.397
0.630,0.178,-0.208,0.838,-1.832,1.740,-0.031
0.640,0.181,-0.204,0.831,-2.305,1.771,0.092
0.640,0.178,-0.201,0.840,-2.687,1.893,0.153
0.650,0.177,-0.205,0.838,-2.992,2.046,0.321
0.650,0.178,-0.204,0.830,-3.313,1.679,0.473
0.650,0.182,-0.204,0.843,-3.695,1.481,0.290
0.660,0.174,-0.205,0.849,-4.092,1.191,0.305
0.660,0.180,-0.206,0.851,-4.382,0.718,0.458
0.670,0.183,-0.211,0.865,-4.000,0.626,0.305
0.670,0.180,-0.212,0.864,-4.092,0.473,0.687
0.670,0.186,-0.215,0.860,-4.122,0.046,0.779
0.680,0.183,-0.209,0.876,-3.908,-0.214,0.718
0.680,0.193,-0.214,0.873,-3.527,-0.122,0.763
0.690,0.193,-0.211,0.885,-3.145,-0.382,0.519
0.690,0.194,-0.216,0.878,-2.916,-0.855,0.366
0.690,0.196,-0.220,0.876,-2.794,-1.206,0.153
0.700,0.190,-0.215,0.871,-2.626,-0.748,0.260
0.700,0.186,-0.216,0.880,-2.534,-0.840,0.489
0.710,0.183,-0.215,0.875,-2.122,-0.763,0.595
0.710,0.177,-0.214,0.877,-1.908,-0.504,0.809
0.710,0.180,-0.213,0.863,-2.015,-0.718,0.840
0.720,0.181,-0.212,0.868,-2.198,-0.885,0.885
0.720,0.187,-0.215,0.865,-2.183,-0.885,0.947
0.730,0.190,-0.217,0.860,-2.015,-0.519,0.947
0.730,0.188,-0.217,0.868,-2.168,-0.137,1.008
0.730,0.187,-0.217,0.868,-2.336,0.107,1.084
0.740,0.188,-0.214,0.870,-2.244,-0.107,1.084
0.740,0.194,-0.219,0.859,-2.321,-0.275,1.038
0.750,0.196,-0.222,0.867,-2.748,-0.397,0.962
0.750,0.192,-0.218,0.875,-2.779,0.336,1.069
0.750,0.190,-0.227,0.871,-2.534,0.916,1.176
0.760,0.195,-0.227,0.873,-2.718,0.595,1.130
0.760,0.196,-0.229,0.884,-2.809,0.992,1.191
0.770,0.199,-0.230,0.877,-2.672,1.130,1.084
0.770,0.189,-0.231,0.882,-2.519,1.267,1.206
0.770,0.181,-0.237,0.884,-2.321,0.977,1.466
0.780,0.178,-0.232,0.897,-2.092,0.550,1.908
0.780,0.176,-0.235,0.887,-2.015,0.168,2.290
0.780,0.187,-0.237,0.901,-1.496,0.427,2.260
0.790,0.190,-0.240,0.894,-1.237,0.397,2.580
0.790,0.184,-0.236,0.892,-0.702,0.366,2.718
0.800,0.194,-0.236,0.890,-0.443,0.061,2.565
0.800,0.198,-0.235,0.886,-0.214,-0.458,2.427
0.800,0.201,-0.230,0.876,0.015,-0.351,2.122
0.810,0.204,-0.226,0.870,0.214,-0.427,2.183
0.810,0.200,-0.227,0.878,0.229,-0.412,2.275
0.820,0.202,-0.224,0.881,0.183,-0.550,2.260
0.820,0.200,-0.229,0.872,0.061,-0.763,2.275
0.820,0.201,-0.227,0.867,0.000,-0.992,2.443
0.830,0.209,-0.222,0.875,-0.290,-1.176,2.336
0.830,0.208,-0.223,0.872,-0.168,-1.145,2.351
0.840,0.214,-0.226,0.878,-0.534,-1.221,2.336
0.840,0.213,-0.223,0.862,-0.687,-1.405,2.366
0.840,0.221,-0.222,0.861,-1.115,-1.023,2.061
0.850,0.220,-0.220,0.870,-1.267,-0.931,2.214
0.850,0.229,-0.219,0.861,-1.389,-0.702,1.969
0.860,0.226,-0.217,0.870,-1.603,-0.458,2.031
0.860,0.229,-0.222,0.862,-1.740,-0.809,1.588
0.860,0.233,-0.218,0.881,-1.771,-0.580,1.802
0.870,0.228,-0.219,0.872,-1.847,-0.824,1.466
0.870,0.231,-0.219,0.874,-1.847,-1.038,1.115
0.880,0.232,-0.220,0.873,-1.221,-1.084,1.038
0.880,0.238,-0.223,0.882,-1.389,-1.252,0.870
0.880,0.237,-0.220,0.877,-1.450,-1.206,0.427
0.890,0.235,-0.226,0.878,-1.267,-1.603,0.489
0.890,0.234,-0.225,0.867,-1.069,-2.061,0.260
0.900,0.235,-0.222,0.867,-1.099,-2.153,0.092
0.900,0.229,-0.227,0.867,-1.038,-2.214,-0.198
0.900,0.230,-0.218,0.874,-0.840,-2.198,-0.336
0.910,0.241,-0.228,0.870,-1.130,-2.046,-0.595
0.910,0.237,-0.226,0.870,-0.763,-1.847,-0.809
0.920,0.234,-0.222,0.866,-0.489,-2.046,-1.069
0.920,0.233,-0.234,0.865,-0.351,-1.954,-1.313
0.920,0.237,-0.229,0.859,-0.458,-1.237,-1.298
0.930,0.235,-0.219,0.861,-0.198,-0.672,-1.374
0.930,0.234,-0.219,0.858,-0.275,-0.366,-1.511
0.940,0.232,-0.212,0.853,-0.427,-0.305,-1.527
0.940,0.229,-0.220,0.842,-0.504,-0.489,-1.695
0.940,0.234,-0.215,0.846,-1.084,-0.351,-2.000
0.950,0.230,-0.215,0.838,-1.374,-0.580,-2.260
0.950,0.228,-0.209,0.845,-1.786,-0.489,-2.550
0.960,0.227,-0.214,0.850,-2.076,-0.321,-2.656
0.960,0.223,-0.216,0.845,-2.046,-0.076,-2.672
0.970,0.216,-0.222,0.843,-2.412,0.137,-2.779
0.970,0.208,-0.214,0.844,-2.397,0.122,-2.565
0.970,0.208,-0.222,0.839,-2.550,0.244,-2.489
0.980,0.203,-0.222,0.845,-2.733,0.443,-2.550
0.980,0.209,-0.217,0.836,-2.718,0.763,-2.397
0.990,0.204,-0.223,0.844,-2.702,1.344,-2.534
0.990,0.203,-0.219,0.849,-2.794,1.985,-2.427
0.990,0.198,-0.220,0.843,-2.733,1.725,-2.626
1.000,0.197,-0.219,0.847,-2.702,1.435,-2.458
1.000,0.196,-0.219,0.851,-2.656,1.389,-2.443
1.010,0.190,-0.220,0.852,-2.779,1.573,-2.336
1.010,0.188,-0.223,0.860,-3.069,1.771,-2.122
1.010,0.187,-0.221,0.848,-3.176,1.817,-2.183
1.020,0.186,-0.223,0.858,-3.221,1.511,-1.939
1.020,0.185,-0.228,0.863,-3.420,1.435,-2.000
1.030,0.181,-0.228,0.875,-2.977,0.992,-1.740
1.030,0.181,-0.225,0.868,-2.824,1.084,-1.618
1.030,0.173,-0.218,0.875,-2.611,0.962,-1.252
1.040,0.182,-0.224,0.869,-2.427,1.359,-1.069
1.040,0.186,-0.225,0.866,-2.336,1.435,-0.763
1.050,0.184,-0.218,0.859,-2.244,1.725,-0.794
1.050,0.180,-0.221,0.859,-2.473,1.603,-0.901
1.050,0.181,-0.225,0.867,-2.916,1.252,-0.947
1.060,0.188,-0.225,0.872,-3.130,1.191,-0.809
1.060,0.184,-0.225,0.872,-3.038,1.206,-0.901
1.060,0.176,-0.225,0.870,-2.840,1.115,-0.473
1.070,0.180,-0.222,0.876,-3.084,0.565,-0.305
1.070,0.173,-0.221,0.879,-2.794,0.351,0.198
1.080,0.179,-0.226,0.884,-2.489,0.015,0.382
1.080,0.186,-0.218,0.883,-2.198,-0.198,0.489
1.080,0.175,-0.219,0.879,-1.863,-0.702,0.916
1.090,0.183,-0.217,0.872,-1.756,-1.023,1.115
1.090,0.187,-0.218,0.878,-1.786,-1.420,0.977
1.100,0.192,-0.223,0.881,-1.771,-1.511,0.870
1.100,0.201,-0.213,0.877,-1.878,-1.649,0.641
1.100,0.198,-0.212,0.878,-1.802,-1.893,0.763
1.110,0.198,-0.214,0.880,-1.878,-2.046,1.053
1.110,0.198,-0.223,0.870,-1.634,-2.015,1.221
1.120,0.202,-0.216,0.882,-1.664,-2.046,1.221
1.120,0.212,-0.221,0.880,-1.649,-1.878,1.191
1.120,0.211,-0.217,0.872,-1.695,-1.756,1.145
1.130,0.212,-0.219,0.870,-1.557,-1.420,1.298
1.130,0.214,-0.221,0.887,-1.588,-1.649,1.145
1.140,0.216,-0.219,0.878,-1.710,-1.389,1.099
1.140,0.221,-0.222,0.891,-1.328,-1.099,1.069
1.140,0.225,-0.221,0.887,-0.901,-0.763,0.962
1.150,0.224,-0.225,0.879,-0.672,-0.443,0.840
1.150,0.221,-0.222,0.870,-0.244,-0.046,0.595
1.160,0.222,-0.216,0.871,-0.229,-0.595,0.565
1.160,0.219,-0.219,0.858,-0.183,-0.595,0.321
1.160,0.219,-0.217,0.853,-0.412,-0.565,0.290
1.170,0.213,-0.217,0.858,-0.870,-0.931,0.061
1.170,0.209,-0.215,0.861,-1.252,-1.115,-0.244
1.180,0.210,-0.226,0.862,-1.389,-1.206,-0.336
1.180,0.206,-0.214,0.857,-1.588,-1.328,-0.382
1.180,0.202,-0.222,0.852,-1.985,-1.771,-0.397
1.190,0.191,-0.222,0.864,-2.000,-2.229,-0.427
1.190,0.192,-0.222,0.863,-1.756,-2.290,-0.366
1.200,0.194,-0.223,0.874,-1.649,-2.504,-0.061
1.200,0.186,-0.233,0.864,-1.298,-2.962,-0.153
1.210,0.196,-0.233,0.879,-1.450,-2.687,-0.015
1.210,0.189,-0.232,0.886,-1.176,-2.412,0.382
1.210,0.187,-0.233,0.873,-1.115,-2.565,0.641
1.220,0.184,-0.230,0.881,-0.840,-2.565,0.779
1.220,0.189,-0.231,0.872,-0.504,-2.260,0.992
1.230,0.195,-0.231,0.871,-0.611,-1.863,1.221
1.230,0.187,-0.231,0.883,-0.550,-1.450,1.420
1.230,0.195,-0.235,0.874,-0.229,-1.221,1.634
1.240,0.199,-0.226,0.872,-0.092,-1.099,1.664
1.240,0.207,-0.228,0.883,-0.244,-0.748,1.450
1.250,0.207,-0.227,0.881,-0.015,-0.183,1.466
1.250,0.201,-0.228,0.874,0.061,-0.275,1.679
1.250,0.199,-0.228,0.877,0.076,-0.534,1.603
1.260,0.200,-0.231,0.867,0.214,-0.687,1.481
1.260,0.198,-0.225,0.880,0.412,-0.748,1.695
1.260,0.204,-0.217,0.878,0.427,-1.023,1.557
1.270,0.207,-0.225,0.883,0.321,-0.947,1.542
1.270,0.203,-0.221,0.881,0.550,-1.038,1.420
1.280,0.211,-0.225,0.864,0.718,-0.885,1.527
1.280,0.210,-0.226,0.876,0.702,-0.992,1.313
1.280,0.208,-0.226,0.873,0.687,-1.099,1.160
1.290,0.211,-0.226,0.862,0.687,-1.038,1.115
1.290,0.215,-0.217,0.867,0.824,-0.473,0.718
1.300,0.220,-0.219,0.866,0.702,-0.519,0.748
1.300,0.209,-0.219,0.861,0.534,-0.870,0.870
1.300,0.213,-0.220,0.859,0.489,-0.763,0.672
1.310,0.216,-0.210,0.861,0.336,-0.641,0.901
1.310,0.212,-0.215,0.843,0.031,-0.779,0.947
1.320,0.213,-0.216,0.845,-0.290,-0.931,0.611
1.320,0.205,-0.213,0.846,-0.550,-1.191,0.962
1.320,0.211,-0.212,0.845,-0.779,-1.160,1.115
1.330,0.210,-0.210,0.844,-0.794,-0.779,0.992
1.330,0.212,-0.219,0.842,-0.626,-0.626,1.267
1.340,0.210,-0.209,0.838,-0.672,-0.779,1.069
1.340,0.214,-0.213,0.842,-1.328,-1.435,1.115
1.340,0.220,-0.206,0.843,-1.450,-1.344,1.069
1.350,0.220,-0.210,0.840,-1.725,-1.573,0.794
1.350,0.218,-0.207,0.856,-1.939,-1.511,0.733
1.360,0.223,-0.208,0.855,-1.878,-1.527,0.458
1.360,0.218,-0.213,0.865,-1.710,-1.573,0.473
1.360,0.207,-0.213,0.857,-1.557,-1.481,0.489
1.370,0.211,-0.210,0.868,-1.374,-2.092,0.504
1.370,0.202,-0.220,0.866,-1.405,-2.198,0.366
1.380,0.196,-0.217,0.857,-1.389,-2.702,0.321
1.380,0.189,-0.214,0.866,-1.679,-3.267,0.489
1.380,0.180,-0.223,0.883,-1.359,-3.573,0.382
1.390,0.180,-0.228,0.890,-1.282,-3.725,1.069
1.390,0.171,-0.230,0.893,-1.069,-4.015,1.115
1.400,0.167,-0.236,0.884,-0.733,-4.046,1.389
1.400,0.159,-0.240,0.891,-0.107,-3.985,1.466
1.400,0.154,-0.240,0.888,0.321,-4.153,1.450
1.410,0.142,-0.242,0.897,0.382,-4.275,1.588
1.410,0.129,-0.243,0.895,1.115,-4.626,1.969
1.420,0.121,-0.248,0.895,1.344,-5.435,2.580
1.420,0.099,-0.245,0.894,1.847,-5.985,3.466
1.420,0.103,-0.246,0.890,2.183,-6.504,4.321
1.430,0.097,-0.247,0.894,2.214,-6.656,5.115
1.430,0.091,-0.252,0.888,2.336,-7.252,5.756
1.430,0.072,-0.251,0.888,2.550,-8.122,6.336
1.440,0.062,-0.256,0.886,2.550,-9.802,7.069
1.440,0.049,-0.251,0.902,2.779,-11.023,7.832
1.450,0.041,-0.258,0.905,3.328,-11.863,9.038
1.450,0.028,-0.269,0.905,3.924,-12.260,10.305
1.450,0.023,-0.268,0.921,4.336,-12.779,11.939
1.460,0.012,-0.271,0.918,4.901,-12.672,13.664
1.460,0.008,-0.271,0.914,5.802,-12.168,15.176
1.470,-0.002,-0.268,0.910,6.580,-12.336,17.130
1.470,-0.005,-0.270,0.916,6.870,-12.702,18.901
1.480,-0.009,-0.278,0.933,7.450,-12.947,20.458
1.480,-0.018,-0.282,0.931,7.786,-13.252,22.366
1.480,-0.038,-0.288,0.938,8.748,-13.679,24.153
1.490,-0.055,-0.289,0.948,9.450,-14.763,26.137
1.490,-0.069,-0.294,0.950,10.885,-15.939,28.626
1.500,-0.081,-0.304,0.957,12.244,-17.267,30.794
1.500,-0.088,-0.305,0.968,13.740,-18.779,33.130
1.500,-0.096,-0.310,0.974,15.176,-20.412,35.450
1.510,-0.108,-0.313,0.964,16.748,-22.427,37.954
1.510,-0.124,-0.316,0.962,17.893,-24.565,40.794
1.520,-0.131,-0.315,0.977,19.573,-26.641,43.374
1.520,-0.143,-0.321,0.969,20.931,-28.550,46.366
1.530,-0.157,-0.326,0.969,22.015,-30.672,49.863
1.530,-0.165,-0.330,0.977,23.481,-32.015,53.389
1.530,-0.180,-0.336,0.979,24.901,-32.901,57.252
1.540,-0.184,-0.342,0.975,26.382,-33.420,61.313
1.540,-0.199,-0.344,0.976,27.542,-34.000,65.282
1.550,-0.209,-0.348,0.965,29.053,-35.771,69.832
1.550,-0.225,-0.344,0.954,29.328,-36.137,74.794
1.560,-0.244,-0.358,0.963,30.534,-36.962,79.954
1.560,-0.247,-0.364,0.945,31.466,-37.298,84.565
1.560,-0.256,-0.354,0.932,31.634,-38.321,89.267
1.570,-0.257,-0.370,0.919,31.115,-39.527,93.908
1.570,-0.260,-0.370,0.917,30.550,-41.008,98.412
1.580,-0.258,-0.375,0.928,30.382,-41.588,102.489
1.580,-0.274,-0.384,0.925,30.794,-42.595,107.389
1.590,-0.284,-0.392,0.944,31.008,-43.756,112.351
1.590,-0.276,-0.400,0.948,31.344,-45.527,116.916
1.590,-0.264,-0.408,0.960,32.198,-47.725,121.130
1.600,-0.252,-0.418,0.965,33.847,-50.672,124.550
1.600,-0.227,-0.422,0.967,35.771,-53.252,127.069
1.610,-0.177,-0.424,0.972,37.130,-54.901,129.038
1.610,-0.157,-0.419,0.972,38.763,-54.779,130.718
1.620,-0.125,-0.436,0.962,40.519,-53.603,132.046
1.620,-0.125,-0.437,0.952,42.214,-51.954,133.496
1.620,-0.130,-0.434,0.938,42.977,-50.305,135.649
1.630,-0.146,-0.443,0.927,43.557,-48.229,138.183
1.630,-0.143,-0.446,0.916,44.031,-45.847,140.687
1.640,-0.149,-0.448,0.909,44.260,-44.534,143.649
1.640,-0.157,-0.446,0.916,44.687,-43.527,146.916
1.650,-0.154,-0.447,0.893,44.962,-42.595,150.656
1.650,-0.147,-0.450,0.896,45.130,-42.672,154.076
1.660,-0.131,-0.445,0.869,44.931,-43.878,157.145
1.660,-0.095,-0.440,0.855,44.397,-46.046,159.145
1.660,-0.064,-0.429,0.835,43.252,-48.947,160.336
1.670,-0.034,-0.420,0.824,42.290,-52.901,161.069
1.670,-0.016,-0.422,0.813,41.221,-58.015,161.023
1.680,-0.004,-0.418,0.803,39.817,-63.786,161.130
1.680,0.018,-0.417,0.790,38.641,-69.679,161.069
1.690,0.041,-0.416,0.788,37.374,-74.565,161.191
1.690,0.084,-0.410,0.789,36.336,-77.282,161.221
1.690,0.124,-0.416,0.792,35.237,-77.588,161.221
1.700,0.138,-0.412,0.789,34.840,-75.802,161.313
1.700,0.144,-0.423,0.786,34.763,-74.168,161.725
1.710,0.156,-0.435,0.797,34.015,-71.817,161.939
1.710,0.173,-0.444,0.800,33.466,-68.183,162.870
1.720,0.169,-0.456,0.821,33.985,-63.038,164.534
1.720,0.168,-0.467,0.847,34.824,-57.053,167.160
1.720,0.163,-0.475,0.854,35.939,-51.435,170.321
1.730,0.175,-0.471,0.852,37.313,-47.130,173.206
1.730,0.200,-0.483,0.856,38.794,-43.252,175.008
1.740,0.224,-0.484,0.843,40.427,-40.275,176.443
1.740,0.238,-0.480,0.841,41.649,-38.351,176.992
1.740,0.240,-0.481,0.827,42.687,-38.305,177.328
1.750,0.239,-0.476,0.821,43.939,-39.206,177.679
1.750,0.231,-0.483,0.817,45.420,-40.626,178.443
1.760,0.240,-0.481,0.811,46.519,-42.809,179.130
1.760,0.243,-0.476,0.792,46.855,-44.840,180.229
1.770,0.253,-0.482,0.787,47.695,-46.244,181.115
1.770,0.277,-0.471,0.776,48.290,-46.336,181.924
1.770,0.303,-0.471,0.765,48.137,-45.374,182.672
1.780,0.325,-0.470,0.748,47.847,-42.855,182.809
1.780,0.355,-0.471,0.737,47.664,-39.740,182.733
1.790,0.350,-0.476,0.746,47.176,-37.496,182.595
1.790,0.333,-0.480,0.737,47.282,-35.588,183.038
1.800,0.325,-0.485,0.746,47.679,-33.771,183.725
1.800,0.327,-0.491,0.740,48.092,-32.489,184.504
1.800,0.323,-0.487,0.739,48.015,-31.634,185.481
1.810,0.320,-0.492,0.742,48.000,-31.344,186.779
1.810,0.315,-0.504,0.754,49.344,-31.328,188.290
1.820,0.322,-0.508,0.748,50.870,-30.809,189.664
1.820,0.344,-0.502,0.736,51.725,-30.198,190.198
1.830,0.364,-0.508,0.726,51.359,-29.588,190.260
1.830,0.378,-0.506,0.706,51.069,-28.290,190.275
1.830,0.386,-0.510,0.723,51.252,-27.954,190.137
1.840,0.396,-0.511,0.724,51.878,-27.603,189.924
1.840,0.402,-0.511,0.733,52.198,-27.115,189.954
1.850,0.402,-0.510,0.721,52.504,-25.237,190.351
1.850,0.401,-0.503,0.709,52.534,-23.847,190.931
1.860,0.409,-0.509,0.706,52.382,-21.878,191.496
1.860,0.406,-0.513,0.708,52.214,-20.870,192.336
1.860,0.390,-0.520,0.723,52.916,-20.931,193.557
1.870,0.384,-0.520,0.720,54.397,-22.092,194.824
1.870,0.387,-0.519,0.695,54.290,-23.176,195.695
1.880,0.425,-0.520,0.689,53.435,-22.824,195.985
1.880,0.442,-0.526,0.683,53.344,-21.771,195.908
1.890,0.453,-0.528,0.708,53.313,-22.290,195.252
1.890,0.452,-0.528,0.708,52.870,-22.672,194.672
1.890,0.438,-0.530,0.707,52.779,-24.656,194.611
1.900,0.423,-0.539,0.726,53.954,-28.382,195.038
1.900,0.417,-0.536,0.747,55.908,-30.855,196.260
1.910,0.442,-0.536,0.734,57.420,-30.183,197.649
1.910,0.477,-0.540,0.719,58.656,-27.649,198.626
1.910,0.511,-0.529,0.710,59.450,-24.748,198.595
1.920,0.546,-0.525,0.696,59.649,-21.282,198.244
1.920,0.579,-0.505,0.687,59.359,-16.244,196.626
1.930,0.610,-0.499,0.670,58.992,-10.626,194.595
1.930,0.606,-0.478,0.649,57.588,-7.527,192.427
1.940,0.596,-0.464,0.620,55.481,-7.206,190.489
1.940,0.589,-0.449,0.582,52.305,-7.863,188.718
1.940,0.592,-0.446,0.575,49.511,-8.840,186.550
1.950,0.576,-0.455,0.594,47.053,-12.305,185.252
1.950,0.540,-0.469,0.619,45.817,-17.786,184.641
1.960,0.499,-0.487,0.653,46.840,-23.893,184.656
1.960,0.488,-0.494,0.686,48.321,-29.893,185.038
1.970,0.487,-0.493,0.680,48.779,-36.107,185.725
1.970,0.489,-0.506,0.695,48.916,-40.550,187.191
1.970,0.484,-0.519,0.736,50.290,-43.435,188.580
1.980,0.480,-0.527,0.771,54.397,-45.466,189.634
1.980,0.505,-0.513,0.761,57.481,-46.489,190.229
1.990,0.540,-0.501,0.736,58.382,-44.870,189.939
1.990,0.562,-0.486,0.706,58.198,-42.580,189.038
2.000,0.604,-0.457,0.686,57.924,-39.649,187.359
2.000,0.636,-0.430,0.665,57.725,-36.824,185.405
2.000,0.669,-0.406,0.637,55.969,-34.397,182.351
2.010,0.701,-0.375,0.601,54.000,-33.679,178.382
2.010,0.752,-0.365,0.569,50.611,-29.924,172.305
2.020,0.799,-0.339,0.502,43.878,-22.611,166.031
2.020,0.823,-0.313,0.451,35.008,-13.710,158.885
2.030,0.798,-0.318,0.454,27.527,-8.443,152.687
2.030,0.742,-0.319,0.495,21.557,-6.824,148.321
2.030,0.705,-0.332,0.525,16.519,-6.229,144.962
2.040,0.677,-0.341,0.569,12.153,-6.351,141.878
2.040,0.667,-0.353,0.594,8.641,-6.031,138.794
2.050,0.671,-0.375,0.621,6.168,-5.267,135.313
2.050,0.664,-0.381,0.637,4.229,-5.664,131.511
2.050,0.654,-0.385,0.683,2.015,-6.244,128.947
2.060,0.628,-0.407,0.729,2.046,-9.634,125.053
2.060,0.638,-0.419,0.773,3.008,-11.496,121.664
2.070,0.631,-0.418,0.807,4.351,-14.794,118.382
2.070,0.620,-0.415,0.813,5.756,-17.115,115.924
2.070,0.583,-0.416,0.834,7.573,-19.344,114.779
2.080,0.558,-0.435,0.877,11.481,-23.573,113.527
2.080,0.581,-0.431,0.900,14.885,-27.573,111.710
2.090,0.634,-0.418,0.892,17.557,-30.122,108.244
2.090,0.661,-0.390,0.869,21.206,-31.710,104.427
2.100,0.673,-0.400,0.842,21.084,-32.733,101.511
2.100,0.718,-0.389,0.853,21.008,-33.664,96.443
2.100,0.757,-0.375,0.866,23.847,-35.237,91.435
2.110,0.793,-0.353,0.842,23.511,-37.847,84.763
2.110,0.731,-0.422,0.851,24.794,-48.992,79.389
2.120,0.826,-0.324,0.791,23.954,-41.038,76.565
2.120,0.816,-0.326,0.776,21.527,-33.328,72.443
2.130,0.845,-0.342,0.686,17.313,-21.710,68.137
2.130,0.821,-0.323,0.686,12.611,-18.595,64.107
2.130,0.812,-0.333,0.739,9.038,-15.740,60.076
2.140,0.795,-0.336,0.789,7.267,-11.679,56.931
2.140,0.784,-0.352,0.834,7.099,-10.672,53.267
2.150,0.777,-0.356,0.839,7.710,-11.725,48.840
2.150,0.763,-0.343,0.837,6.885,-13.267,45.160
2.150,0.763,-0.338,0.837,7.053,-11.878,42.198
2.160,0.745,-0.345,0.837,8.076,-11.756,38.824
2.160,0.719,-0.339,0.854,9.603,-14.244,35.664
2.170,0.731,-0.343,0.848,10.672,-14.336,32.397
2.170,0.737,-0.340,0.850,12.412,-12.931,28.855
2.170,0.733,-0.324,0.832,13.588,-10.840,25.924
2.180,0.728,-0.321,0.827,14.122,-9.573,22.489
2.180,0.712,-0.309,0.818,14.412,-7.313,19.298
2.190,0.710,-0.311,0.796,14.473,-4.244,16.656
2.190,0.695,-0.284,0.781,14.153,-2.092,13.237
2.190,0.703,-0.294,0.760,13.206,0.458,9.435
2.200,0.669,-0.284,0.737,12.229,2.565,6.122
2.200,0.647,-0.266,0.698,9.939,3.420,3.359
2.210,0.627,-0.260,0.694,6.687,4.183,0.595
2.210,0.610,-0.254,0.683,3.725,5.786,-1.695
2.210,0.574,-0.253,0.689,0.611,7.282,-3.863
2.220,0.549,-0.253,0.706,-1.328,8.000,-5.573
2.220,0.512,-0.252,0.735,-1.649,8.214,-7.267
2.230,0.487,-0.261,0.756,-1.847,8.443,-8.870
2.230,0.473,-0.260,0.747,-2.901,9.527,-10.153
2.230,0.438,-0.242,0.729,-3.939,10.641,-10.931
2.240,0.418,-0.248,0.736,-4.489,11.405,-11.893
2.240,0.407,-0.250,0.740,-4.687,11.802,-12.931
2.250,0.394,-0.236,0.745,-5.267,11.725,-13.664
2.250,0.385,-0.229,0.729,-6.504,12.153,-14.519
2.260,0.394,-0.228,0.723,-8.321,12.947,-15.206
2.260,0.404,-0.225,0.716,-10.260,13.985,-16.183
2.260,0.425,-0.226,0.729,-11.893,17.328,-17.282
2.270,0.421,-0.234,0.735,-12.641,20.168,-18.275
2.270,0.412,-0.244,0.755,-13.374,22.519,-18.534
2.280,0.399,-0.246,0.766,-13.573,23.038,-18.565
2.280,0.396,-0.257,0.781,-13.481,23.817,-18.794
2.280,0.409,-0.253,0.785,-13.847,24.611,-19.252
2.290,0.424,-0.251,0.792,-14.382,24.244,-20.000
2.290,0.458,-0.255,0.807,-14.198,24.153,-21.481
2.300,0.474,-0.257,0.807,-14.092,24.763,-22.992
2.300,0.477,-0.267,0.814,-14.000,24.061,-24.748
2.310,0.490,-0.267,0.812,-13.328,22.321,-25.893
2.310,0.511,-0.275,0.813,-13.115,22.061,-27.466
2.310,0.542,-0.269,0.802,-12.809,22.733,-29.542
2.320,0.569,-0.272,0.800,-13.252,21.786,-31.756
2.320,0.600,-0.274,0.797,-13.847,20.885,-34.458
2.330,0.637,-0.280,0.787,-14.107,21.160,-38.000
2.330,0.670,-0.279,0.776,-14.809,22.260,-41.099
2.340,0.683,-0.280,0.771,-16.000,23.160,-44.947
2.340,0.699,-0.290,0.751,-17.130,23.160,-48.763
2.340,0.716,-0.294,0.734,-18.305,23.115,-52.595
2.350,0.726,-0.307,0.735,-19.115,22.672,-56.656
2.350,0.719,-0.313,0.737,-19.542,21.573,-60.397
2.360,0.725,-0.321,0.726,-20.229,19.252,-64.229
2.360,0.728,-0.317,0.709,-21.221,17.450,-68.214
2.370,0.734,-0.323,0.702,-22.137,16.336,-71.740
2.370,0.738,-0.335,0.688,-23.618,14.412,-75.542
2.370,0.757,-0.339,0.692,-24.550,12.748,-79.389
2.380,0.774,-0.332,0.691,-25.634,12.519,-83.221
2.380,0.772,-0.344,0.678,-27.099,12.519,-87.084
2.390,0.752,-0.348,0.669,-28.153,12.382,-90.382
2.390,0.758,-0.351,0.666,-29.603,12.336,-93.969
2.400,0.755,-0.361,0.649,-31.008,13.389,-97.313
2.400,0.743,-0.368,0.645,-33.191,14.565,-100.550
2.400,0.718,-0.366,0.618,-35.466,15.282,-103.359
2.410,0.688,-0.369,0.621,-38.397,15.115,-105.863
2.410,0.668,-0.374,0.617,-40.565,14.656,-107.496
2.420,0.669,-0.380,0.620,-43.496,16.718,-109.328
2.420,0.642,-0.370,0.602,-47.053,18.748,-110.885
2.430,0.592,-0.375,0.580,-51.435,17.328,-110.611
2.430,0.541,-0.380,0.573,-56.122,14.534,-110.244
2.430,0.564,-0.375,0.573,-59.130,13.221,-111.176
2.440,0.601,-0.389,0.596,-62.702,12.641,-114.137
2.440,0.529,-0.404,0.572,-64.840,11.237,-115.832
2.450,0.520,-0.380,0.554,-71.176,3.237,-116.641
2.450,0.646,-0.387,0.549,-75.298,4.595,-122.031
2.460,0.686,-0.397,0.558,-78.641,11.679,-127.206
2.460,0.613,-0.410,0.595,-81.740,13.420,-131.832
2.460,0.519,-0.453,0.650,-82.779,11.924,-134.794
2.470,0.481,-0.472,0.692,-82.351,12.046,-136.351
2.470,0.456,-0.495,0.713,-81.344,15.328,-136.824
2.480,0.428,-0.504,0.740,-79.771,17.176,-136.458
2.480,0.398,-0.524,0.788,-76.901,17.725,-135.603
2.490,0.370,-0.533,0.819,-73.359,16.931,-134.504
2.490,0.351,-0.546,0.853,-69.130,15.710,-133.099
2.490,0.336,-0.548,0.882,-63.527,14.534,-131.527
2.500,0.345,-0.544,0.910,-58.443,13.939,-130.260
2.500,0.353,-0.532,0.895,-53.771,14.321,-129.145
2.510,0.366,-0.525,0.909,-49.328,16.336,-128.412
2.510,0.387,-0.518,0.897,-45.313,20.595,-127.878
2.520,0.420,-0.507,0.858,-42.382,26.992,-128.000
2.520,0.437,-0.499,0.853,-40.305,34.366,-128.550
2.530,0.442,-0.484,0.828,-38.977,41.099,-129.664
2.530,0.440,-0.478,0.803,-38.550,47.573,-131.115
2.530,0.441,-0.473,0.786,-39.496,54.015,-132.489
2.540,0.448,-0.469,0.752,-41.084,61.420,-134.092
2.540,0.453,-0.466,0.762,-42.153,68.947,-136.015
2.550,0.437,-0.476,0.751,-43.206,73.695,-138.229
2.550,0.418,-0.472,0.753,-43.954,75.405,-140.672
2.560,0.399,-0.469,0.744,-44.977,75.450,-143.130
2.560,0.380,-0.474,0.723,-46.015,74.366,-145.450
2.560,0.362,-0.473,0.739,-47.237,72.214,-147.802
2.570,0.339,-0.480,0.729,-48.168,68.748,-149.710
2.570,0.318,-0.480,0.716,-49.359,64.275,-151.603
2.580,0.308,-0.472,0.709,-50.977,59.084,-152.901
2.580,0.304,-0.481,0.720,-52.870,53.786,-154.260
2.590,0.308,-0.480,0.726,-54.214,49.344,-155.542
2.590,0.309,-0.486,0.742,-55.313,46.107,-156.931
2.590,0.317,-0.493,0.743,-56.809,45.573,-158.153
2.600,0.305,-0.504,0.775,-58.153,46.443,-159.084
2.600,0.281,-0.518,0.804,-57.435,47.267,-159.573
2.610,0.251,-0.527,0.826,-57.038,48.611,-159.023
2.610,0.248,-0.537,0.824,-57.191,50.015,-158.565
2.620,0.249,-0.534,0.835,-56.458,52.137,-158.336
2.620,0.260,-0.546,0.862,-54.580,54.840,-158.580
2.630,0.268,-0.538,0.859,-52.885,57.588,-159.130
2.630,0.266,-0.542,0.858,-50.916,57.679,-160.046
2.630,0.275,-0.540,0.856,-48.992,56.504,-161.924
2.640,0.290,-0.544,0.855,-46.824,55.298,-164.397
2.640,0.316,-0.537,0.877,-44.412,53.573,-167.420
2.650,0.341,-0.533,0.867,-41.847,52.137,-170.992
2.650,0.328,-0.531,0.834,-41.679,50.061,-174.122
2.660,0.314,-0.521,0.808,-41.802,47.527,-176.718
2.660,0.312,-0.521,0.794,-41.695,44.061,-179.389
2.660,0.323,-0.517,0.792,-41.557,40.931,-182.137
2.670,0.326,-0.518,0.777,-42.046,37.863,-184.412
2.670,0.317,-0.511,0.757,-43.344,35.435,-186.214
2.680,0.309,-0.510,0.748,-44.641,34.336,-187.435
2.680,0.303,-0.517,0.737,-46.595,35.053,-187.481
2.690,0.301,-0.507,0.724,-49.038,37.420,-187.420
2.690,0.311,-0.512,0.718,-51.267,41.954,-187.084
2.690,0.309,-0.523,0.722,-53.527,47.740,-186.779
2.700,0.306,-0.521,0.721,-55.496,54.107,-185.847
2.700,0.263,-0.536,0.727,-57.176,60.198,-184.000
2.710,0.219,-0.536,0.732,-59.115,65.191,-180.687
2.710,0.166,-0.548,0.744,-60.290,68.595,-176.244
2.720,0.113,-0.553,0.753,-61.374,70.885,-170.092
2.720,0.050,-0.548,0.741,-62.779,72.244,-162.137
2.720,-0.029,-0.556,0.746,-64.244,72.718,-152.214
2.730,-0.099,-0.566,0.754,-66.000,71.496,-140.687
2.730,-0.156,-0.574,0.770,-67.878,70.366,-126.977
2.740,-0.188,-0.565,0.799,-68.351,65.954,-113.771
2.740,-0.173,-0.557,0.839,-66.870,60.992,-102.031
2.750,-0.100,-0.546,0.859,-63.908,57.145,-91.664
2.750,-0.077,-0.555,0.860,-62.061,42.809,-83.542
2.760,-0.065,-0.525,0.867,-63.069,28.260,-77.893
2.760,0.065,-0.540,0.877,-57.649,33.374,-73.542
2.760,0.162,-0.532,0.893,-51.481,37.176,-72.168
2.770,0.196,-0.534,0.894,-45.634,35.298,-72.977
2.770,0.231,-0.526,0.877,-39.603,31.618,-74.763
2.780,0.285,-0.526,0.854,-35.160,28.779,-78.260
2.780,0.310,-0.508,0.817,-31.557,26.870,-82.824
2.790,0.322,-0.511,0.816,-28.840,24.565,-87.298
2.790,0.329,-0.502,0.802,-27.893,21.924,-92.137
2.790,0.329,-0.493,0.774,-27.115,19.038,-96.794
2.800,0.334,-0.498,0.754,-27.008,17.267,-101.298
2.800,0.373,-0.480,0.740,-27.954,19.832,-106.550
2.810,0.399,-0.477,0.734,-29.008,26.153,-111.939
2.810,0.420,-0.475,0.725,-30.336,35.328,-117.374
2.820,0.424,-0.478,0.715,-32.489,44.382,-122.198
2.820,0.404,-0.483,0.717,-34.611,50.733,-125.740
2.820,0.387,-0.485,0.728,-36.214,58.092,-128.458
2.830,0.368,-0.492,0.729,-37.542,65.679,-130.427
2.830,0.354,-0.489,0.745,-38.122,72.137,-132.061
2.840,0.330,-0.501,0.741,-38.611,76.931,-133.206
2.840,0.302,-0.511,0.753,-39.069,80.702,-133.969
2.850,0.248,-0.524,0.776,-38.137,83.634,-133.053
2.850,0.172,-0.541,0.809,-35.893,82.824,-130.656
2.850,0.103,-0.553,0.836,-33.817,79.282,-127.450
2.860,0.072,-0.558,0.850,-31.328,75.038,-123.679
2.860,0.062,-0.557,0.872,-28.580,71.206,-119.893
2.870,0.068,-0.555,0.882,-25.221,67.420,-116.779
2.870,0.083,-0.551,0.880,-22.580,64.092,-114.122
2.880,0.112,-0.542,0.875,-20.260,62.092,-112.733
2.880,0.137,-0.534,0.859,-19.221,61.160,-111.969
2.890,0.155,-0.522,0.846,-18.183,60.885,-111.695
2.890,0.173,-0.519,0.834,-17.771,62.137,-112.092
2.890,0.178,-0.520,0.815,-17.725,62.947,-113.328
2.900,0.194,-0.510,0.811,-17.939,63.298,-114.901
2.900,0.186,-0.510,0.809,-18.107,62.107,-116.718
2.910,0.173,-0.514,0.815,-18.901,60.031,-118.382
2.910,0.161,-0.512,0.814,-19.267,57.557,-119.710
2.920,0.142,-0.512,0.815,-19.618,55.328,-120.885
2.920,0.111,-0.503,0.809,-20.443,52.534,-120.733
2.920,0.091,-0.497,0.808,-21.145,48.214,-120.046
2.930,0.091,-0.492,0.812,-21.374,44.870,-119.725
2.930,0.107,-0.495,0.815,-21.237,42.718,-119.542
2.940,0.100,-0.497,0.820,-21.328,41.695,-119.344
2.940,0.091,-0.488,0.817,-21.221,40.733,-118.779
2.950,0.069,-0.486,0.824,-21.038,40.260,-117.603
2.950,0.048,-0.485,0.832,-21.237,39.557,-116.000
2.950,0.052,-0.481,0.833,-21.237,39.893,-114.534
2.960,0.034,-0.483,0.849,-21.008,41.832,-112.550
2.960,0.006,-0.488,0.854,-20.519,42.504,-109.557
2.970,-0.026,-0.490,0.882,-19.435,42.122,-106.321
2.970,-0.022,-0.492,0.893,-17.740,42.702,-103.695
2.980,-0.009,-0.480,0.906,-16.168,44.427,-101.435
2.980,0.012,-0.481,0.906,-14.092,45.756,-100.427
2.990,0.030,-0.474,0.927,-11.939,46.947,-100.015
2.990,0.043,-0.473,0.929,-9.573,48.656,-100.397
2.990,0.037,-0.471,0.933,-7.191,49.145,-100.611
3.000,0.032,-0.459,0.927,-4.947,48.718,-100.702
3.000,0.044,-0.446,0.921,-2.916,49.573,-101.099
3.010,0.052,-0.448,0.908,-1.084,51.282,-101.634
3.010,0.034,-0.439,0.895,0.794,51.328,-102.046
3.020,0.002,-0.433,0.863,1.878,49.542,-101.695
3.020,-0.016,-0.424,0.846,2.672,47.740,-101.038
3.020,-0.028,-0.414,0.826,2.718,46.611,-99.954
3.030,-0.042,-0.399,0.796,2.183,44.397,-98.885
3.030,-0.056,-0.389,0.778,0.763,42.153,-97.359
3.040,-0.074,-0.370,0.754,-0.550,39.145,-95.481
3.040,-0.079,-0.360,0.740,-2.626,35.878,-93.847
3.040,-0.073,-0.345,0.731,-4.443,31.771,-91.878
3.050,-0.068,-0.344,0.704,-6.489,28.443,-90.626
3.050,-0.064,-0.341,0.717,-9.282,24.870,-89.344
3.060,-0.072,-0.333,0.711,-11.313,21.038,-87.664
3.060,-0.074,-0.329,0.712,-13.405,17.130,-86.031
3.070,-0.052,-0.325,0.703,-15.405,14.519,-84.611
3.070,-0.026,-0.323,0.713,-17.115,12.901,-83.878
3.070,-0.014,-0.325,0.723,-18.916,12.000,-84.015
3.080,0.011,-0.327,0.729,-20.580,11.817,-84.290
3.080,0.052,-0.318,0.739,-21.756,12.992,-85.542
3.090,0.078,-0.314,0.751,-23.115,14.443,-87.481
3.090,0.103,-0.317,0.758,-24.489,15.374,-89.405
3.100,0.109,-0.325,0.763,-25.740,16.809,-91.374
3.100,0.105,-0.329,0.777,-27.389,19.237,-91.832
3.100,0.095,-0.341,0.807,-28.229,23.008,-92.412
3.110,0.053,-0.340,0.819,-28.687,27.023,-91.069
3.110,-0.015,-0.346,0.841,-28.672,26.153,-86.992
3.120,-0.027,-0.343,0.852,-29.115,26.977,-82.855
3.120,0.018,-0.342,0.847,-26.687,33.282,-79.130
3.130,0.046,-0.354,0.885,-23.725,41.725,-76.443
3.130,0.048,-0.362,0.866,-22.092,49.695,-73.557
3.130,0.000,-0.347,0.872,-21.954,50.168,-69.069
3.140,-0.027,-0.362,0.880,-20.901,50.763,-64.947
3.140,-0.039,-0.359,0.907,-20.000,51.832,-60.260
3.150,-0.046,-0.375,0.896,-17.573,53.191,-55.313
3.150,-0.051,-0.361,0.890,-16.015,53.679,-50.977
3.160,-0.073,-0.353,0.877,-15.359,49.634,-46.550
3.160,-0.075,-0.346,0.867,-15.511,45.817,-42.137
3.160,-0.047,-0.353,0.870,-14.076,44.489,-38.977
3.170,-0.023,-0.345,0.854,-13.282,43.878,-36.565
3.170,-0.021,-0.344,0.843,-13.053,41.908,-34.794
3.180,-0.017,-0.340,0.836,-13.130,38.122,-33.679
3.180,-0.008,-0.344,0.836,-12.626,33.939,-33.176
3.190,-0.012,-0.341,0.860,-11.908,29.069,-32.855
3.190,-0.023,-0.347,0.869,-10.000,23.206,-32.305
3.200,-0.030,-0.346,0.865,-8.977,18.702,-31.267
3.200,-0.035,-0.351,0.865,-8.443,14.061,-29.954
3.200,-0.032,-0.352,0.882,-7.389,10.916,-28.351
3.210,-0.025,-0.354,0.886,-6.427,8.870,-26.855
3.210,-0.022,-0.353,0.886,-5.374,7.298,-25.405
3.220,-0.039,-0.353,0.890,-4.351,5.282,-23.832
3.220,-0.048,-0.354,0.895,-3.634,2.672,-21.786
3.220,-0.037,-0.355,0.897,-3.252,1.160,-19.634
3.230,-0.031,-0.357,0.907,-2.290,0.183,-17.573
3.230,-0.026,-0.358,0.917,-1.038,-0.611,-15.756
3.240,-0.018,-0.355,0.923,0.076,-1.435,-13.985
3.240,0.005,-0.357,0.927,1.084,-2.092,-12.473
3.250,0.024,-0.358,0.931,2.214,-1.939,-11.496
3.250,0.030,-0.365,0.937,3.771,-1.725,-10.641
3.250,0.037,-0.366,0.941,5.481,-1.130,-9.893
3.260,0.039,-0.366,0.942,6.916,-0.656,-9.053
3.260,0.037,-0.363,0.951,8.840,-0.824,-8.214
3.270,0.040,-0.354,0.946,10.580,-1.450,-7.664
3.270,0.049,-0.353,0.925,11.817,-1.832,-6.870
3.270,0.039,-0.342,0.908,13.069,-2.748,-6.321
3.280,0.039,-0.333,0.907,13.481,-4.855,-5.328
3.280,0.056,-0.318,0.884,12.992,-6.489,-4.794
3.290,0.069,-0.314,0.879,12.519,-6.977,-4.198
3.290,0.075,-0.314,0.879,12.031,-7.511,-3.695
3.290,0.085,-0.315,0.858,11.420,-9.084,-3.450
3.300,0.099,-0.309,0.864,10.641,-10.473,-3.252
3.300,0.111,-0.310,0.861,9.756,-10.702,-3.008
3.310,0.121,-0.301,0.856,8.702,-11.221,-2.550
3.310,0.126,-0.305,0.858,7.893,-10.794,-2.015
3.310,0.134,-0.306,0.864,6.992,-9.893,-1.344
3.320,0.134,-0.307,0.855,6.382,-8.656,-0.489
3.320,0.140,-0.301,0.857,5.389,-6.885,0.580
3.330,0.154,-0.301,0.854,4.580,-5.191,1.450
3.330,0.155,-0.301,0.859,3.725,-2.962,2.412
3.330,0.156,-0.303,0.864,3.389,-0.656,3.359
3.340,0.158,-0.311,0.876,2.977,1.237,4.229
3.340,0.169,-0.304,0.876,2.763,3.725,5.115
3.350,0.175,-0.301,0.892,2.672,5.603,5.893
3.350,0.181,-0.300,0.879,2.641,7.588,6.168
3.350,0.172,-0.311,0.888,3.374,8.794,6.733
3.360,0.174,-0.305,0.878,4.412,8.794,6.779
3.360,0.171,-0.314,0.887,5.084,8.824,6.977
3.360,0.171,-0.311,0.879,5.725,8.595,6.809
3.370,0.173,-0.314,0.873,6.550,7.725,6.824
3.370,0.172,-0.307,0.880,6.824,6.534,6.427
3.380,0.180,-0.308,0.870,7.282,4.931,6.031
3.380,0.180,-0.298,0.861,7.664,3.282,5.603
3.380,0.178,-0.297,0.851,7.618,1.344,4.931
3.390,0.175,-0.305,0.843,7.115,-1.099,4.672
3.390,0.180,-0.298,0.847,6.366,-2.656,4.626
3.400,0.177,-0.291,0.836,5.740,-3.435,4.580
3.400,0.194,-0.287,0.837,4.672,-3.847,4.779
3.400,0.197,-0.292,0.837,4.000,-3.634,4.763
3.410,0.201,-0.292,0.836,3.267,-3.374,4.702
3.410,0.207,-0.288,0.840,2.718,-2.565,4.458
3.420,0.200,-0.294,0.847,2.229,-2.229,4.427
3.420,0.209,-0.296,0.846,2.031,-1.832,4.061
3.420,0.213,-0.292,0.851,1.771,-1.450,3.847
3.430,0.219,-0.289,0.854,1.618,-0.076,3.695
3.430,0.225,-0.293,0.853,1.786,1.756,3.634
3.430,0.219,-0.305,0.861,2.061,3.313,3.527
3.440,0.214,-0.295,0.837,2.214,4.489,4.015
3.440,0.186,-0.299,0.846,2.397,4.962,4.366
3.450,0.182,-0.296,0.834,2.305,5.435,4.718
3.450,0.188,-0.296,0.841,2.366,6.046,5.160
3.450,0.198,-0.297,0.835,1.908,6.366,5.298
3.460,0.183,-0.293,0.842,1.618,6.870,5.328
3.460,0.191,-0.296,0.845,1.359,6.672,5.557
3.470,0.185,-0.300,0.836,1.496,5.786,5.573
3.470,0.176,-0.294,0.834,1.038,4.641,5.771
3.470,0.178,-0.293,0.843,0.885,3.359,5.847
3.480,0.184,-0.299,0.840,0.840,3.176,5.542
3.480,0.187,-0.294,0.837,0.794,3.099,5.649
3.480,0.182,-0.299,0.856,0.443,2.763,5.802
3.490,0.186,-0.293,0.850,0.672,3.435,5.725
3.490,0.187,-0.296,0.845,0.550,3.618,5.725
3.500,0.191,-0.294,0.844,1.069,3.496,5.420
3.500,0.190,-0.297,0.852,1.435,3.985,5.511
3.500,0.180,-0.296,0.841,1.573,3.664,5.817
3.510,0.174,-0.289,0.838,1.557,2.885,6.290
3.510,0.180,-0.296,0.833,1.053,3.557,6.534
3.510,0.182,-0.295,0.829,0.336,3.618,6.656
3.520,0.163,-0.302,0.816,0.794,4.015,7.282
3.520,0.157,-0.297,0.822,0.519,2.305,7.893
3.530,0.156,-0.293,0.812,-0.260,1.328,8.229
3.530,0.167,-0.284,0.804,-1.221,1.130,9.160
3.530,0.183,-0.279,0.791,-2.824,1.313,9.908
3.540,0.184,-0.284,0.789,-4.870,2.092,10.275
3.540,0.179,-0.284,0.778,-6.473,2.580,10.565
3.550,0.161,-0.281,0.792,-6.824,2.000,11.084
3.550,0.176,-0.275,0.794,-6.916,2.015,10.962
3.550,0.174,-0.277,0.798,-7.954,-0.275,10.962
3.560,0.177,-0.287,0.808,-8.595,-1.282,10.992
3.560,0.202,-0.283,0.802,-8.809,-0.626,10.809
3.570,0.209,-0.287,0.805,-8.336,0.687,10.183
3.570,0.185,-0.288,0.807,-8.595,0.031,10.229
3.570,0.193,-0.280,0.812,-9.802,0.229,10.443
3.580,0.214,-0.274,0.800,-11.420,2.351,10.168
3.580,0.219,-0.276,0.799,-12.458,5.099,10.000
3.590,0.206,-0.283,0.798,-13.282,6.733,9.649
3.590,0.217,-0.280,0.791,-13.725,7.664,9.298
3.590,0.200,-0.276,0.783,-13.695,7.695,8.992
3.600,0.199,-0.279,0.800,-13.954,7.832,7.893
3.600,0.219,-0.274,0.791,-13.802,10.565,6.931
3.610,0.232,-0.281,0.784,-13.252,15.206,6.153
3.610,0.229,-0.284,0.796,-13.176,19.252,5.038
3.610,0.188,-0.291,0.807,-12.534,19.573,4.748
3.620,0.158,-0.290,0.814,-11.176,17.191,4.702
3.620,0.144,-0.297,0.837,-10.076,13.710,4.229
3.630,0.155,-0.302,0.835,-9.191,10.290,3.863
3.630,0.160,-0.310,0.865,-8.183,7.771,3.267
3.630,0.164,-0.316,0.856,-7.328,6.244,3.038
3.640,0.156,-0.307,0.873,-6.626,3.313,2.656
3.640,0.149,-0.310,0.881,-5.252,-0.550,2.046
3.650,0.161,-0.322,0.895,-3.832,-5.267,0.748
3.650,0.166,-0.316,0.905,-2.275,-8.672,0.229
3.650,0.195,-0.310,0.893,-1.252,-9.939,0.076
3.660,0.209,-0.309,0.890,-1.115,-8.779,-0.244
3.660,0.195,-0.311,0.884,0.015,-8.534,-0.977
3.670,0.197,-0.321,0.895,0.931,-9.496,-1.191
3.670,0.204,-0.315,0.885,1.389,-9.298,-1.634
3.670,0.215,-0.315,0.877,1.847,-7.038,-2.000
3.680,0.215,-0.312,0.867,2.092,-5.359,-2.305
3.680,0.207,-0.309,0.854,2.244,-3.863,-2.458
3.690,0.190,-0.303,0.852,2.412,-2.962,-2.305
3.690,0.190,-0.304,0.837,1.756,-1.710,-1.939
3.690,0.193,-0.301,0.832,1.298,-0.122,-1.908
3.700,0.190,-0.296,0.823,0.595,1.908,-1.466
3.700,0.178,-0.299,0.816,-0.168,3.374,-1.282
3.710,0.173,-0.298,0.821,-0.916,3.878,-0.931
3.710,0.164,-0.298,0.811,-1.405,3.924,-0.962
3.710,0.161,-0.302,0.822,-1.847,2.962,-1.008
3.720,0.156,-0.300,0.820,-2.565,2.076,-1.176
3.720,0.162,-0.309,0.826,-3.252,1.023,-1.237
3.730,0.152,-0.302,0.819,-3.908,0.122,-1.160
3.730,0.147,-0.304,0.827,-4.626,-0.763,-1.099
3.730,0.151,-0.306,0.835,-4.962,-1.802,-1.145
3.740,0.156,-0.309,0.848,-5.130,-2.794,-0.962
3.740,0.155,-0.313,0.858,-5.237,-4.046,-0.901
3.750,0.162,-0.322,0.867,-5.099,-4.733,-1.267
3.750,0.163,-0.319,0.877,-5.008,-5.252,-1.069
3.750,0.166,-0.326,0.875,-4.550,-5.771,-1.191
3.760,0.160,-0.328,0.888,-3.771,-6.580,-1.115
3.760,0.166,-0.330,0.891,-3.130,-7.573,-0.855
3.770,0.166,-0.324,0.904,-2.244,-7.954,-0.824
3.770,0.186,-0.327,0.896,-1.527,-8.137,-1.084
3.780,0.192,-0.328,0.897,-0.504,-7.679,-1.603
3.780,0.192,-0.333,0.897,0.718,-7.466,-1.771
3.780,0.191,-0.330,0.906,1.954,-7.221,-2.107
3.790,0.184,-0.329,0.889,2.794,-7.298,-2.229
3.790,0.177,-0.321,0.874,3.374,-7.267,-2.061
3.800,0.171,-0.322,0.869,3.908,-7.023,-1.481
3.800,0.179,-0.315,0.849,3.985,-5.969,-1.038
3.800,0.171,-0.302,0.854,2.931,-5.023,-0.443
3.810,0.171,-0.304,0.852,2.427,-4.779,-0.153
3.810,0.168,-0.301,0.849,2.076,-4.351,0.336
3.820,0.181,-0.305,0.847,1.313,-3.679,0.427
3.820,0.189,-0.298,0.825,0.519,-2.290,0.275
3.820,0.194,-0.298,0.843,-0.061,-1.282,0.168
3.830,0.193,-0.306,0.837,-0.931,-0.534,0.244
3.830,0.186,-0.298,0.850,-1.160,0.458,0.198
3.830,0.182,-0.311,0.847,-1.634,0.763,0.336
3.840,0.179,-0.312,0.849,-2.076,0.412,0.519
3.840,0.179,-0.308,0.853,-1.878,0.107,0.702
3.850,0.178,-0.315,0.853,-1.893,-0.137,0.550
3.850,0.178,-0.311,0.859,-1.527,-1.542,0.748
3.850,0.177,-0.318,0.876,-1.069,-1.832,0.550
3.860,0.181,-0.320,0.871,-0.550,-2.046,0.427
3.860,0.178,-0.316,0.871,0.580,-2.183,0.595
3.870,0.172,-0.317,0.866,1.191,-2.626,0.443
3.870,0.174,-0.313,0.868,2.015,-3.191,0.275
3.870,0.174,-0.313,0.855,2.244,-3.557,0.489
3.880,0.175,-0.311,0.851,2.550,-3.542,0.885
3.880,0.177,-0.304,0.842,2.687,-2.962,1.084
3.890,0.182,-0.301,0.838,2.351,-2.504,1.206
3.890,0.189,-0.299,0.833,2.076,-2.031,1.069
3.890,0.183,-0.302,0.826,1.511,-1.679,1.038
3.900,0.191,-0.299,0.823,0.977,-1.099,0.992
3.900,0.191,-0.302,0.825,0.489,-1.176,0.824
3.910,0.196,-0.295,0.823,-0.015,-0.977,0.534
3.910,0.188,-0.300,0.818,-0.275,-0.885,0.702
3.910,0.184,-0.306,0.837,-0.366,-1.542,0.412
3.920,0.191,-0.300,0.829,-0.427,-1.847,0.489
3.920,0.188,-0.298,0.837,-0.473,-2.244,0.168
3.930,0.189,-0.300,0.838,0.015,-2.611,0.031
3.930,0.190,-0.302,0.838,0.702,-3.603,-0.305
3.930,0.198,-0.298,0.851,1.191,-4.901,-0.382
3.940,0.204,-0.304,0.855,1.511,-6.321,-0.885
3.940,0.192,-0.298,0.825,1.206,-5.725,-1.084
3.950,0.180,-0.298,0.825,0.061,-5.573,-0.824
3.950,0.187,-0.296,0.831,-0.580,-5.557,-0.595
3.950,0.185,-0.301,0.838,-0.702,-5.298,-0.656
3.960,0.187,-0.298,0.842,-0.824,-5.130,-0.656
3.960,0.186,-0.299,0.841,-1.328,-4.748,-0.595
3.970,0.184,-0.302,0.843,-1.679,-4.611,-0.565
3.970,0.184,-0.304,0.841,-1.573,-4.198,-0.473
3.970,0.191,-0.293,0.836,-1.679,-3.435,-0.595
3.980,0.190,-0.297,0.849,-1.603,-3.344,-0.672
3.980,0.192,-0.299,0.848,-1.450,-2.198,-0.794
3.990,0.194,-0.300,0.862,-1.084,-0.916,-0.779
3.990,0.189,-0.302,0.861,-0.656,0.290,-0.870
3.990,0.175,-0.300,0.857,-0.336,0.427,-0.855
4.000,0.177,-0.300,0.842,-0.229,0.763,-0.794
4.000,0.167,-0.305,0.847,0.076,0.748,-0.656
4.010,0.177,-0.300,0.844,0.244,0.977,-0.534
4.010,0.159,-0.299,0.834,0.229,0.382,-0.229
4.010,0.160,-0.308,0.839,0.015,0.061,-0.107
4.020,0.162,-0.297,0.823,-0.305,-0.076,0.153
4.020,0.162,-0.299,0.825,-0.519,-0.351,0.397
4.030,0.154,-0.291,0.823,-0.992,-1.115,0.550
4.030,0.154,-0.290,0.828,-1.664,-1.313,0.916
4.030,0.162,-0.297,0.835,-2.122,-1.282,1.038
4.040,0.176,-0.296,0.838,-2.351,-1.084,1.221
4.040,0.178,-0.299,0.830,-2.458,-0.672,1.053
4.050,0.179,-0.299,0.841,-2.626,-0.595,1.130
4.050,0.187,-0.301,0.851,-2.351,-0.137,0.992
4.050,0.189,-0.301,0.860,-1.985,0.305,0.901
4.060,0.191,-0.304,0.863,-1.908,0.458,0.840
4.060,0.196,-0.301,0.863,-1.130,0.779,0.580
4.070,0.184,-0.313,0.865,-0.748,0.779,0.260
4.070,0.173,-0.305,0.866,-0.611,0.489,0.702
4.070,0.170,-0.310,0.870,-0.504,0.015,0.855
4.080,0.165,-0.307,0.870,-0.107,0.000,1.084
4.080,0.170,-0.302,0.863,0.183,-0.214,1.267
4.080,0.164,-0.304,0.863,0.397,-0.031,1.603
