Time,acce_x,acce_y,acce_z,gyro_x,gyro_y,gyro_z
0.0,560.0,-1984.0,16632.0,-348.0,2.0,12536.0
0.0,560.0,-1984.0,16632.0,-348.0,2.0,12536.0
0.0,560.0,-1984.0,16632.0,-348.0,2.0,12536.0
0.0,560.0,-1984.0,16632.0,-348.0,2.0,12536.0
0.0,560.0,-1984.0,16632.0,-348.0,2.0,12536.0
0.0,560.0,-1984.0,16632.0,-348.0,2.0,12536.0
0.0,560.0,-1984.0,16632.0,-348.0,2.0,12536.0
0.0,560.0,-1984.0,16632.0,-348.0,2.0,12536.0
0.0,560.0,-1984.0,16632.0,-348.0,2.0,12536.0
0.0,560.0,-1984.0,16632.0,-348.0,2.0,12536.0
0.0,560.0,-1984.0,16632.0,-348.0,2.0,12536.0
0.0,560.0,-1984.0,16632.0,-348.0,2.0,12536.0
0.0,560.0,-1984.0,16632.0,-348.0,2.0,12536.0
0.0,560.0,-1984.0,16632.0,-348.0,2.0,12536.0
0.0,560.0,-1984.0,16632.0,-348.0,2.0,12536.0
0.0,560.0,-1984.0,16632.0,-348.0,2.0,12536.0
0.0,560.0,-1984.0,16632.0,-348.0,2.0,12536.0
0.0,560.0,-1984.0,16632.0,-348.0,2.0,12536.0
0.0,560.0,-1984.0,16632.0,-348.0,2.0,12536.0
0.0,560.0,-1984.0,16632.0,-348.0,2.0,12536.0
0.0,560.0,-1984.0,16632.0,-348.0,2.0,12536.0
0.0,560.0,-1984.0,16632.0,-348.0,2.0,12536.0
0.0,560.0,-1984.0,16632.0,-348.0,2.0,12536.0
0.0,560.0,-1984.0,16632.0,-348.0,2.0,12536.0
0.0,560.0,-1984.0,16632.0,-348.0,2.0,12536.0
0.0,560.0,-1984.0,16632.0,-348.0,2.0,12536.0
0.0,560.0,-1984.0,16632.0,-348.0,2.0,12536.0
0.0,560.0,-1984.0,16632.0,-348.0,2.0,12536.0
0.0,560.0,-1984.0,16632.0,-348.0,2.0,12536.0
0.0,560.0,-1984.0,16632.0,-348.0,2.0,12536.0
0.0,560.0,-1984.0,16632.0,-348.0,2.0,12536.0
0.0,560.0,-1984.0,16632.0,-348.0,2.0,12536.0
0.0,560.0,-1984.0,16632.0,-348.0,2.0,12536.0
0.0,560.0,-1984.0,16632.0,-348.0,2.0,12536.0
0.0,560.0,-1984.0,16632.0,-348.0,2.0,12536.0
0.0,560.0,-1984.0,16632.0,-348.0,2.0,12536.0
0.0,560.0,-1984.0,16632.0,-348.0,2.0,12536.0
0.0,560.0,-1984.0,16632.0,-348.0,2.0,12536.0
0.0,560.0,-1984.0,16632.0,-348.0,2.0,12536.0
0.0,560.0,-1984.0,16632.0,-348.0,2.0,12536.0
0.0,560.0,-1984.0,16632.0,-348.0,2.0,12536.0
0.0,560.0,-1984.0,16632.0,-348.0,2.0,12536.0
0.0,560.0,-1984.0,16632.0,-348.0,2.0,12536.0
0.0,560.0,-1984.0,16632.0,-348.0,2.0,12536.0
0.0,560.0,-1984.0,16632.0,-348.0,2.0,12536.0
0.0,560.0,-1984.0,16632.0,-348.0,2.0,12536.0
0.0,560.0,-1984.0,16632.0,-348.0,2.0,12536.0
0.0,560.0,-1984.0,16632.0,-348.0,2.0,12536.0
0.0,560.0,-1984.0,16632.0,-348.0,2.0,12536.0
0.0,560.0,-1984.0,16632.0,-348.0,2.0,12536.0
0.0,560.0,-1984.0,16632.0,-348.0,2.0,12536.0
0.01,504.0,-1888.0,16512.0,-335.0,1.0,-1800.0
0.02,536.0,-1912.0,16600.0,-377.0,2.0,6392.0
0.03,428.0,-1944.0,16760.0,-379.0,1.0,-21256.0
0.04,332.0,-1804.0,16684.0,-357.0,1.0,19704.0
0.05,464.0,-1760.0,16604.0,-444.0,1.0,-12039.0
0.06,344.0,-1852.0,16608.0,-554.0,1.0,22776.0
0.07,384.0,-1924.0,16660.0,-604.0,1.0,-32520.0
0.08,352.0,-2224.0,16764.0,-573.0,1.0,24823.0
0.09,160.0,-2428.0,16612.0,-445.0,0.0,-24330.0
0.1,228.0,-2328.0,16692.0,-431.0,0.0,-6922.0
0.11,56.0,-2280.0,16772.0,-362.0,0.0,14583.0
0.12,-16.0,-2280.0,16696.0,-314.0,-1.0,-3849.0
0.13,148.0,-2116.0,16932.0,-307.0,-256.0,-27401.0
0.14,428.0,-1984.0,16876.0,-305.0,-255.0,-21256.0
0.15,488.0,-1896.0,16892.0,-353.0,-255.0,-5896.0
0.16,372.0,-1836.0,16812.0,-421.0,-255.0,29944.0
0.17,400.0,-2020.0,16816.0,-486.0,-255.0,-28424.0
0.18,460.0,-2052.0,16888.0,-473.0,-255.0,-13065.0
0.19,480.0,-2372.0,16980.0,-429.0,-255.0,-7946.0
0.2,336.0,-2244.0,16808.0,-346.0,1.0,20727.0
0.21,404.0,-2200.0,16756.0,-246.0,1.0,-27401.0
0.22,480.0,-2156.0,16708.0,-223.0,1.0,-7945.0
0.23,376.0,-1980.0,16520.0,-256.0,1.0,30968.0
0.24,364.0,-2016.0,16620.0,-294.0,1.0,27896.0
0.25,504.0,-2032.0,16668.0,-375.0,1.0,-1800.0
0.26,412.0,-1892.0,16612.0,-463.0,1.0,-25352.0
0.27,144.0,-1780.0,16704.0,-498.0,0.0,-28423.0
0.28,108.0,-1952.0,16692.0,-582.0,0.0,27896.0
0.29,72.0,-2340.0,16776.0,-544.0,-256.0,18678.0
0.3,228.0,-2252.0,16668.0,-387.0,-256.0,-6921.0
0.31,504.0,-2260.0,16728.0,-329.0,-255.0,-1801.0
0.32,580.0,-2168.0,16812.0,-377.0,-254.0,17655.0
0.33,408.0,-1792.0,16896.0,-388.0,-255.0,-26375.0
0.34,676.0,-1940.0,16624.0,-466.0,-254.0,-23304.0
0.35,868.0,-2152.0,16780.0,-580.0,-253.0,25847.0
0.36,588.0,-2112.0,16780.0,-599.0,2.0,19703.0
0.37,652.0,-2240.0,16748.0,-599.0,2.0,-29449.0
0.38,468.0,-2460.0,16764.0,-589.0,257.0,-11018.0
0.39,228.0,-2516.0,16880.0,-497.0,256.0,-6922.0
0.4,0.0,-2484.0,16940.0,-377.0,256.0,246.0
0.41,-188.0,-2424.0,16872.0,-249.0,255.0,17654.0
0.42,-276.0,-2292.0,16756.0,-226.0,-2.0,-4873.0
0.43,-188.0,-2240.0,16692.0,-296.0,-1.0,17655.0
0.44,40.0,-2280.0,16840.0,-336.0,-512.0,10487.0
0.45,264.0,-2112.0,16820.0,-387.0,-255.0,2295.0
0.46,168.0,-2064.0,16732.0,-446.0,-256.0,-22281.0
0.47,144.0,-2144.0,16812.0,-465.0,-256.0,-28425.0
0.48,148.0,-2312.0,16920.0,-477.0,-256.0,-27402.0
0.49,172.0,-2296.0,17152.0,-381.0,-256.0,-21257.0
0.5,372.0,-2572.0,16932.0,-249.0,-255.0,29941.0
0.51,428.0,-2352.0,16948.0,-191.0,1.0,-21258.0
0.52,160.0,-2132.0,16780.0,-205.0,256.0,-24329.0
0.53,-200.0,-1956.0,16756.0,-325.0,511.0,14584.0
0.54,-588.0,-2124.0,16824.0,-397.0,253.0,-19209.0
0.55,-452.0,-1880.0,16716.0,-441.0,-2.0,15608.0
0.56,-192.0,-2076.0,16912.0,-494.0,-257.0,16631.0
0.57,164.0,-2064.0,16928.0,-501.0,-512.0,-23305.0
0.58,40.0,-1996.0,17140.0,-514.0,-256.0,10488.0
0.59,56.0,-2364.0,17112.0,-536.0,0.0,14582.0
0.6,-880.0,-2104.0,17668.0,-586.0,252.0,-28425.0
0.61,-848.0,-2248.0,17408.0,-371.0,508.0,-20233.0
0.62,-1384.0,-2516.0,17540.0,-341.0,506.0,-26378.0
0.63,-1776.0,-2792.0,17436.0,-242.0,505.0,4341.0
0.64,-2128.0,-2692.0,17408.0,-132.0,759.0,-20235.0
0.65,-2548.0,-2588.0,17304.0,-32.0,502.0,3317.0
0.66,-2544.0,-2292.0,16852.0,-48.0,502.0,4343.0
0.67,-2656.0,-2052.0,16688.0,-104.0,501.0,-24329.0
0.68,-2724.0,-1876.0,16576.0,-224.0,501.0,23800.0
0.69,-3240.0,-1676.0,16360.0,-382.0,499.0,22777.0
0.7,-3540.0,-1444.0,16608.0,-656.0,498.0,11514.0
0.71,-3832.0,-1324.0,16548.0,-925.0,753.0,2298.0
0.72,-3892.0,-1340.0,16668.0,-1144.0,752.0,-13062.0
0.73,-4224.0,-1676.0,16840.0,-1324.0,751.0,-32519.0
0.74,-4012.0,-2212.0,16924.0,-1347.0,752.0,21751.0
0.75,-4080.0,-2432.0,17024.0,-1280.0,752.0,4342.0
0.76,-4428.0,-2572.0,17340.0,-902.0,238.0,-19211.0
0.77,-4372.0,-2532.0,17344.0,-420.0,-274.0,-4874.0
0.78,-4440.0,-2372.0,16968.0,-94.0,-786.0,-22282.0
0.79,-2896.0,-1852.0,18316.0,710.0,-780.0,-20232.0
0.8,-4136.0,-1808.0,16940.0,-344.0,-273.0,-9992.0
0.81,-3532.0,-1592.0,17568.0,-523.0,-14.0,13561.0
0.82,-3728.0,-2036.0,17204.0,-527.0,241.0,28920.0
0.83,-3904.0,-2432.0,17388.0,-666.0,752.0,-16138.0
0.84,-4296.0,-2676.0,17112.0,-612.0,495.0,14581.0
0.85,-4324.0,-2820.0,17136.0,-427.0,495.0,7412.0
0.86,-4704.0,-2952.0,17092.0,-403.0,-19.0,-24332.0
0.87,-4872.0,-2808.0,17052.0,-169.0,-788.0,-1803.0
0.88,-4560.0,-2784.0,17088.0,-34.0,-1810.0,12533.0
0.89,-4088.0,-2884.0,16840.0,-41.0,-2576.0,2292.0
0.9,-3280.0,-2584.0,16708.0,-213.0,-2829.0,12533.0
0.91,-2840.0,-2556.0,16484.0,-394.0,-2572.0,-5898.0
0.92,-2672.0,-2824.0,16688.0,-415.0,-2571.0,-28428.0
0.93,-2600.0,-3108.0,16904.0,-367.0,-2059.0,-9997.0
0.94,-2780.0,-3296.0,17052.0,-318.0,-2059.0,9459.0
0.95,-2404.0,-3508.0,16952.0,-215.0,-2058.0,-25358.0
0.96,-2540.0,-3616.0,16976.0,-69.0,-2058.0,5361.0
0.97,-2852.0,-3792.0,16908.0,96.0,-2316.0,-8975.0
0.98,-2704.0,-3792.0,17060.0,307.0,-2315.0,28913.0
0.99,-2304.0,-3680.0,17040.0,436.0,-2569.0,241.0
1.0,-2108.0,-3988.0,17164.0,484.0,-2825.0,-15120.0
1.01,-2028.0,-3760.0,16828.0,437.0,-3336.0,5361.0
1.02,-1268.0,-3616.0,16896.0,484.0,-3333.0,3313.0
1.03,-976.0,-3432.0,16620.0,274.0,-3332.0,12530.0
1.04,-760.0,-3712.0,16652.0,424.0,-3075.0,2289.0
1.05,-792.0,-3644.0,16080.0,391.0,-2820.0,-5903.0
1.06,-604.0,-3916.0,16548.0,589.0,-2819.0,-23312.0
1.07,-340.0,-4064.0,17168.0,751.0,-2818.0,-21264.0
1.08,-248.0,-3980.0,17468.0,833.0,-3073.0,2288.0
1.09,440.0,-4160.0,16856.0,1169.0,-3839.0,-18193.0
1.1,1184.0,-3800.0,17524.0,1281.0,-3580.0,-24335.0
1.11,1568.0,-3076.0,16556.0,1236.0,-3066.0,8435.0
1.12,1548.0,-3004.0,16772.0,1281.0,-2298.0,3316.0
1.13,812.0,-2816.0,16252.0,989.0,-1789.0,11509.0
1.14,180.0,-3032.0,16324.0,867.0,-1536.0,-19212.0
1.15,-340.0,-3232.0,16312.0,657.0,-1794.0,-21261.0
1.16,-300.0,-3612.0,16400.0,521.0,-2050.0,-11023.0
1.17,8.0,-3860.0,16236.0,577.0,-2816.0,2288.0
1.18,116.0,-3896.0,16464.0,590.0,-3072.0,29936.0
1.19,880.0,-4304.0,16508.0,661.0,-3069.0,28911.0
1.2,1972.0,-4256.0,16740.0,837.0,-2809.0,-19217.0
1.21,2420.0,-4260.0,16680.0,1046.0,-2039.0,29935.0
1.22,2392.0,-3700.0,16604.0,1190.0,-1015.0,22769.0
1.23,1668.0,-3068.0,16412.0,1210.0,-250.0,-31500.0
1.24,1148.0,-2728.0,16172.0,840.0,260.0,31989.0
1.25,-1008.0,-2072.0,11252.0,-274.0,-260.0,4343.0
1.26,-1976.0,-5616.0,15600.0,1539.0,-264.0,18666.0
1.27,-240.0,-4188.0,14496.0,22.0,2559.0,4335.0
1.28,-1188.0,-2872.0,16916.0,-176.0,1019.0,23796.0
1.29,-1108.0,-3792.0,17228.0,-109.0,-5.0,-21263.0
1.3,-1360.0,-4408.0,16456.0,-276.0,-1286.0,-20242.0
1.31,-508.0,-4676.0,16756.0,-206.0,-2050.0,1261.0
1.32,864.0,-4608.0,16712.0,759.0,-2813.0,24814.0
1.33,1500.0,-4124.0,16916.0,1182.0,-2043.0,-8977.0
1.34,1156.0,-3536.0,17012.0,1141.0,-1020.0,-31502.0
1.35,892.0,-3636.0,16556.0,650.0,3.0,31985.0
1.36,500.0,-3288.0,16204.0,199.0,513.0,-2829.0
1.37,-320.0,-3292.0,15564.0,-94.0,1278.0,-16141.0
1.38,-1192.0,-2944.0,15612.0,-474.0,1787.0,22772.0
1.39,-1656.0,-3232.0,15656.0,-928.0,1529.0,-30477.0
1.4,-1596.0,-3972.0,16288.0,-986.0,1017.0,-15120.0
1.41,-1500.0,-4344.0,16328.0,-948.0,506.0,9455.0
1.42,-1236.0,-4568.0,16144.0,-941.0,251.0,11502.0
1.43,-1628.0,-4552.0,15580.0,-888.0,249.0,-23314.0
1.44,-2232.0,-5352.0,18108.0,336.0,-265.0,18667.0
1.45,-1536.0,-3996.0,14636.0,-219.0,2298.0,240.0
1.46,-3656.0,-1112.0,17180.0,-1021.0,-1039.0,-18181.0
1.47,-4868.0,-4152.0,14064.0,-2230.0,-2580.0,-785.0
1.48,-4560.0,-3716.0,15812.0,-2201.0,-4882.0,12529.0
1.49,-1976.0,-4768.0,15864.0,-840.0,-6408.0,18669.0
1.5,-728.0,-4688.0,15764.0,66.0,-6403.0,10477.0
1.51,360.0,-4324.0,15436.0,-182.0,-5375.0,26863.0
1.52,432.0,-4136.0,15368.0,-233.0,-3839.0,-20241.0
1.53,-428.0,-3312.0,15220.0,-605.0,-3330.0,21747.0
1.54,-540.0,-3404.0,15500.0,-1183.0,-3331.0,-6926.0
1.55,-244.0,-3832.0,15920.0,-1313.0,-3841.0,3313.0
1.56,168.0,-3992.0,16128.0,-1127.0,-4608.0,-22288.0
1.57,488.0,-4304.0,15940.0,-981.0,-4607.0,-5905.0
1.58,940.0,-4308.0,15692.0,-890.0,-4093.0,-21265.0
1.59,452.0,-4404.0,15628.0,-666.0,-4095.0,-15122.0
1.6,632.0,-4464.0,14804.0,2691.0,-5374.0,30958.0
1.61,2340.0,-3660.0,15108.0,-1535.0,-3063.0,9457.0
1.62,224.0,-4192.0,16044.0,-657.0,-3840.0,-7953.0
1.63,540.0,-4328.0,16008.0,-809.0,-3838.0,7407.0
1.64,844.0,-4580.0,15228.0,-1022.0,-3581.0,19694.0
1.65,1112.0,-4540.0,14268.0,-897.0,-3324.0,22766.0
1.66,-80.0,-4364.0,14280.0,-1478.0,-1793.0,-20242.0
1.67,-1084.0,-4332.0,13916.0,-2005.0,-1285.0,-15121.0
1.68,-2288.0,-4672.0,14228.0,-2645.0,-2057.0,4333.0
1.69,-2580.0,-5312.0,14844.0,-2768.0,-3595.0,-4885.0
1.7,-1844.0,-6540.0,15312.0,-2475.0,-5896.0,-13082.0
1.71,-1068.0,-7084.0,15884.0,-2079.0,-7941.0,-11036.0
1.72,1328.0,-8316.0,15836.0,-1249.0,-9979.0,12511.0
1.73,3272.0,-8872.0,15744.0,-298.0,-9972.0,-14115.0
1.74,4208.0,-8328.0,15556.0,426.0,-9712.0,28895.0
1.75,4320.0,-6648.0,15524.0,230.0,-9200.0,-7962.0
1.76,4908.0,-6144.0,15564.0,58.0,-7917.0,11496.0
1.77,5360.0,-5928.0,15800.0,-11.0,-6636.0,-3864.0
1.78,4780.0,-5828.0,16688.0,-384.0,-5358.0,-21271.0
1.79,4216.0,-5580.0,15808.0,-256.0,-4848.0,30954.0
1.8,3408.0,-5340.0,15744.0,-737.0,-4851.0,20715.0
1.81,3212.0,-5612.0,15720.0,-1170.0,-5108.0,-29462.0
1.82,3620.0,-6568.0,15948.0,-1240.0,-5874.0,9446.0
1.83,4080.0,-7236.0,16364.0,-793.0,-6385.0,-3869.0
1.84,4560.0,-7080.0,16968.0,15.0,-6895.0,-12060.0
1.85,5012.0,-6568.0,16988.0,531.0,-7405.0,-27418.0
1.86,5908.0,-5984.0,16896.0,616.0,-7657.0,5352.0
1.87,6596.0,-5696.0,16812.0,620.0,-7655.0,-15127.0
1.88,7072.0,-5464.0,17068.0,641.0,-7653.0,-24342.0
1.89,7356.0,-5376.0,16612.0,686.0,-7140.0,-17173.0
1.9,7980.0,-5392.0,16440.0,884.0,-6369.0,11498.0
1.91,7948.0,-4472.0,16480.0,807.0,-5345.0,3310.0
1.92,6988.0,-3968.0,15912.0,553.0,-4325.0,19696.0
1.93,6220.0,-4124.0,16068.0,141.0,-3560.0,19695.0
1.94,5532.0,-4508.0,15432.0,-599.0,-3051.0,-25362.0
1.95,4444.0,-4536.0,14968.0,-1054.0,-2543.0,23790.0
1.96,3332.0,-4944.0,15008.0,-1624.0,-3059.0,1260.0
1.97,3116.0,-5960.0,14864.0,-2144.0,-3828.0,11496.0
1.98,3448.0,-7192.0,14656.0,-1074.0,-4851.0,30947.0
1.99,3868.0,-7276.0,15052.0,307.0,-6129.0,7395.0
2.0,4536.0,-7532.0,15020.0,1177.0,-7919.0,-18206.0
2.01,6344.0,-7572.0,14400.0,2439.0,-9448.0,-14110.0
2.02,8552.0,-6456.0,14772.0,3465.0,-10463.0,26854.0
2.03,10860.0,-5044.0,14064.0,3499.0,-10198.0,27884.0
2.04,12404.0,-4052.0,13700.0,2721.0,-9424.0,29936.0
2.05,13856.0,-3844.0,13196.0,2483.0,-8650.0,8432.0
2.06,15540.0,-3088.0,13148.0,2196.0,-7876.0,-19213.0
2.07,17008.0,-2004.0,12804.0,1666.0,-6846.0,28920.0
2.08,18472.0,-1556.0,12516.0,1014.0,-5304.0,10489.0
2.09,19364.0,-1212.0,12468.0,336.0,-4021.0,-23301.0
2.1,19940.0,-808.0,12356.0,-120.0,-2227.0,-6916.0
2.11,20172.0,-992.0,12360.0,-492.0,-690.0,-13060.0
2.12,20156.0,-664.0,12596.0,-499.0,846.0,-17155.0
2.13,20100.0,164.0,12052.0,-545.0,1870.0,-31744.0
2.14,19604.0,752.0,12196.0,-1065.0,3148.0,-27646.0
2.15,18848.0,764.0,11856.0,-1785.0,3913.0,-24574.0
2.16,17704.0,280.0,11812.0,-2509.0,4421.0,10241.0
2.17,16596.0,-480.0,12284.0,-3150.0,4672.0,-11010.0
2.18,15380.0,-1524.0,12236.0,-3481.0,4668.0,5370.0
2.19,14296.0,-1840.0,12400.0,-3681.0,4663.0,-9992.0
2.2,13448.0,-1952.0,12552.0,-4002.0,4404.0,-30472.0
2.21,12672.0,-2072.0,12972.0,-4628.0,4401.0,-32521.0
2.22,12376.0,-3104.0,13372.0,-4911.0,4656.0,22771.0
2.23,12036.0,-3660.0,13608.0,-5141.0,5167.0,1265.0
2.24,11516.0,-4728.0,13504.0,-5609.0,5676.0,-787.0
2.25,10680.0,-5712.0,13636.0,-5990.0,6185.0,-18199.0
2.26,9892.0,-6372.0,13848.0,-6298.0,6950.0,-23321.0
2.27,8832.0,-7116.0,13972.0,-6791.0,7714.0,-32540.0
2.28,7048.0,-8168.0,14316.0,-7110.0,8219.0,-30496.0
2.29,5108.0,-8940.0,14716.0,-6905.0,8723.0,-2851.0
2.3,3440.0,-9624.0,15232.0,-6227.0,8461.0,28890.0
2.31,1836.0,-10148.0,15888.0,-5274.0,7687.0,11480.0
2.32,408.0,-9800.0,16396.0,-4410.0,5889.0,-26407.0
2.33,-704.0,-9916.0,16632.0,-3115.0,3325.0,16601.0
2.34,-1032.0,-9280.0,16556.0,-1947.0,251.0,-1829.0
2.35,172.0,-8376.0,16124.0,-1220.0,-2560.0,-21281.0
2.36,2208.0,-7540.0,15840.0,-896.0,-3320.0,-24350.0
2.37,4180.0,-6656.0,15328.0,-1091.0,-3056.0,21734.0
2.38,5680.0,-6232.0,15184.0,-1618.0,-1514.0,12519.0
2.39,6424.0,-6192.0,15268.0,-2115.0,537.0,6375.0
2.4,6780.0,-6108.0,15396.0,-2568.0,2330.0,31976.0
2.41,6468.0,-6368.0,15800.0,-2702.0,4377.0,17639.0
2.42,5796.0,-6180.0,15820.0,-2711.0,6422.0,-23321.0
2.43,5360.0,-5864.0,15696.0,-3195.0,8212.0,-3863.0
2.44,4460.0,-6136.0,15996.0,-3567.0,9745.0,27880.0
2.45,2044.0,-6820.0,15348.0,-2955.0,9479.0,-795.0
2.46,1176.0,-6488.0,15944.0,-3013.0,9988.0,-26394.0
2.47,1280.0,-6592.0,15936.0,-2811.0,8709.0,230.0
2.48,368.0,-7012.0,15996.0,-2006.0,7425.0,28900.0
2.49,692.0,-6796.0,16256.0,-748.0,5634.0,-19227.0
2.5,1252.0,-6108.0,16248.0,-192.0,4868.0,-6936.0
2.51,2596.0,-5056.0,16136.0,15.0,4874.0,9452.0
2.52,3772.0,-4556.0,15904.0,-45.0,4622.0,-17170.0
2.53,3680.0,-4396.0,15360.0,-659.0,4878.0,24814.0
2.54,3396.0,-4120.0,15240.0,-1303.0,5389.0,17647.0
2.55,3272.0,-4456.0,15396.0,-1654.0,5900.0,-14098.0
2.56,2636.0,-5076.0,15604.0,-2044.0,6410.0,19692.0
2.57,2208.0,-5600.0,15596.0,-2166.0,6408.0,-24342.0
2.58,1736.0,-6228.0,15924.0,-1754.0,6406.0,-14105.0
2.59,1464.0,-6500.0,15920.0,-1052.0,6405.0,-18202.0
2.6,960.0,-6704.0,15988.0,-288.0,5891.0,-16155.0
2.61,1260.0,-6728.0,15856.0,438.0,5892.0,-4891.0
2.62,1116.0,-5888.0,15776.0,832.0,5636.0,23785.0
2.63,568.0,-5172.0,15732.0,778.0,5122.0,14571.0
2.64,-132.0,-4532.0,15532.0,238.0,4607.0,31982.0
2.65,236.0,-4916.0,15544.0,-53.0,3584.0,-4884.0
2.66,1184.0,-4856.0,15284.0,-247.0,3076.0,-24339.0
2.67,1848.0,-4472.0,15332.0,-323.0,3079.0,14574.0
2.68,2152.0,-4208.0,15252.0,-424.0,3592.0,26863.0
2.69,2460.0,-4216.0,15276.0,-455.0,4105.0,-25361.0
2.7,2544.0,-4544.0,15456.0,-362.0,4361.0,-3858.0
2.71,2340.0,-4824.0,15340.0,-120.0,4617.0,9453.0
2.72,2408.0,-4756.0,15264.0,12.0,4617.0,26861.0
2.73,2500.0,-4276.0,15288.0,-144.0,5129.0,-15121.0
2.74,2484.0,-3604.0,15328.0,-426.0,5385.0,-19215.0
2.75,1972.0,-3556.0,15568.0,-856.0,5639.0,-19214.0
2.76,1440.0,-3456.0,15432.0,-1198.0,5381.0,-24334.0
2.77,948.0,-4028.0,15544.0,-1223.0,5123.0,-19216.0
2.78,876.0,-4560.0,15988.0,-1130.0,4867.0,27886.0
2.79,372.0,-5352.0,15976.0,-1073.0,4865.0,29931.0
2.8,260.0,-5532.0,16268.0,-455.0,4609.0,1258.0
2.81,-464.0,-6076.0,16108.0,235.0,3582.0,12520.0
2.82,668.0,-5548.0,16592.0,207.0,3842.0,-25366.0
2.83,1472.0,-5712.0,16764.0,294.0,4101.0,-16151.0
2.84,1604.0,-5688.0,17100.0,1066.0,4102.0,17641.0
2.85,1652.0,-5208.0,16920.0,1548.0,4358.0,29931.0
2.86,1152.0,-4500.0,16528.0,1551.0,4868.0,-32530.0
2.87,664.0,-3724.0,16096.0,1165.0,4866.0,-26383.0
2.88,640.0,-3280.0,16088.0,486.0,5122.0,-32525.0
2.89,660.0,-3476.0,16140.0,20.0,5122.0,-27406.0
2.9,476.0,-3996.0,16164.0,-115.0,4865.0,-8976.0
2.91,52.0,-4364.0,16244.0,-121.0,4352.0,13550.0
2.92,64.0,-4748.0,16464.0,-140.0,3840.0,16621.0
2.93,468.0,-5164.0,16748.0,42.0,3585.0,-11029.0
2.94,780.0,-4724.0,16772.0,318.0,3331.0,3309.0
2.95,1096.0,-4968.0,16788.0,685.0,3588.0,18668.0
2.96,964.0,-4732.0,16944.0,668.0,3587.0,-15123.0
2.97,704.0,-4452.0,16760.0,575.0,4098.0,-16146.0
2.98,204.0,-4596.0,16584.0,399.0,4352.0,-13074.0
2.99,-428.0,-4716.0,16620.0,165.0,4606.0,21741.0
3.0,-1176.0,-4896.0,16512.0,-6.0,4091.0,26860.0
3.01,-1536.0,-4856.0,16520.0,-143.0,3066.0,237.0
3.02,-1276.0,-5008.0,16792.0,-73.0,2299.0,1260.0
3.03,-892.0,-5200.0,16884.0,177.0,1788.0,-31509.0
3.04,-556.0,-5012.0,16908.0,532.0,1533.0,-11028.0
3.05,-308.0,-4736.0,17168.0,669.0,1534.0,-13075.0
3.06,176.0,-4604.0,16724.0,775.0,1280.0,-20242.0
3.07,284.0,-4532.0,16736.0,823.0,1793.0,7406.0
3.08,-152.0,-4180.0,16464.0,833.0,2303.0,26863.0
3.09,-696.0,-3732.0,16600.0,666.0,2301.0,18673.0
3.1,-1060.0,-3796.0,16640.0,379.0,2043.0,-8975.0
3.11,-1544.0,-3972.0,16932.0,184.0,1529.0,-1808.0
3.12,-1552.0,-4628.0,17060.0,275.0,761.0,-3859.0
3.13,-1280.0,-5108.0,17008.0,624.0,251.0,236.0
3.14,-832.0,-4968.0,17172.0,1141.0,252.0,-16148.0
3.15,-676.0,-4288.0,17124.0,1363.0,509.0,23791.0
3.16,-604.0,-3928.0,17104.0,1362.0,1021.0,-23312.0
3.17,-1124.0,-4180.0,16848.0,1420.0,1531.0,-25361.0
3.18,-1792.0,-4004.0,16712.0,1467.0,1785.0,240.0
3.19,-2712.0,-3516.0,16716.0,1145.0,1781.0,26866.0
3.2,-2888.0,-3324.0,16952.0,967.0,1268.0,-18189.0
3.21,-2272.0,-3040.0,16324.0,662.0,1015.0,8436.0
3.22,-3580.0,-5436.0,15908.0,1527.0,498.0,1258.0
3.23,-3676.0,-3796.0,15756.0,-23.0,1265.0,-23311.0
3.24,-3204.0,-2716.0,18044.0,1582.0,-781.0,31989.0
3.25,-3692.0,-2472.0,16340.0,1734.0,-527.0,-27402.0
3.26,-3068.0,-2084.0,15848.0,904.0,-1036.0,1271.0
3.27,-3036.0,-1888.0,16300.0,454.0,-1036.0,9464.0
3.28,-2500.0,-2076.0,16088.0,250.0,-778.0,15607.0
3.29,-2260.0,-1916.0,16448.0,-57.0,-265.0,11512.0
3.3,-2456.0,-2148.0,16408.0,-242.0,502.0,26871.0
3.31,-3240.0,-2120.0,16460.0,-141.0,243.0,22775.0
3.32,-3748.0,-1392.0,16280.0,-290.0,497.0,23802.0
3.33,-3724.0,-292.0,16364.0,-956.0,241.0,29950.0
3.34,-3820.0,-728.0,16244.0,-1131.0,-15.0,5373.0
3.35,-3816.0,-2220.0,16340.0,-752.0,-783.0,6391.0
3.36,-3808.0,-2024.0,16548.0,-38.0,-783.0,8440.0
3.37,-4344.0,-1576.0,16352.0,-439.0,-785.0,2297.0
3.38,-4408.0,-1652.0,16776.0,-569.0,-1042.0,-14087.0
3.39,-4148.0,-2132.0,17100.0,-316.0,-1553.0,-13065.0
3.4,-3860.0,-2252.0,16924.0,-134.0,-2064.0,-4873.0
3.41,-3140.0,-2020.0,16868.0,16.0,-2061.0,-17160.0
3.42,-3152.0,-1624.0,16656.0,19.0,-1805.0,-20231.0
3.43,-2936.0,-1144.0,16600.0,-98.0,-1548.0,-30469.0
3.44,-3100.0,-1248.0,16148.0,-207.0,-1293.0,-6917.0
3.45,-3164.0,-1012.0,16132.0,-324.0,-1037.0,-23300.0
3.46,-3684.0,-988.0,16368.0,-438.0,-1807.0,-25348.0
3.47,-3500.0,-1180.0,16764.0,-785.0,-2318.0,21755.0
3.48,-2588.0,-1740.0,17132.0,-519.0,-3339.0,-6919.0
3.49,-1652.0,-2252.0,17408.0,195.0,-4103.0,-29449.0
3.5,-532.0,-1804.0,17344.0,295.0,-3587.0,-4872.0
3.51,476.0,-1504.0,17436.0,248.0,-3071.0,-8966.0
3.52,796.0,-1268.0,17248.0,155.0,-1789.0,7419.0
3.53,1224.0,-1424.0,17352.0,180.0,-1020.0,-14086.0
3.54,272.0,-1936.0,17396.0,268.0,-255.0,4344.0
3.55,-136.0,-2076.0,17412.0,416.0,255.0,30967.0
3.56,-548.0,-2216.0,17576.0,562.0,-259.0,-8969.0
3.57,180.0,-1640.0,17768.0,461.0,-256.0,-19207.0
3.58,720.0,-1964.0,17316.0,687.0,-254.0,-12040.0
3.59,912.0,-1788.0,17660.0,736.0,259.0,-28423.0
3.6,2392.0,-2084.0,18136.0,914.0,777.0,22775.0
3.61,1896.0,280.0,17932.0,1682.0,1031.0,26625.0
3.62,176.0,-992.0,15812.0,-527.0,2304.0,-20228.0
3.63,-404.0,-832.0,16540.0,-575.0,2302.0,27900.0
3.64,-1344.0,-1216.0,16152.0,-371.0,1018.0,-16133.0
3.65,-1308.0,-964.0,16360.0,-685.0,506.0,-6916.0
3.66,-500.0,-1412.0,16820.0,-476.0,-514.0,3322.0
3.67,364.0,-1508.0,16512.0,-199.0,-1791.0,27898.0
3.68,2000.0,-1704.0,17508.0,170.0,-1273.0,-12039.0
3.69,2932.0,-1540.0,17264.0,358.0,-1013.0,29945.0
3.7,2992.0,-1088.0,16688.0,115.0,11.0,-20229.0
3.71,2812.0,-956.0,17024.0,-223.0,1034.0,-772.0
3.72,2000.0,-1404.0,16612.0,-742.0,1543.0,-12038.0
3.73,1088.0,-1496.0,16620.0,-878.0,2052.0,16634.0
3.74,304.0,-1612.0,16396.0,-1024.0,1793.0,12537.0
3.75,-176.0,-1928.0,16384.0,-1172.0,1791.0,20728.0
3.76,-360.0,-2608.0,16736.0,-876.0,1022.0,-26379.0
3.77,-500.0,-2832.0,16988.0,-509.0,510.0,3316.0
3.78,-160.0,-2428.0,17100.0,-277.0,-257.0,24822.0
3.79,492.0,-2588.0,17204.0,-87.0,-767.0,-4875.0
3.8,1128.0,-2228.0,17032.0,79.0,-508.0,26871.0
3.81,1152.0,-1812.0,17008.0,-36.0,-252.0,-32520.0
3.82,1080.0,-1636.0,17032.0,-143.0,4.0,14585.0
3.83,1148.0,-1840.0,16956.0,-237.0,4.0,31992.0
3.84,872.0,-1820.0,17044.0,-284.0,3.0,26872.0
3.85,884.0,-1976.0,17048.0,-305.0,-253.0,29944.0
3.86,1208.0,-2128.0,17352.0,-218.0,-252.0,-18185.0
3.87,1356.0,-2000.0,17228.0,-159.0,5.0,19704.0
3.88,1252.0,-1828.0,17144.0,-99.0,260.0,-6920.0
3.89,1076.0,-1960.0,17192.0,-60.0,516.0,13560.0
3.9,492.0,-1800.0,17124.0,-48.0,513.0,-4872.0
3.91,268.0,-1676.0,16856.0,-161.0,257.0,3321.0
3.92,0.0,-1888.0,16936.0,-158.0,-256.0,248.0
3.93,64.0,-1772.0,16756.0,-194.0,-512.0,16633.0
3.94,488.0,-1728.0,16764.0,-254.0,-767.0,-5895.0
3.95,676.0,-1872.0,16852.0,-383.0,-766.0,-23304.0
3.96,996.0,-2096.0,17112.0,-247.0,-1021.0,-6921.0
3.97,1108.0,-2248.0,17096.0,-47.0,-1020.0,21751.0
3.98,1328.0,-2228.0,17052.0,212.0,-1019.0,12535.0
3.99,1608.0,-1924.0,16864.0,284.0,-1018.0,18680.0
3.99,1608.0,-1924.0,16864.0,284.0,-1018.0,18680.0
3.99,1608.0,-1924.0,16864.0,284.0,-1018.0,18680.0
3.99,1608.0,-1924.0,16864.0,284.0,-1018.0,18680.0
3.99,1608.0,-1924.0,16864.0,284.0,-1018.0,18680.0
3.99,1608.0,-1924.0,16864.0,284.0,-1018.0,18680.0
3.99,1608.0,-1924.0,16864.0,284.0,-1018.0,18680.0
3.99,1608.0,-1924.0,16864.0,284.0,-1018.0,18680.0
3.99,1608.0,-1924.0,16864.0,284.0,-1018.0,18680.0
3.99,1608.0,-1924.0,16864.0,284.0,-1018.0,18680.0
3.99,1608.0,-1924.0,16864.0,284.0,-1018.0,18680.0
3.99,1608.0,-1924.0,16864.0,284.0,-1018.0,18680.0
3.99,1608.0,-1924.0,16864.0,284.0,-1018.0,18680.0
3.99,1608.0,-1924.0,16864.0,284.0,-1018.0,18680.0
3.99,1608.0,-1924.0,16864.0,284.0,-1018.0,18680.0
3.99,1608.0,-1924.0,16864.0,284.0,-1018.0,18680.0
3.99,1608.0,-1924.0,16864.0,284.0,-1018.0,18680.0
3.99,1608.0,-1924.0,16864.0,284.0,-1018.0,18680.0
3.99,1608.0,-1924.0,16864.0,284.0,-1018.0,18680.0
3.99,1608.0,-1924.0,16864.0,284.0,-1018.0,18680.0
3.99,1608.0,-1924.0,16864.0,284.0,-1018.0,18680.0
3.99,1608.0,-1924.0,16864.0,284.0,-1018.0,18680.0
3.99,1608.0,-1924.0,16864.0,284.0,-1018.0,18680.0
3.99,1608.0,-1924.0,16864.0,284.0,-1018.0,18680.0
3.99,1608.0,-1924.0,16864.0,284.0,-1018.0,18680.0
3.99,1608.0,-1924.0,16864.0,284.0,-1018.0,18680.0
3.99,1608.0,-1924.0,16864.0,284.0,-1018.0,18680.0
3.99,1608.0,-1924.0,16864.0,284.0,-1018.0,18680.0
3.99,1608.0,-1924.0,16864.0,284.0,-1018.0,18680.0
3.99,1608.0,-1924.0,16864.0,284.0,-1018.0,18680.0
3.99,1608.0,-1924.0,16864.0,284.0,-1018.0,18680.0
3.99,1608.0,-1924.0,16864.0,284.0,-1018.0,18680.0
3.99,1608.0,-1924.0,16864.0,284.0,-1018.0,18680.0
3.99,1608.0,-1924.0,16864.0,284.0,-1018.0,18680.0
3.99,1608.0,-1924.0,16864.0,284.0,-1018.0,18680.0
3.99,1608.0,-1924.0,16864.0,284.0,-1018.0,18680.0
3.99,1608.0,-1924.0,16864.0,284.0,-1018.0,18680.0
3.99,1608.0,-1924.0,16864.0,284.0,-1018.0,18680.0
3.99,1608.0,-1924.0,16864.0,284.0,-1018.0,18680.0
3.99,1608.0,-1924.0,16864.0,284.0,-1018.0,18680.0
3.99,1608.0,-1924.0,16864.0,284.0,-1018.0,18680.0
3.99,1608.0,-1924.0,16864.0,284.0,-1018.0,18680.0
3.99,1608.0,-1924.0,16864.0,284.0,-1018.0,18680.0
3.99,1608.0,-1924.0,16864.0,284.0,-1018.0,18680.0
3.99,1608.0,-1924.0,16864.0,284.0,-1018.0,18680.0
3.99,1608.0,-1924.0,16864.0,284.0,-1018.0,18680.0
3.99,1608.0,-1924.0,16864.0,284.0,-1018.0,18680.0
3.99,1608.0,-1924.0,16864.0,284.0,-1018.0,18680.0
3.99,1608.0,-1924.0,16864.0,284.0,-1018.0,18680.0
3.99,1608.0,-1924.0,16864.0,284.0,-1018.0,18680.0
3.99,1608.0,-1924.0,16864.0,284.0,-1018.0,18680.0
