Time,acce_x,acce_y,acce_z,gyro_x,gyro_y, gyro_z
0.000,0.194,-0.223,0.864,-1.710,2.351,-0.275
0.000,0.197,-0.228,0.870,-1.420,0.504,-0.229
0.010,0.202,-0.232,0.885,-0.855,-0.992,-0.260
0.010,0.205,-0.227,0.882,-0.244,-2.336,0.107
0.010,0.216,-0.225,0.872,0.153,-2.489,-0.061
0.020,0.211,-0.225,0.881,0.305,-3.176,-0.107
0.020,0.219,-0.225,0.876,0.595,-2.824,-0.290
0.020,0.221,-0.217,0.863,0.855,-2.244,-0.076
0.030,0.216,-0.219,0.852,0.718,-1.664,-0.183
0.030,0.218,-0.219,0.859,0.550,-0.382,-0.229
0.030,0.224,-0.218,0.838,0.198,0.504,-0.275
0.040,0.218,-0.215,0.832,-0.214,1.389,-0.366
0.040,0.215,-0.218,0.832,-0.809,2.107,-0.336
0.040,0.211,-0.214,0.833,-1.313,2.550,-0.336
0.050,0.207,-0.218,0.831,-1.924,2.947,-0.397
0.050,0.194,-0.222,0.826,-2.611,3.573,-0.275
0.060,0.196,-0.216,0.837,-3.160,3.725,-0.305
0.060,0.189,-0.224,0.830,-3.542,4.000,-0.122
0.060,0.177,-0.227,0.835,-3.573,3.756,0.061
0.070,0.178,-0.234,0.829,-3.863,4.290,0.321
0.070,0.171,-0.235,0.838,-3.573,4.183,0.519
0.070,0.169,-0.237,0.839,-3.176,3.221,1.160
0.080,0.173,-0.229,0.849,-2.168,1.267,0.763
0.080,0.171,-0.235,0.835,-2.061,-0.733,0.489
0.090,0.177,-0.237,0.850,-2.336,-2.351,0.260
0.090,0.188,-0.228,0.852,-2.260,-2.595,0.275
0.090,0.189,-0.232,0.860,-1.954,-2.366,0.626
0.100,0.185,-0.226,0.859,-2.031,-2.489,0.947
0.100,0.190,-0.217,0.842,-2.244,-1.969,1.145
0.110,0.195,-0.225,0.842,-2.611,-1.664,1.344
0.110,0.207,-0.211,0.839,-2.931,-0.931,1.344
0.110,0.215,-0.222,0.852,-3.237,0.046,1.191
0.120,0.214,-0.220,0.847,-4.015,0.443,1.069
0.120,0.221,-0.223,0.857,-4.595,0.672,0.901
0.130,0.217,-0.221,0.863,-5.099,1.282,0.489
0.130,0.222,-0.226,0.866,-5.389,2.290,0.412
0.130,0.217,-0.225,0.865,-5.282,2.870,0.336
0.140,0.219,-0.224,0.876,-4.855,2.809,0.229
0.140,0.210,-0.229,0.876,-4.305,2.504,0.076
0.150,0.205,-0.232,0.871,-4.061,2.137,-0.137
0.150,0.206,-0.241,0.877,-3.573,2.473,-0.305
0.150,0.200,-0.232,0.881,-3.573,2.580,-0.366
0.160,0.192,-0.230,0.868,-3.634,2.748,-0.351
0.160,0.186,-0.236,0.874,-3.405,2.809,-0.382
0.170,0.185,-0.229,0.857,-3.786,2.595,0.031
0.170,0.184,-0.229,0.862,-3.878,2.718,0.198
0.170,0.184,-0.234,0.855,-4.168,2.947,0.214
0.180,0.185,-0.228,0.866,-4.321,2.916,0.290
0.180,0.182,-0.231,0.856,-4.580,2.748,0.641
0.190,0.184,-0.231,0.866,-4.244,2.443,0.977
0.190,0.184,-0.228,0.861,-4.321,1.481,1.115
0.190,0.192,-0.223,0.868,-4.412,1.328,0.992
0.200,0.190,-0.227,0.872,-4.504,1.466,0.977
0.200,0.190,-0.228,0.878,-4.580,1.817,1.176
0.200,0.195,-0.229,0.866,-4.473,2.107,1.130
0.210,0.194,-0.227,0.876,-4.137,2.443,1.160
0.210,0.206,-0.231,0.878,-4.137,2.718,1.069
0.220,0.202,-0.230,0.872,-3.725,3.053,0.992
0.220,0.208,-0.229,0.886,-3.237,3.634,0.901
0.220,0.206,-0.237,0.879,-2.947,4.260,0.733
0.230,0.200,-0.236,0.875,-2.397,4.550,0.718
0.230,0.191,-0.237,0.876,-1.893,3.939,0.626
0.240,0.180,-0.243,0.876,-1.634,2.718,0.550
0.240,0.188,-0.246,0.870,-1.695,1.756,0.366
0.240,0.184,-0.237,0.871,-1.527,1.328,0.275
0.250,0.185,-0.237,0.869,-1.389,0.656,0.244
0.250,0.178,-0.241,0.862,-1.496,0.427,0.504
0.260,0.177,-0.241,0.854,-1.695,0.122,0.580
0.260,0.186,-0.238,0.861,-1.802,0.550,0.840
0.260,0.184,-0.236,0.856,-1.893,0.748,0.977
0.270,0.189,-0.237,0.844,-1.832,0.947,1.099
0.270,0.192,-0.241,0.861,-2.290,1.466,1.252
0.280,0.190,-0.237,0.855,-2.183,1.786,1.542
0.280,0.201,-0.243,0.867,-2.015,2.198,1.542
0.280,0.189,-0.238,0.857,-1.878,1.527,1.573
0.290,0.189,-0.249,0.874,-2.198,0.427,1.695
0.290,0.195,-0.245,0.869,-2.290,-0.656,1.435
0.290,0.201,-0.245,0.865,-2.366,-0.794,1.420
0.300,0.199,-0.243,0.876,-2.580,-1.115,1.420
0.300,0.196,-0.240,0.863,-2.870,-1.008,1.374
0.310,0.194,-0.244,0.868,-2.626,-1.450,1.405
0.310,0.195,-0.239,0.865,-2.534,-1.588,1.740
0.310,0.198,-0.244,0.867,-2.336,-1.603,1.771
0.320,0.206,-0.246,0.864,-2.366,-1.344,1.924
0.320,0.199,-0.244,0.872,-2.275,-1.359,1.802
0.330,0.215,-0.246,0.871,-2.015,-1.099,1.786
0.330,0.214,-0.245,0.883,-1.511,-0.290,1.847
0.330,0.213,-0.244,0.885,-0.885,0.565,1.664
0.340,0.200,-0.238,0.868,-0.397,-0.092,1.985
0.340,0.214,-0.239,0.877,-0.718,-1.313,1.450
0.350,0.225,-0.235,0.872,-0.992,-1.985,1.084
0.350,0.231,-0.243,0.886,-0.794,-1.374,1.115
0.350,0.232,-0.239,0.889,-0.763,-1.328,0.824
0.360,0.230,-0.238,0.881,-0.718,-1.359,0.840
0.360,0.229,-0.240,0.870,-0.565,-1.527,0.702
0.370,0.221,-0.237,0.871,-0.382,-1.679,0.626
0.370,0.224,-0.235,0.868,-0.015,-1.756,0.489
0.370,0.216,-0.231,0.880,-0.046,-1.603,0.076
0.380,0.223,-0.239,0.862,0.061,-1.588,0.107
0.380,0.220,-0.236,0.869,0.046,-1.160,-0.046
0.390,0.227,-0.231,0.861,-0.229,-0.931,-0.015
0.390,0.229,-0.230,0.858,-0.183,0.092,-0.046
0.390,0.231,-0.232,0.864,-0.183,0.977,-0.336
0.400,0.224,-0.235,0.860,-0.198,2.183,-0.489
0.400,0.218,-0.229,0.844,-0.046,2.183,-0.550
0.410,0.218,-0.234,0.849,-0.794,1.160,-0.870
0.410,0.218,-0.228,0.847,-1.573,0.107,-1.084
0.410,0.233,-0.228,0.858,-1.740,0.397,-1.237
0.420,0.226,-0.224,0.865,-1.573,0.870,-1.405
0.420,0.226,-0.224,0.855,-1.573,1.069,-1.298
0.430,0.210,-0.223,0.855,-1.954,0.382,-1.069
0.430,0.211,-0.223,0.845,-2.153,0.153,-1.069
0.430,0.217,-0.224,0.847,-2.198,0.153,-1.130
0.440,0.221,-0.225,0.851,-2.458,0.214,-1.115
0.440,0.222,-0.218,0.844,-2.779,0.947,-1.160
0.450,0.224,-0.220,0.852,-3.023,1.282,-1.344
0.450,0.224,-0.221,0.847,-3.435,1.679,-1.481
0.450,0.219,-0.223,0.861,-3.786,2.305,-1.511
0.460,0.217,-0.227,0.860,-3.740,2.977,-1.420
0.460,0.215,-0.223,0.865,-3.664,3.985,-1.420
0.470,0.213,-0.230,0.872,-3.206,3.695,-1.237
0.470,0.199,-0.235,0.877,-2.962,2.443,-1.237
0.470,0.202,-0.225,0.888,-2.229,0.992,-1.618
0.480,0.196,-0.230,0.874,-2.275,-0.641,-2.046
0.480,0.201,-0.229,0.873,-1.725,-1.695,-2.336
0.490,0.193,-0.232,0.875,-1.527,-2.687,-2.260
0.490,0.193,-0.229,0.876,-1.527,-3.710,-2.427
0.490,0.198,-0.232,0.867,-1.374,-3.817,-2.336
0.500,0.195,-0.235,0.868,-1.145,-3.725,-2.489
0.500,0.198,-0.227,0.869,-1.099,-3.420,-2.336
0.510,0.208,-0.223,0.866,-1.038,-2.595,-2.397
0.510,0.205,-0.230,0.862,-1.130,-1.832,-2.519
0.520,0.207,-0.227,0.860,-1.420,-1.176,-2.397
0.520,0.202,-0.232,0.866,-1.573,-0.290,-2.473
0.520,0.199,-0.239,0.866,-1.802,0.931,-2.336
0.530,0.187,-0.238,0.869,-1.710,1.511,-2.229
0.530,0.183,-0.239,0.863,-1.649,1.985,-2.153
0.540,0.182,-0.243,0.864,-1.649,2.443,-1.817
0.540,0.178,-0.239,0.869,-1.496,3.053,-1.496
0.540,0.176,-0.243,0.866,-1.389,3.191,-1.328
0.550,0.175,-0.243,0.875,-0.992,3.389,-1.237
0.550,0.168,-0.236,0.861,-0.962,2.809,-0.947
0.560,0.158,-0.226,0.854,-1.160,2.290,-0.809
0.560,0.159,-0.237,0.855,-1.420,2.092,-0.550
0.560,0.152,-0.232,0.852,-1.618,1.145,-0.137
0.570,0.145,-0.233,0.854,-1.893,0.870,0.305
0.570,0.141,-0.227,0.849,-2.260,0.870,0.931
0.580,0.156,-0.234,0.851,-2.061,0.901,1.405
0.580,0.153,-0.233,0.841,-2.214,1.374,1.817
0.580,0.160,-0.236,0.853,-1.924,1.786,2.260
0.590,0.164,-0.231,0.872,-1.939,2.183,2.611
0.590,0.174,-0.236,0.870,-1.679,1.969,2.382
0.590,0.192,-0.238,0.873,-1.359,2.092,2.214
0.600,0.192,-0.236,0.885,-1.115,1.863,1.863
0.600,0.188,-0.244,0.880,-0.519,1.038,1.466
0.610,0.185,-0.242,0.879,-0.366,0.137,1.313
0.610,0.180,-0.242,0.876,0.229,-0.840,1.176
0.610,0.180,-0.245,0.876,0.702,-1.557,1.099
0.620,0.176,-0.239,0.877,0.931,-1.466,1.206
0.620,0.178,-0.238,0.865,1.282,-1.710,1.191
0.630,0.171,-0.234,0.867,1.298,-1.527,1.252
0.630,0.167,-0.240,0.861,1.206,-1.176,1.405
0.630,0.170,-0.231,0.849,1.038,-1.069,1.450
0.640,0.167,-0.238,0.843,0.412,-0.656,1.420
0.640,0.156,-0.234,0.852,-0.168,0.000,1.542
0.650,0.144,-0.238,0.854,-0.962,0.183,2.076
0.650,0.132,-0.233,0.857,-1.237,0.534,2.855
0.650,0.132,-0.240,0.870,-1.695,1.115,3.695
0.660,0.120,-0.240,0.888,-1.969,1.878,4.656
0.660,0.126,-0.244,0.900,-1.695,2.977,5.252
0.660,0.134,-0.248,0.927,-1.053,3.847,6.336
0.670,0.133,-0.252,0.930,-0.351,4.718,6.992
0.670,0.132,-0.249,0.925,0.290,5.145,7.542
0.680,0.141,-0.248,0.933,1.053,5.679,8.229
0.680,0.132,-0.245,0.928,2.092,5.634,8.504
0.680,0.144,-0.246,0.921,2.672,4.977,8.687
0.690,0.136,-0.247,0.932,3.206,3.847,8.794
0.690,0.141,-0.242,0.918,3.679,2.870,9.053
0.700,0.148,-0.236,0.915,3.725,1.985,9.328
0.700,0.152,-0.235,0.907,3.863,0.916,9.115
0.700,0.155,-0.239,0.910,3.939,-0.443,9.023
0.710,0.164,-0.238,0.909,4.031,-1.603,8.702
0.710,0.170,-0.237,0.916,4.290,-2.687,8.427
0.720,0.177,-0.237,0.911,4.809,-3.679,8.366
0.720,0.179,-0.236,0.910,5.130,-4.550,8.214
0.720,0.180,-0.236,0.907,5.740,-5.252,8.336
0.730,0.187,-0.241,0.911,6.351,-5.267,8.168
0.730,0.201,-0.236,0.908,6.901,-5.191,8.198
0.730,0.203,-0.238,0.911,7.405,-4.626,8.015
0.740,0.210,-0.227,0.891,7.695,-3.573,7.740
0.740,0.216,-0.221,0.883,7.756,-2.947,7.573
0.750,0.208,-0.219,0.871,7.405,-2.229,7.313
0.750,0.205,-0.225,0.859,6.702,-1.771,7.160
0.750,0.209,-0.220,0.861,6.244,-1.359,7.374
0.760,0.208,-0.216,0.847,5.389,-1.282,7.145
0.760,0.201,-0.217,0.843,4.916,-1.160,7.145
0.770,0.201,-0.219,0.849,4.290,-1.435,7.130
0.770,0.193,-0.217,0.845,4.122,-2.046,7.115
0.770,0.201,-0.228,0.859,3.664,-2.763,6.962
0.780,0.205,-0.227,0.862,3.802,-3.176,6.947
0.780,0.212,-0.228,0.864,3.969,-3.267,6.870
0.790,0.212,-0.231,0.857,4.412,-3.679,6.718
0.790,0.215,-0.229,0.859,4.580,-4.076,6.565
0.790,0.213,-0.227,0.851,4.641,-3.939,6.534
0.800,0.220,-0.229,0.851,4.733,-3.954,6.305
0.800,0.223,-0.225,0.845,4.672,-4.198,6.061
0.800,0.215,-0.228,0.841,4.885,-4.534,5.985
0.810,0.221,-0.218,0.843,4.473,-4.534,6.046
0.810,0.229,-0.220,0.839,4.229,-4.107,6.061
0.820,0.234,-0.213,0.841,4.015,-3.542,5.908
0.820,0.248,-0.214,0.847,3.893,-3.527,5.664
0.820,0.246,-0.210,0.838,3.542,-3.221,5.435
0.830,0.260,-0.207,0.826,3.160,-2.763,5.069
0.830,0.263,-0.205,0.833,2.595,-2.672,4.473
0.840,0.263,-0.206,0.824,1.954,-2.519,3.802
0.840,0.270,-0.203,0.814,1.588,-2.321,3.221
0.840,0.268,-0.207,0.815,0.977,-2.061,2.718
0.850,0.275,-0.204,0.813,0.275,-2.046,2.427
0.850,0.279,-0.208,0.814,-0.137,-1.817,1.832
0.860,0.280,-0.209,0.812,-0.702,-2.153,1.023
0.860,0.279,-0.205,0.815,-1.145,-2.046,0.351
0.860,0.276,-0.207,0.810,-1.511,-2.137,-0.260
0.870,0.268,-0.205,0.801,-2.275,-2.458,-0.672
0.870,0.267,-0.210,0.803,-3.008,-3.405,-1.328
0.880,0.273,-0.207,0.797,-3.450,-2.809,-1.939
0.880,0.260,-0.208,0.801,-4.275,-2.122,-2.305
0.880,0.255,-0.208,0.802,-4.947,-2.061,-2.473
0.890,0.245,-0.210,0.800,-5.145,-1.924,-2.656
0.890,0.243,-0.213,0.811,-5.466,-1.527,-2.580
0.900,0.249,-0.213,0.827,-5.420,-0.748,-2.611
0.900,0.249,-0.219,0.835,-5.160,0.000,-2.718
0.900,0.250,-0.216,0.835,-4.824,0.366,-2.885
0.910,0.249,-0.208,0.841,-4.687,0.824,-3.511
0.910,0.244,-0.218,0.833,-4.672,1.023,-3.771
0.920,0.241,-0.222,0.836,-4.702,1.008,-4.015
0.920,0.231,-0.218,0.831,-5.130,0.672,-4.351
0.920,0.222,-0.217,0.837,-5.344,0.015,-4.489
0.930,0.217,-0.215,0.844,-5.725,-0.336,-4.443
0.930,0.220,-0.222,0.848,-5.863,-0.626,-4.595
0.940,0.221,-0.219,0.845,-5.802,-0.641,-4.626
0.940,0.218,-0.219,0.836,-6.061,-0.565,-4.412
0.940,0.211,-0.215,0.841,-6.031,-0.198,-4.382
0.950,0.214,-0.222,0.845,-5.802,0.076,-4.183
0.950,0.218,-0.220,0.842,-5.664,0.855,-4.443
0.960,0.213,-0.225,0.848,-5.634,1.405,-4.504
0.960,0.208,-0.225,0.844,-5.695,1.359,-4.626
0.960,0.203,-0.217,0.845,-5.908,0.595,-4.580
0.970,0.205,-0.227,0.839,-6.336,0.260,-4.672
0.970,0.202,-0.220,0.848,-6.672,1.191,-4.611
0.980,0.194,-0.222,0.848,-6.519,1.099,-4.443
0.980,0.185,-0.225,0.855,-6.550,0.687,-4.198
0.980,0.189,-0.221,0.851,-6.519,0.641,-4.198
0.990,0.193,-0.219,0.848,-6.504,1.527,-3.954
0.990,0.189,-0.215,0.861,-6.595,2.092,-3.603
1.000,0.193,-0.216,0.865,-6.626,2.702,-3.466
1.000,0.190,-0.220,0.855,-6.809,3.420,-3.298
1.000,0.194,-0.223,0.862,-6.672,3.130,-3.374
1.010,0.193,-0.220,0.868,-6.931,2.641,-3.573
1.010,0.188,-0.224,0.868,-6.962,2.229,-3.634
1.020,0.177,-0.220,0.872,-7.115,2.168,-3.374
1.020,0.170,-0.226,0.880,-7.038,1.710,-3.130
1.020,0.167,-0.230,0.887,-6.931,0.687,-3.008
1.030,0.161,-0.234,0.896,-6.321,-0.168,-2.855
1.030,0.154,-0.238,0.899,-5.817,-1.450,-2.397
1.040,0.156,-0.244,0.902,-5.267,-2.458,-1.878
1.040,0.154,-0.240,0.911,-4.260,-2.336,-1.481
1.040,0.162,-0.239,0.911,-3.069,-2.076,-0.931
1.050,0.162,-0.244,0.909,-2.137,-1.496,-0.687
1.050,0.158,-0.238,0.903,-1.817,-1.145,-0.489
1.060,0.163,-0.237,0.894,-1.618,-0.397,-0.198
1.060,0.170,-0.241,0.896,-1.221,0.275,-0.244
1.070,0.170,-0.239,0.899,-1.145,0.992,0.168
1.070,0.163,-0.232,0.890,-1.099,1.542,0.275
1.070,0.159,-0.229,0.887,-1.466,1.344,0.733
1.080,0.155,-0.235,0.876,-1.557,1.023,0.779
1.080,0.150,-0.234,0.877,-1.664,1.084,1.008
1.080,0.144,-0.236,0.885,-2.000,0.824,1.420
1.090,0.140,-0.239,0.881,-2.275,-0.366,1.634
1.090,0.122,-0.247,0.890,-2.382,-1.496,2.015
1.100,0.124,-0.249,0.912,-2.015,-2.580,2.458
1.100,0.114,-0.252,0.928,-1.191,-3.527,3.053
1.100,0.116,-0.256,0.942,-0.397,-4.534,3.771
1.110,0.120,-0.252,0.936,0.656,-4.992,4.336
1.110,0.125,-0.250,0.939,1.878,-4.595,4.794
1.120,0.122,-0.250,0.936,2.504,-4.137,5.237
1.120,0.115,-0.254,0.937,2.931,-4.031,5.634
1.120,0.104,-0.249,0.931,3.298,-3.954,6.168
1.130,0.101,-0.247,0.927,3.771,-3.985,6.947
1.130,0.099,-0.243,0.937,4.092,-3.817,7.969
1.140,0.096,-0.245,0.932,4.336,-3.832,8.901
1.140,0.098,-0.248,0.934,4.321,-4.382,9.725
1.140,0.095,-0.248,0.945,4.351,-4.931,9.985
1.150,0.094,-0.248,0.947,4.580,-5.954,10.534
1.150,0.077,-0.256,0.960,4.626,-7.008,11.053
1.160,0.066,-0.259,0.959,5.176,-8.397,11.893
1.160,0.056,-0.256,0.980,5.695,-10.137,12.763
1.160,0.047,-0.263,0.994,6.931,-11.053,14.031
1.170,0.046,-0.271,1.016,8.504,-11.588,15.481
1.170,0.045,-0.272,1.017,9.969,-11.176,16.885
1.180,0.047,-0.281,1.013,11.878,-10.565,18.305
1.180,0.039,-0.277,1.010,13.450,-9.557,19.847
1.180,0.039,-0.279,1.008,14.992,-8.947,20.962
1.190,0.050,-0.277,1.009,16.443,-8.015,22.183
1.190,0.050,-0.277,1.010,18.122,-7.084,23.420
1.200,0.045,-0.269,1.006,19.466,-6.824,24.168
1.200,0.051,-0.262,0.995,20.855,-7.130,25.221
1.200,0.050,-0.259,0.988,21.435,-7.450,26.015
1.210,0.051,-0.248,0.972,22.046,-8.015,26.779
1.210,0.045,-0.248,0.961,22.534,-8.931,27.634
1.220,0.052,-0.245,0.958,22.870,-10.275,28.641
1.220,0.042,-0.245,0.969,23.328,-11.924,29.649
1.230,0.036,-0.243,0.978,23.786,-13.679,30.473
1.230,0.045,-0.246,0.962,24.641,-14.931,31.450
1.230,0.035,-0.253,0.969,25.252,-16.992,32.244
1.240,0.031,-0.252,0.976,25.771,-18.779,33.466
1.240,0.016,-0.249,0.977,26.611,-20.351,34.534
1.250,0.018,-0.258,0.976,27.084,-21.282,36.122
1.250,0.006,-0.257,0.995,27.786,-22.519,37.359
1.250,-0.011,-0.260,0.984,28.122,-22.733,38.855
1.260,-0.029,-0.256,0.985,28.321,-23.557,40.733
1.260,-0.053,-0.273,0.992,28.458,-23.847,42.809
1.270,-0.084,-0.289,0.999,28.412,-25.542,44.748
1.270,-0.140,-0.298,1.024,28.198,-28.305,47.802
1.280,-0.198,-0.324,1.068,28.458,-31.985,51.115
1.280,-0.245,-0.343,1.103,29.557,-35.634,55.237
1.280,-0.280,-0.369,1.141,31.802,-39.695,60.214
1.290,-0.315,-0.395,1.188,34.779,-44.076,65.160
1.290,-0.339,-0.416,1.228,38.519,-47.603,70.733
1.300,-0.344,-0.429,1.255,43.695,-50.534,76.733
1.300,-0.364,-0.450,1.270,48.427,-51.710,83.191
1.310,-0.392,-0.465,1.255,54.107,-52.473,90.824
1.310,-0.373,-0.466,1.262,59.725,-51.008,96.412
1.310,-0.344,-0.463,1.245,64.412,-49.420,102.702
1.320,-0.319,-0.434,1.192,68.168,-48.885,107.130
1.320,-0.295,-0.430,1.164,70.550,-49.206,110.947
1.330,-0.255,-0.414,1.138,71.450,-48.305,114.351
1.330,-0.229,-0.400,1.097,72.763,-46.916,117.099
1.340,-0.235,-0.381,1.058,73.496,-47.435,119.466
1.340,-0.235,-0.382,1.031,72.916,-50.336,121.588
1.340,-0.218,-0.375,0.992,73.130,-52.382,123.649
1.350,-0.205,-0.367,0.975,73.298,-54.458,125.985
1.350,-0.187,-0.357,0.958,73.191,-57.084,127.756
1.360,-0.166,-0.350,0.950,72.901,-59.817,129.084
1.360,-0.138,-0.357,0.938,73.282,-62.092,129.740
1.370,-0.118,-0.357,0.948,74.290,-63.893,130.198
1.370,-0.098,-0.359,0.951,75.282,-65.573,131.099
1.370,-0.093,-0.365,0.933,76.153,-65.496,131.924
1.380,-0.089,-0.379,0.951,77.695,-65.863,133.618
1.380,-0.077,-0.382,0.948,79.084,-65.160,135.618
1.390,-0.070,-0.385,0.947,80.641,-64.122,137.832
1.390,-0.030,-0.387,0.952,82.504,-61.695,139.954
1.400,-0.008,-0.391,0.938,84.458,-58.290,141.924
1.400,0.023,-0.393,0.908,86.351,-54.718,143.573
1.400,0.030,-0.390,0.901,87.725,-51.511,144.595
1.410,0.046,-0.386,0.880,89.237,-49.420,145.664
1.410,0.062,-0.390,0.857,90.397,-47.145,146.748
1.420,0.062,-0.380,0.836,91.435,-45.786,147.786
1.420,0.066,-0.378,0.805,91.389,-44.718,149.008
1.430,0.052,-0.378,0.778,91.985,-44.092,150.901
1.430,0.045,-0.370,0.748,91.557,-44.427,153.008
1.430,0.048,-0.375,0.743,91.420,-43.557,155.252
1.440,0.055,-0.374,0.709,90.351,-42.107,157.008
1.440,0.049,-0.369,0.698,88.702,-41.420,159.679
1.450,0.050,-0.363,0.685,86.550,-41.573,162.748
1.450,0.055,-0.364,0.664,84.687,-40.443,165.939
1.460,0.062,-0.365,0.654,82.870,-38.611,169.099
1.460,0.101,-0.357,0.649,80.672,-31.221,171.786
1.460,0.135,-0.363,0.623,77.450,-26.031,174.763
1.470,0.142,-0.356,0.605,73.389,-24.412,178.015
1.470,0.164,-0.343,0.598,68.611,-27.695,180.351
1.480,0.203,-0.347,0.606,63.802,-28.504,182.672
1.480,0.241,-0.346,0.608,59.908,-25.969,184.015
1.490,0.260,-0.365,0.643,57.359,-23.374,185.099
1.490,0.273,-0.373,0.664,55.908,-20.885,185.908
1.490,0.298,-0.379,0.675,55.221,-18.534,185.802
1.500,0.325,-0.393,0.701,55.038,-15.985,184.824
1.500,0.344,-0.396,0.721,55.359,-12.046,183.908
1.510,0.334,-0.410,0.739,56.473,-8.458,183.313
1.510,0.320,-0.415,0.738,58.107,-5.802,183.115
1.520,0.284,-0.427,0.739,59.252,-5.008,183.725
1.520,0.252,-0.428,0.731,59.420,-5.359,184.962
1.520,0.214,-0.440,0.736,59.802,-8.000,187.130
1.530,0.209,-0.436,0.751,60.198,-10.504,189.847
1.530,0.221,-0.441,0.758,60.794,-12.443,192.412
1.540,0.255,-0.432,0.743,60.534,-14.840,194.595
1.540,0.294,-0.426,0.736,59.664,-16.000,196.412
1.540,0.323,-0.430,0.722,58.870,-15.817,197.053
1.550,0.364,-0.432,0.723,57.557,-15.527,196.779
1.550,0.372,-0.423,0.713,56.534,-16.473,196.198
1.560,0.377,-0.424,0.717,55.160,-17.237,195.573
1.560,0.386,-0.437,0.753,54.779,-16.137,195.740
1.570,0.401,-0.439,0.771,55.374,-13.588,196.702
1.570,0.425,-0.434,0.783,56.260,-9.603,197.618
1.570,0.455,-0.436,0.798,57.420,-5.496,198.550
1.580,0.496,-0.429,0.786,58.198,0.977,199.069
1.580,0.545,-0.418,0.774,58.061,8.305,198.840
1.590,0.563,-0.428,0.779,58.107,14.565,197.695
1.590,0.567,-0.424,0.768,57.802,19.221,195.802
1.600,0.566,-0.429,0.779,57.542,22.427,193.603
1.600,0.548,-0.427,0.775,56.504,23.817,191.679
1.600,0.525,-0.420,0.788,55.924,22.550,190.015
1.610,0.503,-0.431,0.795,56.565,18.931,189.267
1.610,0.501,-0.434,0.806,57.267,15.588,188.290
1.620,0.509,-0.444,0.797,57.023,12.748,185.924
1.620,0.501,-0.442,0.789,55.710,9.191,183.389
1.620,0.491,-0.436,0.806,55.206,5.756,181.405
1.630,0.479,-0.448,0.826,55.481,2.061,180.000
1.630,0.466,-0.457,0.870,57.802,-1.985,179.130
1.640,0.465,-0.458,0.865,59.359,-6.473,178.321
1.640,0.457,-0.458,0.870,61.023,-9.725,177.634
1.640,0.438,-0.467,0.890,63.618,-13.695,178.000
1.650,0.429,-0.464,0.895,67.328,-17.145,178.443
1.650,0.465,-0.457,0.892,70.198,-19.466,177.695
1.660,0.484,-0.439,0.856,71.603,-20.855,176.656
1.660,0.507,-0.428,0.841,71.893,-22.336,175.344
1.670,0.545,-0.404,0.812,72.183,-22.290,173.847
1.670,0.573,-0.394,0.810,72.366,-21.771,172.122
1.670,0.605,-0.375,0.783,71.664,-21.282,169.481
1.680,0.647,-0.351,0.733,70.504,-20.962,166.397
1.680,0.651,-0.355,0.722,68.580,-21.023,162.748
1.690,0.643,-0.348,0.720,67.542,-22.214,159.450
1.690,0.645,-0.339,0.732,66.901,-23.786,156.626
1.700,0.652,-0.328,0.725,65.908,-24.794,153.679
1.700,0.661,-0.324,0.726,64.855,-25.359,150.565
1.700,0.669,-0.311,0.705,63.664,-25.893,147.802
1.710,0.671,-0.310,0.700,62.733,-26.779,145.252
1.710,0.687,-0.298,0.695,62.046,-26.229,142.107
1.720,0.700,-0.281,0.681,60.962,-26.198,139.130
1.720,0.701,-0.274,0.660,59.313,-26.076,135.496
1.730,0.697,-0.265,0.654,57.267,-26.840,132.229
1.730,0.667,-0.257,0.663,55.786,-27.221,130.290
1.730,0.632,-0.268,0.669,55.588,-28.305,128.977
1.740,0.619,-0.265,0.662,55.267,-29.893,127.878
1.740,0.610,-0.265,0.659,54.046,-31.924,126.855
1.750,0.610,-0.249,0.645,53.130,-33.115,126.489
1.750,0.612,-0.248,0.666,52.687,-34.198,126.580
1.760,0.626,-0.236,0.656,52.427,-34.687,126.015
1.760,0.644,-0.226,0.632,51.405,-33.725,125.191
1.760,0.657,-0.220,0.622,50.168,-32.504,125.206
1.770,0.661,-0.197,0.616,48.824,-31.252,124.962
1.770,0.687,-0.187,0.595,47.496,-29.176,123.573
1.780,0.716,-0.180,0.587,45.649,-26.885,121.893
1.780,0.737,-0.167,0.556,42.580,-24.015,118.824
1.790,0.712,-0.156,0.557,39.618,-21.298,116.305
1.790,0.703,-0.152,0.561,37.069,-19.389,114.244
1.790,0.695,-0.153,0.565,34.977,-18.168,111.267
1.800,0.679,-0.152,0.543,31.908,-17.740,107.878
1.800,0.628,-0.149,0.543,28.824,-20.000,105.817
1.810,0.561,-0.149,0.543,27.130,-25.496,105.405
1.810,0.588,-0.164,0.587,22.412,-27.603,106.214
1.820,0.734,-0.175,0.657,20.351,-20.672,103.160
1.820,0.698,-0.147,0.627,27.573,-30.794,97.618
1.820,0.611,-0.131,0.568,24.916,-51.817,94.046
1.830,0.680,-0.141,0.620,19.939,-54.580,93.511
1.830,0.756,-0.135,0.627,22.779,-44.733,91.756
1.840,0.648,-0.136,0.607,26.290,-60.321,88.718
1.840,0.682,-0.122,0.619,23.282,-70.122,88.229
1.840,0.791,-0.109,0.599,22.382,-62.672,86.656
1.850,0.791,-0.115,0.583,24.153,-61.786,83.466
1.850,0.755,-0.112,0.562,21.420,-70.534,79.893
1.860,0.785,-0.090,0.550,15.725,-68.870,77.634
1.860,0.867,-0.095,0.603,13.603,-57.374,74.824
1.870,0.888,-0.109,0.642,14.641,-49.313,71.252
1.870,0.882,-0.109,0.652,14.794,-51.603,67.939
1.870,0.891,-0.099,0.645,14.107,-51.344,65.282
1.880,0.936,-0.094,0.627,13.008,-42.992,62.748
1.880,0.961,-0.096,0.635,13.298,-35.099,60.183
1.890,0.973,-0.086,0.626,12.244,-32.015,56.702
1.890,0.973,-0.084,0.631,12.855,-31.481,53.695
1.890,0.990,-0.075,0.606,12.427,-29.237,50.443
1.900,0.998,-0.078,0.599,11.573,-26.580,47.435
1.900,1.026,-0.065,0.613,10.763,-23.466,44.519
1.910,1.030,-0.060,0.608,10.168,-22.275,40.122
1.910,1.041,-0.065,0.613,9.557,-21.282,34.992
1.920,1.047,-0.047,0.631,8.565,-20.031,30.015
1.920,1.048,-0.048,0.633,7.649,-18.214,24.931
1.920,1.022,-0.048,0.643,6.626,-17.878,20.794
1.930,1.000,-0.048,0.645,6.092,-15.282,16.672
1.930,0.979,-0.049,0.641,4.718,-13.817,13.145
1.940,0.953,-0.026,0.640,3.298,-12.840,8.947
1.940,0.931,-0.029,0.631,1.511,-11.359,5.573
1.940,0.897,-0.019,0.646,-0.061,-10.885,2.733
1.950,0.872,-0.026,0.655,-1.191,-10.489,0.107
1.950,0.839,-0.018,0.658,-2.672,-9.313,-2.153
1.960,0.824,-0.028,0.671,-3.374,-8.031,-3.817
1.960,0.804,-0.030,0.674,-4.305,-6.840,-5.420
1.960,0.780,-0.038,0.677,-5.191,-4.519,-6.763
1.970,0.738,-0.033,0.691,-5.481,-2.076,-6.977
1.970,0.710,-0.045,0.705,-5.527,0.687,-5.924
1.980,0.669,-0.056,0.729,-4.885,3.298,-4.931
1.980,0.642,-0.055,0.733,-4.275,5.832,-3.695
1.980,0.630,-0.056,0.738,-3.649,9.420,-2.534
1.990,0.616,-0.059,0.743,-3.206,12.260,-2.092
1.990,0.606,-0.054,0.755,-3.145,15.008,-2.137
2.000,0.586,-0.050,0.748,-3.008,16.901,-2.443
2.000,0.570,-0.050,0.737,-3.099,18.779,-2.962
2.000,0.542,-0.047,0.741,-3.710,20.656,-3.176
2.010,0.514,-0.044,0.733,-3.985,22.107,-3.008
2.010,0.481,-0.040,0.727,-4.626,22.595,-2.214
2.020,0.444,-0.031,0.735,-5.313,22.000,-1.191
2.020,0.445,-0.031,0.749,-5.954,23.435,0.000
2.020,0.425,-0.031,0.761,-6.366,24.580,1.191
2.030,0.413,-0.035,0.758,-6.550,25.878,2.244
2.030,0.417,-0.029,0.760,-6.427,26.427,3.542
2.040,0.407,-0.025,0.761,-6.718,27.084,4.412
2.040,0.413,-0.025,0.750,-7.084,28.183,5.023
2.040,0.404,-0.026,0.771,-7.511,28.748,5.893
2.050,0.403,-0.034,0.768,-7.832,29.313,6.672
2.050,0.399,-0.033,0.774,-7.542,29.023,7.313
2.060,0.399,-0.032,0.777,-7.954,28.000,8.137
2.060,0.421,-0.036,0.777,-8.733,28.031,8.824
2.060,0.433,-0.038,0.788,-8.824,29.176,9.405
2.070,0.450,-0.051,0.802,-8.397,29.863,9.863
2.070,0.475,-0.045,0.805,-8.061,29.557,9.725
2.080,0.482,-0.045,0.797,-7.771,29.374,9.786
2.080,0.497,-0.047,0.806,-7.588,29.038,9.450
2.080,0.519,-0.051,0.805,-6.840,28.198,9.008
2.090,0.534,-0.054,0.796,-6.198,26.931,8.321
2.090,0.550,-0.046,0.788,-6.458,24.962,7.649
2.100,0.564,-0.049,0.784,-6.840,23.542,6.977
2.100,0.592,-0.050,0.782,-7.511,23.802,6.260
2.100,0.604,-0.056,0.791,-7.710,23.939,5.710
2.110,0.615,-0.060,0.791,-7.710,24.198,5.160
2.110,0.634,-0.062,0.797,-7.511,23.969,4.824
2.120,0.658,-0.064,0.782,-7.511,24.458,3.985
2.120,0.671,-0.065,0.788,-7.267,24.779,3.435
2.120,0.698,-0.067,0.787,-7.420,26.672,2.626
2.130,0.706,-0.073,0.793,-6.855,28.031,1.710
2.130,0.721,-0.077,0.780,-6.412,28.931,0.672
2.140,0.736,-0.087,0.782,-6.046,29.053,-0.824
2.140,0.750,-0.079,0.761,-6.122,28.901,-2.183
2.140,0.782,-0.085,0.743,-6.962,29.908,-3.832
2.150,0.803,-0.082,0.740,-7.008,31.053,-5.954
2.150,0.808,-0.071,0.720,-7.130,29.084,-8.916
2.160,0.824,-0.067,0.707,-8.061,25.939,-12.092
2.160,0.848,-0.070,0.688,-9.557,25.450,-15.481
2.170,0.848,-0.061,0.684,-10.641,24.412,-18.855
2.170,0.851,-0.067,0.650,-11.664,20.015,-22.489
2.170,0.867,-0.061,0.645,-13.466,15.969,-26.794
2.180,0.876,-0.053,0.620,-15.679,13.389,-30.855
2.180,0.890,-0.055,0.616,-17.740,11.344,-34.855
2.190,0.891,-0.063,0.588,-19.664,8.351,-39.481
2.190,0.891,-0.060,0.575,-21.908,4.336,-44.260
2.190,0.891,-0.055,0.549,-24.901,0.947,-49.130
2.200,0.907,-0.054,0.543,-28.183,-1.206,-54.290
2.200,0.922,-0.047,0.535,-31.008,-3.038,-59.893
2.210,0.926,-0.060,0.522,-34.412,-3.740,-65.298
2.210,0.926,-0.060,0.523,-38.366,-4.702,-70.840
2.220,0.922,-0.059,0.523,-42.107,-4.260,-75.313
2.220,0.922,-0.067,0.514,-45.679,-2.031,-79.664
2.220,0.916,-0.072,0.524,-49.496,0.092,-83.267
2.230,0.906,-0.085,0.524,-53.084,2.351,-86.626
2.230,0.908,-0.086,0.516,-56.458,5.450,-90.260
2.240,0.903,-0.101,0.522,-60.092,8.229,-94.046
2.240,0.900,-0.095,0.518,-63.679,11.130,-97.924
2.250,0.891,-0.116,0.520,-67.176,14.137,-101.969
2.250,0.878,-0.129,0.532,-70.137,16.885,-105.664
2.250,0.858,-0.141,0.538,-73.389,19.847,-109.176
2.260,0.844,-0.146,0.526,-77.099,22.519,-112.198
2.260,0.831,-0.151,0.521,-80.947,27.099,-115.084
2.270,0.812,-0.161,0.520,-84.901,31.664,-117.603
2.270,0.778,-0.176,0.524,-89.206,36.916,-119.985
2.280,0.770,-0.187,0.513,-93.206,42.611,-122.351
2.280,0.738,-0.193,0.518,-97.191,47.191,-124.015
2.280,0.709,-0.204,0.505,-101.420,51.313,-125.252
2.290,0.684,-0.218,0.505,-105.832,54.947,-125.924
2.290,0.665,-0.229,0.513,-109.344,57.802,-126.168
2.300,0.649,-0.236,0.500,-112.901,60.519,-126.641
2.300,0.652,-0.244,0.507,-116.214,61.527,-127.084
2.310,0.653,-0.255,0.503,-118.763,60.809,-128.641
2.310,0.654,-0.281,0.534,-119.252,57.435,-131.053
2.320,0.656,-0.295,0.559,-119.008,52.519,-134.214
2.320,0.646,-0.314,0.565,-118.198,47.527,-137.008
2.320,0.637,-0.327,0.595,-116.046,41.542,-139.817
2.330,0.627,-0.342,0.610,-113.573,35.527,-142.061
2.330,0.618,-0.347,0.587,-110.916,29.817,-144.580
2.340,0.625,-0.345,0.579,-109.191,24.885,-146.779
2.340,0.636,-0.344,0.567,-107.985,21.282,-149.496
2.350,0.649,-0.339,0.538,-107.863,19.450,-151.725
2.350,0.603,-0.337,0.566,-104.473,9.191,-151.740
2.360,0.640,-0.384,0.526,-100.626,4.824,-155.221
2.360,0.691,-0.366,0.498,-107.130,13.084,-159.160
2.360,0.669,-0.386,0.479,-109.847,24.977,-160.962
2.370,0.603,-0.423,0.537,-111.740,33.954,-163.725
2.370,0.553,-0.447,0.551,-113.664,42.351,-165.786
2.380,0.510,-0.456,0.564,-116.611,49.023,-166.626
2.380,0.463,-0.464,0.623,-119.939,53.221,-165.924
2.390,0.410,-0.511,0.652,-119.618,56.992,-165.282
2.390,0.355,-0.534,0.716,-118.137,58.015,-162.305
2.390,0.321,-0.553,0.773,-113.405,54.748,-159.847
2.400,0.321,-0.559,0.821,-108.962,51.374,-156.840
2.400,0.343,-0.566,0.834,-104.107,50.443,-154.229
2.410,0.351,-0.573,0.863,-97.496,47.511,-152.733
2.410,0.353,-0.571,0.885,-89.420,40.443,-152.137
2.420,0.363,-0.565,0.892,-81.939,31.374,-151.969
2.420,0.407,-0.552,0.873,-75.450,22.870,-152.336
2.430,0.452,-0.548,0.874,-68.947,15.359,-153.786
2.430,0.502,-0.536,0.855,-64.092,8.565,-155.924
2.430,0.542,-0.540,0.832,-60.244,2.229,-159.527
2.440,0.572,-0.537,0.810,-58.046,-0.885,-163.557
2.440,0.593,-0.547,0.781,-56.779,-0.870,-167.740
2.450,0.591,-0.550,0.750,-57.649,-0.550,-171.328
2.450,0.570,-0.551,0.731,-59.237,-0.565,-174.550
2.460,0.568,-0.558,0.728,-60.992,0.794,-176.534
2.460,0.564,-0.562,0.721,-62.931,3.435,-178.550
2.460,0.568,-0.576,0.720,-65.221,8.137,-180.214
2.470,0.579,-0.585,0.732,-67.252,13.893,-182.137
2.470,0.585,-0.596,0.722,-69.313,20.000,-184.305
2.480,0.580,-0.621,0.747,-70.870,25.466,-186.061
2.480,0.576,-0.623,0.774,-70.931,29.893,-187.863
2.490,0.546,-0.640,0.810,-68.779,31.374,-189.588
2.490,0.516,-0.656,0.836,-66.336,30.595,-190.229
2.490,0.493,-0.659,0.831,-63.954,31.695,-190.840
2.500,0.475,-0.659,0.820,-63.282,35.771,-190.275
2.500,0.462,-0.650,0.812,-62.855,41.099,-189.099
2.510,0.432,-0.645,0.832,-61.618,44.321,-187.786
2.510,0.410,-0.644,0.851,-59.557,45.252,-185.405
2.520,0.409,-0.639,0.848,-57.863,47.374,-182.718
2.520,0.422,-0.638,0.840,-56.076,51.511,-180.702
2.520,0.424,-0.623,0.825,-55.237,56.885,-179.786
2.530,0.442,-0.620,0.802,-53.863,62.458,-179.405
2.530,0.453,-0.617,0.792,-52.916,68.046,-179.756
2.540,0.449,-0.617,0.765,-52.244,72.351,-180.580
2.540,0.459,-0.613,0.737,-52.397,77.573,-181.817
2.550,0.461,-0.611,0.716,-53.511,82.824,-183.878
2.550,0.450,-0.612,0.706,-54.779,85.817,-186.366
2.560,0.431,-0.612,0.684,-56.672,87.527,-188.519
2.560,0.390,-0.617,0.673,-59.008,88.366,-190.244
2.560,0.371,-0.619,0.659,-61.099,88.733,-192.244
2.570,0.336,-0.633,0.661,-62.519,86.458,-194.015
2.570,0.345,-0.599,0.666,-71.420,96.901,-189.740
2.580,0.161,-0.683,0.658,-54.779,62.794,-201.282
2.580,0.118,-0.570,0.553,-63.053,46.473,-192.748
2.590,0.061,-0.683,0.575,-73.344,44.076,-192.031
2.590,0.130,-0.604,0.654,-72.947,50.489,-188.229
2.590,0.036,-0.663,0.737,-64.031,18.366,-189.176
2.600,-0.012,-0.623,0.661,-68.641,-6.855,-186.336
2.600,0.045,-0.612,0.646,-73.786,-8.733,-179.954
2.610,0.064,-0.637,0.728,-71.878,-6.412,-174.260
2.610,0.048,-0.629,0.775,-71.450,-6.748,-167.710
2.620,0.068,-0.633,0.768,-70.641,-3.847,-160.733
2.620,0.104,-0.618,0.767,-70.855,6.565,-152.687
2.620,0.165,-0.623,0.788,-71.221,23.099,-145.573
2.630,0.199,-0.606,0.778,-71.985,40.443,-138.595
2.630,0.216,-0.625,0.793,-73.435,56.626,-135.267
2.640,0.240,-0.617,0.765,-75.374,73.450,-133.008
2.640,0.257,-0.607,0.746,-78.061,90.000,-130.550
2.650,0.209,-0.610,0.761,-79.802,100.336,-128.702
2.650,0.190,-0.612,0.790,-80.702,108.656,-126.031
2.660,0.132,-0.613,0.791,-81.679,111.634,-123.588
2.660,0.097,-0.610,0.801,-81.374,110.580,-120.931
2.660,0.062,-0.602,0.824,-80.443,108.122,-118.046
2.670,0.065,-0.591,0.840,-79.053,103.496,-115.832
2.670,0.078,-0.595,0.869,-76.366,96.321,-114.107
2.680,0.087,-0.585,0.888,-73.267,88.779,-113.527
2.680,0.091,-0.585,0.898,-69.863,80.687,-112.947
2.690,0.083,-0.569,0.896,-66.733,72.214,-112.809
2.690,0.075,-0.557,0.892,-63.313,63.237,-112.336
2.690,0.102,-0.540,0.878,-60.382,55.374,-112.473
2.700,0.118,-0.523,0.868,-58.321,51.160,-112.168
2.700,0.114,-0.514,0.842,-56.443,46.565,-111.664
2.710,0.121,-0.499,0.835,-55.374,45.664,-109.969
2.710,0.128,-0.488,0.796,-54.855,47.405,-108.504
2.720,0.135,-0.477,0.790,-55.282,51.084,-106.061
2.720,0.122,-0.477,0.780,-55.802,52.321,-104.031
2.730,0.132,-0.468,0.765,-57.313,54.855,-102.763
2.730,0.128,-0.465,0.791,-57.771,57.450,-100.977
2.730,0.118,-0.465,0.782,-59.191,60.565,-98.580
2.740,0.098,-0.466,0.798,-59.588,63.802,-96.519
2.740,0.100,-0.462,0.781,-60.122,64.947,-94.092
2.750,0.083,-0.465,0.800,-60.947,64.550,-92.137
2.750,0.083,-0.458,0.794,-61.084,63.252,-90.779
2.760,0.079,-0.470,0.814,-61.573,61.710,-89.160
2.760,0.091,-0.473,0.830,-61.359,60.275,-88.366
2.760,0.071,-0.474,0.836,-60.580,56.672,-87.817
2.770,0.057,-0.474,0.867,-59.115,50.321,-86.916
2.770,0.048,-0.471,0.886,-58.473,46.015,-85.618
2.780,0.038,-0.471,0.906,-56.565,42.229,-84.840
2.780,0.042,-0.472,0.925,-53.344,36.046,-84.779
2.780,0.034,-0.476,0.943,-51.023,31.008,-83.863
2.790,0.033,-0.480,0.953,-47.771,27.740,-83.206
2.790,0.038,-0.479,0.949,-44.534,24.626,-81.908
2.800,0.042,-0.465,0.943,-41.481,22.794,-80.305
2.800,0.028,-0.464,0.938,-38.977,20.168,-79.099
2.810,0.030,-0.457,0.915,-38.107,18.794,-77.344
2.810,0.027,-0.452,0.915,-37.603,17.069,-75.802
2.810,0.003,-0.449,0.906,-37.496,14.321,-73.939
2.820,0.007,-0.449,0.910,-38.000,13.176,-71.695
2.820,0.001,-0.443,0.919,-37.786,12.275,-69.053
2.830,-0.016,-0.437,0.928,-37.389,9.802,-66.046
2.830,-0.005,-0.440,0.942,-37.069,8.595,-62.443
2.840,0.021,-0.428,0.943,-36.565,9.573,-59.496
2.840,0.054,-0.442,0.957,-35.237,10.183,-57.313
2.840,0.075,-0.426,0.971,-33.237,9.802,-55.542
2.850,0.086,-0.432,0.972,-31.573,9.374,-54.427
2.850,0.090,-0.424,0.969,-30.260,9.328,-53.542
2.860,0.100,-0.422,0.968,-28.718,9.725,-52.443
2.860,0.105,-0.416,0.974,-27.786,9.924,-51.649
2.870,0.104,-0.413,0.973,-26.260,9.221,-50.824
2.870,0.108,-0.413,0.984,-24.244,8.198,-50.015
2.870,0.116,-0.418,0.999,-21.527,7.756,-49.084
2.880,0.110,-0.426,0.995,-19.527,7.344,-48.443
2.880,0.108,-0.424,0.997,-16.855,6.901,-47.496
2.890,0.111,-0.422,1.000,-14.305,6.534,-46.519
2.890,0.123,-0.419,1.015,-11.969,7.130,-46.321
2.890,0.137,-0.422,1.015,-9.328,7.374,-45.969
2.900,0.129,-0.415,1.013,-6.885,6.672,-45.786
2.900,0.126,-0.415,1.021,-4.565,5.756,-45.634
2.910,0.120,-0.408,0.997,-2.824,4.076,-45.298
2.910,0.122,-0.403,0.977,-1.542,2.794,-45.176
2.910,0.120,-0.395,0.969,-0.489,1.053,-45.023
2.920,0.121,-0.388,0.956,0.015,-0.901,-45.176
2.920,0.120,-0.381,0.946,0.794,-3.573,-44.809
2.930,0.108,-0.376,0.945,1.115,-6.229,-44.412
2.930,0.100,-0.367,0.926,1.695,-8.534,-43.740
2.940,0.091,-0.362,0.910,2.076,-10.550,-42.855
2.940,0.103,-0.350,0.912,2.443,-12.168,-41.725
2.940,0.104,-0.347,0.906,2.656,-12.962,-40.290
2.950,0.107,-0.346,0.890,3.038,-12.412,-38.672
2.950,0.102,-0.341,0.877,2.779,-11.740,-36.412
2.960,0.106,-0.334,0.875,2.244,-10.229,-33.939
2.960,0.123,-0.333,0.867,1.679,-6.885,-31.267
2.960,0.148,-0.327,0.877,1.069,-2.611,-28.962
2.970,0.161,-0.324,0.871,0.244,0.763,-27.191
2.970,0.166,-0.322,0.883,-0.351,3.527,-25.969
2.980,0.174,-0.324,0.878,-0.534,5.603,-24.931
2.980,0.173,-0.327,0.877,-0.321,5.969,-24.122
2.980,0.174,-0.318,0.885,-0.473,5.740,-23.634
2.990,0.178,-0.319,0.866,-0.046,4.122,-23.359
2.990,0.192,-0.319,0.869,0.092,2.244,-23.481
3.000,0.191,-0.318,0.868,0.565,-0.534,-23.847
3.000,0.190,-0.327,0.854,0.931,-3.634,-24.305
3.000,0.182,-0.318,0.862,0.641,-7.771,-24.366
3.010,0.185,-0.325,0.872,1.038,-11.420,-24.473
3.010,0.181,-0.323,0.879,1.405,-13.847,-23.863
3.020,0.183,-0.323,0.887,2.183,-15.191,-23.069
3.020,0.174,-0.321,0.887,3.069,-15.908,-21.771
3.030,0.172,-0.322,0.877,3.359,-14.916,-20.275
3.030,0.184,-0.319,0.876,3.237,-12.198,-18.412
3.030,0.156,-0.310,0.885,4.153,-11.053,-16.916
3.040,0.206,-0.315,0.878,2.198,-5.664,-14.351
3.040,0.219,-0.325,0.884,2.763,-0.779,-13.130
3.050,0.231,-0.312,0.883,2.840,5.664,-11.588
3.050,0.221,-0.314,0.870,2.565,8.626,-9.878
3.050,0.212,-0.305,0.848,0.992,12.046,-8.122
3.060,0.223,-0.302,0.852,0.031,16.901,-5.908
3.060,0.217,-0.316,0.858,0.031,20.275,-4.672
3.070,0.205,-0.318,0.865,-0.595,21.298,-3.588
3.070,0.191,-0.322,0.859,-0.473,19.740,-2.733
3.070,0.179,-0.322,0.855,-0.962,17.985,-1.786
3.080,0.183,-0.329,0.867,-0.565,14.992,-1.405
3.080,0.186,-0.321,0.867,-0.794,12.672,-1.130
3.090,0.199,-0.322,0.865,-0.992,9.893,-0.901
3.090,0.207,-0.315,0.872,-0.672,7.527,-0.718
3.090,0.208,-0.323,0.865,-0.427,5.771,-0.870
3.100,0.218,-0.319,0.860,-0.031,4.611,-0.916
3.100,0.223,-0.316,0.852,0.641,4.076,-0.947
3.110,0.237,-0.315,0.853,0.824,3.450,-1.130
3.110,0.231,-0.304,0.843,0.977,2.550,-1.664
3.110,0.227,-0.302,0.847,1.099,1.252,-1.817
3.120,0.234,-0.307,0.855,1.389,0.672,-1.939
3.120,0.227,-0.307,0.860,1.878,-0.351,-1.786
3.130,0.223,-0.305,0.850,2.565,-2.534,-1.511
3.130,0.239,-0.306,0.859,3.359,-3.115,-1.511
3.130,0.246,-0.310,0.867,4.015,-2.855,-1.282
3.140,0.243,-0.314,0.867,4.595,-2.305,-0.672
3.140,0.250,-0.317,0.868,5.496,-1.756,-0.198
3.150,0.260,-0.310,0.863,6.168,-0.031,0.092
3.150,0.269,-0.317,0.865,6.763,1.649,0.366
3.150,0.260,-0.315,0.872,6.901,2.779,0.611
3.160,0.267,-0.316,0.854,6.962,4.046,0.947
3.160,0.265,-0.311,0.868,7.160,5.374,1.053
3.170,0.271,-0.310,0.855,6.840,7.099,0.992
3.170,0.276,-0.311,0.850,6.779,7.985,1.084
3.170,0.265,-0.309,0.847,6.794,8.550,0.931
3.180,0.255,-0.307,0.845,6.885,8.687,0.977
3.180,0.249,-0.306,0.842,6.840,8.672,1.084
3.180,0.238,-0.304,0.831,6.534,7.267,1.405
3.190,0.234,-0.301,0.833,6.214,5.450,1.450
3.190,0.232,-0.298,0.827,5.985,3.511,1.679
3.200,0.229,-0.300,0.820,5.481,1.008,1.985
3.200,0.233,-0.304,0.812,5.176,-0.519,2.443
3.200,0.228,-0.296,0.819,4.473,-2.015,2.809
3.210,0.237,-0.299,0.813,3.679,-3.450,3.359
3.210,0.245,-0.290,0.813,3.084,-4.733,3.908
3.220,0.260,-0.293,0.810,2.702,-5.115,4.366
3.220,0.260,-0.288,0.812,2.290,-5.252,4.702
3.220,0.261,-0.291,0.810,1.649,-5.115,5.282
3.230,0.275,-0.291,0.814,1.038,-4.076,6.031
3.230,0.282,-0.290,0.815,0.611,-2.137,6.641
3.230,0.299,-0.288,0.822,0.092,-0.168,7.282
3.240,0.310,-0.290,0.823,0.031,1.145,7.481
3.240,0.309,-0.296,0.842,0.275,1.771,7.282
3.250,0.312,-0.297,0.831,0.885,1.878,6.977
3.250,0.322,-0.294,0.847,1.267,2.000,6.458
3.250,0.333,-0.294,0.859,1.832,2.107,5.679
3.260,0.343,-0.294,0.854,2.687,2.015,5.084
3.260,0.342,-0.295,0.843,3.496,0.733,4.198
3.270,0.355,-0.289,0.849,3.725,-0.534,2.809
3.270,0.349,-0.293,0.841,3.710,-1.985,1.832
3.270,0.353,-0.286,0.834,3.817,-3.389,0.840
3.280,0.344,-0.292,0.838,4.214,-4.550,-0.061
3.280,0.336,-0.290,0.827,4.107,-6.000,-0.718
3.280,0.329,-0.290,0.825,4.107,-6.931,-1.359
3.290,0.319,-0.289,0.808,4.000,-6.947,-1.695
3.290,0.311,-0.284,0.804,3.893,-6.702,-1.649
3.300,0.304,-0.289,0.804,3.969,-6.366,-1.389
3.300,0.310,-0.285,0.819,3.878,-5.863,-0.962
3.300,0.314,-0.286,0.807,4.061,-4.489,-0.763
3.310,0.310,-0.292,0.803,3.802,-2.947,-0.382
3.310,0.299,-0.290,0.801,3.878,-2.046,0.046
3.320,0.286,-0.288,0.791,3.466,-1.740,0.733
3.320,0.290,-0.286,0.787,3.527,-1.908,1.496
3.320,0.283,-0.280,0.787,2.977,-1.863,1.954
3.330,0.288,-0.285,0.798,2.198,-2.305,2.427
3.330,0.299,-0.281,0.795,1.557,-2.916,2.885
3.340,0.313,-0.284,0.812,1.221,-2.641,3.206
3.340,0.316,-0.285,0.812,1.328,-2.840,3.328
3.340,0.319,-0.291,0.810,1.282,-3.008,3.206
3.350,0.334,-0.292,0.814,1.038,-2.824,3.176
3.350,0.339,-0.287,0.805,1.038,-2.336,2.794
3.360,0.335,-0.288,0.811,1.115,-1.496,2.580
3.360,0.334,-0.291,0.814,1.313,-1.237,2.031
3.360,0.324,-0.289,0.816,1.069,-1.313,1.863
3.370,0.316,-0.290,0.819,0.962,-1.496,1.634
3.370,0.312,-0.293,0.817,0.855,-1.664,1.557
3.380,0.312,-0.300,0.820,0.718,-2.031,1.496
3.380,0.311,-0.299,0.831,0.947,-2.244,1.618
3.380,0.314,-0.287,0.830,1.115,-2.351,1.588
3.390,0.319,-0.292,0.831,0.931,-1.466,1.832
3.390,0.315,-0.292,0.815,0.870,-0.641,1.969
3.390,0.309,-0.288,0.813,0.824,0.153,2.092
3.400,0.303,-0.282,0.818,0.733,0.076,2.427
3.400,0.303,-0.286,0.808,0.519,-0.305,2.641
3.410,0.312,-0.280,0.825,0.397,-0.687,2.840
3.410,0.309,-0.277,0.830,0.336,-1.099,2.855
3.410,0.317,-0.280,0.837,0.046,-1.710,2.458
3.420,0.316,-0.276,0.815,-0.244,-1.832,2.534
3.420,0.318,-0.285,0.841,-0.397,-1.924,2.321
3.430,0.319,-0.281,0.833,-0.366,-1.634,2.229
3.430,0.317,-0.278,0.836,-0.122,-1.802,2.122
3.430,0.295,-0.278,0.824,0.153,-2.458,2.305
3.440,0.285,-0.282,0.830,0.214,-4.031,2.397
3.440,0.287,-0.278,0.819,0.351,-5.359,2.489
3.450,0.293,-0.279,0.825,0.427,-6.489,2.687
3.450,0.303,-0.286,0.832,1.099,-7.542,2.718
3.450,0.312,-0.279,0.838,0.977,-7.954,2.489
3.460,0.313,-0.285,0.837,1.389,-7.740,2.458
3.460,0.306,-0.291,0.845,2.168,-7.908,2.641
3.470,0.313,-0.292,0.854,2.412,-7.527,2.840
3.470,0.321,-0.293,0.844,2.641,-6.580,2.870
3.470,0.335,-0.293,0.843,2.947,-5.344,3.023
3.480,0.335,-0.290,0.844,3.344,-4.015,2.504
3.480,0.342,-0.294,0.865,4.229,-2.458,2.321
3.480,0.343,-0.297,0.859,4.840,-0.550,2.046
3.490,0.345,-0.295,0.851,5.328,0.916,2.092
3.490,0.342,-0.305,0.854,5.847,2.794,1.939
3.500,0.339,-0.298,0.850,6.443,4.473,2.046
3.500,0.326,-0.292,0.839,6.992,5.405,2.015
3.500,0.323,-0.292,0.832,7.160,6.168,1.939
3.510,0.312,-0.292,0.827,7.450,6.916,2.092
3.510,0.300,-0.282,0.830,7.695,7.298,2.351
3.520,0.299,-0.282,0.823,7.847,7.710,2.504
3.520,0.288,-0.281,0.811,7.557,7.817,3.038
3.520,0.282,-0.276,0.797,6.992,7.573,3.603
3.530,0.281,-0.271,0.794,6.412,6.458,3.969
3.530,0.284,-0.268,0.804,5.786,5.344,4.397
3.530,0.292,-0.274,0.789,4.885,4.473,4.641
3.540,0.296,-0.265,0.793,4.443,3.496,4.733
3.540,0.303,-0.259,0.797,3.542,2.779,4.855
3.550,0.313,-0.266,0.789,2.733,2.412,4.748
3.550,0.315,-0.262,0.781,1.832,1.786,4.718
3.550,0.321,-0.258,0.782,0.916,0.916,4.519
3.560,0.341,-0.260,0.790,0.031,0.580,3.969
3.560,0.348,-0.255,0.789,-0.733,0.183,3.191
3.570,0.346,-0.255,0.789,-1.603,-0.107,2.565
3.570,0.350,-0.261,0.812,-2.092,-0.885,1.908
3.570,0.348,-0.266,0.801,-2.198,-1.282,1.420
3.580,0.345,-0.265,0.809,-2.260,-1.328,0.840
3.580,0.339,-0.267,0.806,-2.183,-1.252,0.427
3.590,0.335,-0.273,0.815,-2.351,-1.405,0.107
3.590,0.333,-0.270,0.824,-1.832,-1.939,-0.321
3.590,0.326,-0.273,0.817,-1.389,-1.725,-0.321
3.600,0.330,-0.274,0.821,-1.191,-1.664,-0.672
3.600,0.328,-0.272,0.816,-1.450,-1.832,-0.550
3.610,0.327,-0.271,0.818,-1.450,-1.496,-0.534
3.610,0.321,-0.267,0.815,-1.450,-0.382,-0.565
3.610,0.312,-0.275,0.812,-1.832,0.794,-0.076
3.620,0.320,-0.273,0.817,-2.061,1.802,0.061
3.620,0.305,-0.279,0.811,-2.107,2.351,0.275
3.630,0.306,-0.272,0.814,-2.366,2.382,0.122
3.630,0.307,-0.279,0.815,-2.412,1.496,0.244
3.630,0.311,-0.281,0.817,-2.153,0.366,-0.168
3.640,0.313,-0.277,0.821,-2.534,-0.489,-0.198
3.640,0.315,-0.276,0.823,-2.366,-1.130,-0.290
3.650,0.313,-0.283,0.827,-2.718,-1.649,-0.519
3.650,0.314,-0.278,0.817,-2.672,-2.351,-0.519
3.650,0.321,-0.285,0.836,-2.153,-2.611,-1.084
3.660,0.323,-0.282,0.824,-2.031,-2.718,-1.176
3.660,0.318,-0.280,0.829,-1.939,-2.550,-1.099
3.670,0.323,-0.281,0.837,-1.939,-2.214,-1.084
3.670,0.324,-0.283,0.838,-1.603,-0.656,-1.084
3.670,0.326,-0.277,0.838,-1.359,1.084,-0.870
3.680,0.310,-0.275,0.824,-1.344,2.092,-0.733
3.680,0.307,-0.276,0.816,-1.496,2.763,-0.519
3.690,0.304,-0.273,0.820,-1.527,2.947,-0.489
3.690,0.294,-0.278,0.829,-1.618,2.763,-0.076
3.690,0.291,-0.265,0.827,-1.893,2.473,0.275
3.700,0.298,-0.268,0.826,-2.137,2.244,0.794
3.700,0.297,-0.269,0.826,-2.427,2.137,0.977
3.710,0.302,-0.272,0.816,-2.809,2.076,1.038
3.710,0.302,-0.271,0.827,-2.901,1.725,1.145
3.710,0.309,-0.280,0.834,-3.023,1.389,1.145
3.720,0.318,-0.280,0.831,-2.840,1.237,0.809
3.720,0.319,-0.277,0.832,-2.550,1.939,0.504
3.730,0.321,-0.278,0.837,-2.198,2.427,0.412
3.730,0.317,-0.282,0.837,-1.908,2.855,0.260
3.730,0.303,-0.288,0.835,-1.573,2.534,0.382
3.740,0.300,-0.285,0.830,-1.740,1.863,0.458
3.740,0.305,-0.274,0.829,-1.511,1.786,0.260
3.740,0.315,-0.275,0.830,-1.237,2.412,0.153
3.750,0.314,-0.278,0.838,-1.420,2.412,0.046
3.750,0.310,-0.274,0.839,-0.916,1.908,0.015
3.760,0.308,-0.279,0.839,-0.489,1.954,-0.046
3.760,0.303,-0.283,0.837,-0.275,2.061,-0.427
3.760,0.298,-0.281,0.834,-0.122,1.695,-0.183
3.770,0.299,-0.279,0.836,0.183,1.145,-0.397
3.770,0.304,-0.285,0.845,0.611,1.435,-0.290
3.780,0.301,-0.280,0.841,0.672,1.893,-0.336
3.780,0.302,-0.272,0.838,1.053,2.473,-0.122
3.780,0.302,-0.276,0.819,0.962,2.122,0.107
3.790,0.293,-0.272,0.818,0.656,1.908,0.351
3.790,0.297,-0.274,0.810,0.153,2.092,0.519
3.800,0.307,-0.273,0.821,-0.412,2.901,0.855
3.800,0.296,-0.274,0.828,-0.443,3.420,0.916
3.800,0.302,-0.275,0.826,-1.008,3.832,0.977
3.810,0.308,-0.275,0.825,-0.840,3.771,1.237
3.810,0.305,-0.278,0.825,-1.252,3.450,1.099
3.820,0.301,-0.278,0.822,-1.282,3.237,1.084
3.820,0.301,-0.280,0.815,-1.221,2.687,1.191
3.820,0.297,-0.271,0.817,-1.664,1.740,1.328
3.830,0.301,-0.270,0.832,-1.786,1.267,1.511
3.830,0.302,-0.271,0.815,-1.679,1.084,1.511
3.830,0.306,-0.280,0.823,-2.061,1.038,1.420
3.840,0.306,-0.272,0.826,-2.061,1.038,1.405
3.840,0.304,-0.273,0.830,-2.015,1.130,1.420
3.850,0.309,-0.274,0.834,-1.679,1.527,1.466
3.850,0.314,-0.270,0.842,-1.405,1.649,1.328
3.850,0.315,-0.272,0.833,-1.145,1.664,1.145
3.860,0.321,-0.269,0.825,-1.084,1.863,0.672
3.860,0.327,-0.273,0.828,-1.099,1.863,0.122
3.870,0.320,-0.268,0.823,-1.237,1.985,0.076
3.870,0.319,-0.272,0.827,-1.145,1.634,-0.198
3.870,0.318,-0.275,0.819,-1.328,1.191,-0.534
3.880,0.319,-0.272,0.820,-1.710,1.053,-0.748
3.880,0.310,-0.273,0.821,-1.832,1.115,-1.008
3.890,0.305,-0.278,0.838,-1.679,1.084,-0.931
3.890,0.292,-0.277,0.829,-1.435,1.130,-0.672
3.890,0.287,-0.282,0.823,-1.435,0.504,-0.611
3.900,0.286,-0.281,0.809,-1.481,-0.260,-0.504
3.900,0.287,-0.276,0.815,-1.313,-0.244,-0.183
3.910,0.289,-0.280,0.816,-1.481,0.305,-0.107
3.910,0.283,-0.277,0.802,-1.481,0.397,0.366
3.910,0.270,-0.280,0.806,-1.954,0.031,0.473
3.920,0.281,-0.269,0.808,-2.000,0.580,0.870
3.920,0.282,-0.273,0.795,-2.427,0.641,1.374
3.930,0.271,-0.276,0.790,-3.053,0.366,1.878
3.930,0.278,-0.267,0.801,-3.649,-0.061,2.229
3.930,0.287,-0.271,0.807,-3.985,0.183,2.366
3.940,0.298,-0.270,0.816,-4.229,0.427,2.427
3.940,0.305,-0.271,0.828,-4.473,0.076,2.351
3.950,0.313,-0.267,0.830,-4.443,-0.321,2.107
3.950,0.319,-0.277,0.839,-4.489,-0.794,1.725
3.950,0.319,-0.281,0.844,-4.229,-1.130,1.237
3.960,0.322,-0.276,0.849,-3.985,-1.206,0.824
3.960,0.322,-0.282,0.860,-3.405,-1.511,0.656
3.970,0.322,-0.278,0.848,-2.824,-1.237,0.275
3.970,0.318,-0.288,0.847,-2.153,-0.901,0.214
3.970,0.315,-0.280,0.849,-1.344,-0.351,0.015
3.980,0.319,-0.285,0.852,-0.840,0.290,-0.183
3.980,0.310,-0.284,0.834,-0.458,0.763,-0.229
3.980,0.308,-0.283,0.838,-0.443,0.519,-0.336
3.990,0.306,-0.277,0.819,-0.565,0.153,-0.366
3.990,0.306,-0.277,0.826,-0.351,0.656,-0.458
4.000,0.302,-0.279,0.815,-0.641,1.084,-0.397
4.000,0.294,-0.275,0.814,-1.069,1.710,-0.183
4.000,0.280,-0.267,0.809,-1.405,2.321,-0.046
4.010,0.286,-0.270,0.814,-1.588,2.595,0.305
4.010,0.291,-0.277,0.805,-1.969,3.145,0.626
4.020,0.281,-0.273,0.805,-2.595,3.466,1.084
4.020,0.282,-0.277,0.820,-2.809,3.847,1.176
4.020,0.289,-0.279,0.809,-3.145,3.908,1.252
4.030,0.284,-0.273,0.813,-3.359,4.229,1.466
4.030,0.295,-0.277,0.812,-3.618,4.168,1.634
4.040,0.304,-0.278,0.819,-4.000,4.504,1.771
4.040,0.298,-0.278,0.815,-4.321,4.718,1.679
4.040,0.298,-0.269,0.814,-4.214,4.809,1.679
4.050,0.290,-0.279,0.819,-4.595,4.565,1.496
4.050,0.298,-0.276,0.821,-4.855,4.198,1.450
4.060,0.297,-0.276,0.825,-5.115,4.092,1.511
