Time,acce_x,acce_y,acce_z,gyro_x,gyro_y, gyro_z
0.000,0.178,-0.226,0.865,1.481,1.313,0.458
0.000,0.183,-0.240,0.858,1.237,1.664,0.519
0.010,0.184,-0.230,0.862,1.115,1.740,0.183
0.010,0.191,-0.227,0.883,0.931,1.893,-0.031
0.010,0.188,-0.234,0.870,1.267,2.412,-0.321
0.020,0.187,-0.240,0.869,1.221,2.870,-0.702
0.020,0.183,-0.237,0.870,1.649,2.901,-1.008
0.020,0.180,-0.236,0.866,1.649,3.344,-1.298
0.030,0.178,-0.235,0.869,1.908,3.313,-1.435
0.030,0.174,-0.230,0.848,1.634,2.916,-1.649
0.030,0.168,-0.232,0.855,1.374,2.947,-1.802
0.040,0.154,-0.228,0.850,1.298,2.550,-1.756
0.040,0.153,-0.230,0.832,1.130,2.061,-1.740
0.040,0.144,-0.226,0.845,0.412,1.710,-1.496
0.050,0.143,-0.223,0.843,-0.107,1.115,-1.374
0.050,0.140,-0.230,0.836,-0.519,0.733,-1.374
0.050,0.139,-0.226,0.844,-0.779,0.229,-1.176
0.060,0.141,-0.229,0.843,-1.649,-0.229,-1.023
0.060,0.142,-0.227,0.845,-1.954,-0.519,-1.053
0.070,0.150,-0.227,0.852,-2.626,-1.191,-1.008
0.070,0.145,-0.233,0.851,-2.809,-1.542,-1.298
0.070,0.148,-0.235,0.869,-2.855,-2.412,-1.359
0.080,0.156,-0.233,0.872,-3.176,-3.115,-1.527
0.080,0.157,-0.237,0.875,-3.176,-3.328,-1.817
0.090,0.162,-0.240,0.880,-2.962,-4.122,-2.046
0.090,0.161,-0.243,0.897,-2.550,-4.611,-2.351
0.090,0.155,-0.245,0.906,-1.893,-4.763,-1.954
0.100,0.163,-0.258,0.910,-1.069,-4.214,-1.954
0.100,0.156,-0.243,0.900,-0.214,-4.504,-1.725
0.110,0.162,-0.244,0.903,0.076,-4.626,-1.511
0.110,0.155,-0.245,0.900,0.565,-3.985,-1.115
0.110,0.161,-0.238,0.900,0.748,-3.588,-0.809
0.120,0.165,-0.244,0.911,1.130,-3.099,-0.489
0.120,0.158,-0.240,0.904,1.527,-2.718,-0.153
0.130,0.166,-0.237,0.902,1.496,-2.504,0.168
0.130,0.167,-0.237,0.887,1.618,-1.710,0.290
0.130,0.176,-0.238,0.891,1.908,-1.237,0.794
0.140,0.178,-0.238,0.874,1.954,-0.550,0.748
0.140,0.179,-0.244,0.878,2.580,-0.092,0.458
0.150,0.177,-0.234,0.875,2.611,-0.046,0.580
0.150,0.184,-0.239,0.865,2.198,-0.748,0.489
0.150,0.180,-0.236,0.871,2.214,-0.351,0.214
0.160,0.190,-0.236,0.864,2.260,-0.550,0.183
0.160,0.185,-0.240,0.863,2.107,-0.962,-0.107
0.170,0.181,-0.233,0.857,1.985,-1.084,-0.229
0.170,0.181,-0.231,0.852,1.389,-1.817,-0.290
0.170,0.183,-0.225,0.853,1.206,-2.076,-0.366
0.180,0.189,-0.229,0.841,0.962,-2.168,-0.397
0.180,0.190,-0.224,0.848,0.641,-2.473,-0.672
0.190,0.173,-0.227,0.839,0.458,-3.130,-0.916
0.190,0.171,-0.229,0.843,-0.427,-4.137,-0.779
0.190,0.179,-0.225,0.849,-0.672,-4.855,-0.641
0.200,0.187,-0.235,0.865,-0.885,-4.626,-0.794
0.200,0.180,-0.230,0.874,-1.176,-5.023,-1.008
0.210,0.189,-0.230,0.873,-1.115,-5.313,-1.053
0.210,0.189,-0.234,0.878,-0.611,-5.695,-1.221
0.210,0.181,-0.230,0.895,-0.321,-6.641,-1.511
0.220,0.189,-0.236,0.889,-0.168,-7.313,-1.832
0.220,0.201,-0.235,0.884,0.809,-6.122,-2.076
0.230,0.208,-0.233,0.881,1.634,-5.053,-2.534
0.230,0.204,-0.227,0.872,1.527,-4.336,-2.611
0.230,0.192,-0.229,0.859,1.756,-3.573,-2.595
0.240,0.195,-0.229,0.869,1.863,-2.565,-2.748
0.240,0.188,-0.223,0.864,1.725,-1.435,-3.069
0.250,0.186,-0.229,0.857,1.282,-1.069,-3.191
0.250,0.184,-0.227,0.846,0.870,-0.412,-3.176
0.250,0.176,-0.227,0.863,0.214,0.031,-3.130
0.260,0.169,-0.227,0.866,-0.076,0.458,-2.916
0.260,0.168,-0.234,0.870,0.168,0.824,-3.115
0.270,0.170,-0.237,0.871,0.534,1.450,-2.947
0.270,0.161,-0.233,0.866,1.176,1.939,-2.855
0.270,0.153,-0.245,0.872,1.069,1.924,-2.611
0.280,0.161,-0.241,0.869,1.466,2.061,-2.489
0.280,0.160,-0.245,0.870,1.832,2.534,-2.565
0.290,0.154,-0.239,0.860,2.076,2.702,-2.489
0.290,0.147,-0.237,0.856,2.000,2.870,-2.351
0.290,0.146,-0.235,0.851,1.740,2.626,-2.214
0.300,0.140,-0.241,0.851,1.527,2.595,-2.198
0.300,0.141,-0.238,0.847,1.328,2.275,-2.183
0.310,0.135,-0.240,0.844,1.206,2.031,-1.863
0.310,0.133,-0.238,0.840,0.733,1.359,-1.634
0.310,0.135,-0.241,0.845,0.198,1.191,-1.466
0.320,0.131,-0.233,0.857,0.137,0.916,-1.145
0.320,0.133,-0.240,0.861,0.290,0.473,-1.023
0.320,0.130,-0.243,0.856,0.321,-0.290,-0.748
0.330,0.134,-0.237,0.862,0.580,-0.702,-0.702
0.330,0.142,-0.244,0.848,0.626,-0.809,-0.580
0.340,0.138,-0.240,0.846,0.611,-1.160,-0.397
0.340,0.140,-0.241,0.849,0.718,-1.496,-0.382
0.340,0.140,-0.240,0.851,0.840,-1.832,-0.412
0.350,0.139,-0.242,0.851,0.855,-2.305,-0.397
0.350,0.146,-0.240,0.841,0.641,-2.641,-0.290
0.360,0.146,-0.238,0.837,0.321,-2.779,-0.260
0.360,0.139,-0.235,0.839,0.061,-2.733,0.076
0.360,0.149,-0.237,0.833,-0.046,-2.458,0.092
0.370,0.142,-0.232,0.826,-0.076,-3.221,0.290
0.370,0.146,-0.236,0.829,-0.885,-3.908,0.412
0.380,0.164,-0.229,0.821,-1.496,-4.244,0.336
0.380,0.175,-0.229,0.837,-2.153,-3.939,0.198
0.380,0.176,-0.234,0.838,-2.305,-3.191,-0.244
0.390,0.181,-0.229,0.845,-2.290,-2.580,-0.382
0.390,0.169,-0.230,0.852,-1.969,-1.634,-0.305
0.400,0.170,-0.226,0.843,-2.305,-0.947,-0.321
0.400,0.169,-0.223,0.846,-2.290,-0.366,-0.107
0.400,0.167,-0.226,0.846,-2.122,-0.076,0.107
0.410,0.167,-0.225,0.846,-2.198,0.000,0.092
0.410,0.168,-0.226,0.858,-2.443,-0.122,0.351
0.420,0.166,-0.221,0.860,-2.443,-0.534,0.427
0.420,0.161,-0.227,0.864,-2.580,-0.718,0.366
0.420,0.177,-0.220,0.862,-2.748,-0.809,0.122
0.430,0.177,-0.219,0.873,-2.824,-0.916,0.244
0.430,0.176,-0.214,0.877,-2.412,-0.840,-0.061
0.440,0.177,-0.215,0.873,-2.092,-1.374,-0.275
0.440,0.177,-0.214,0.874,-2.214,-1.908,-0.321
0.450,0.182,-0.213,0.870,-2.290,-2.137,-0.473
0.450,0.186,-0.213,0.868,-1.924,-2.046,-0.443
0.450,0.185,-0.214,0.863,-2.031,-2.229,-0.260
0.460,0.183,-0.209,0.868,-2.122,-2.168,-0.260
0.460,0.190,-0.201,0.864,-2.595,-1.817,-0.427
0.470,0.195,-0.200,0.860,-2.962,-1.527,-0.702
0.470,0.198,-0.202,0.861,-3.344,-1.130,-0.962
0.470,0.196,-0.204,0.864,-3.053,-0.977,-1.481
0.480,0.183,-0.200,0.858,-3.115,-0.824,-1.511
0.480,0.175,-0.201,0.850,-3.221,-1.038,-1.405
0.490,0.179,-0.200,0.857,-3.664,-1.481,-1.695
0.490,0.178,-0.193,0.857,-3.832,-1.802,-2.076
0.490,0.178,-0.204,0.865,-4.076,-2.321,-2.412
0.500,0.172,-0.210,0.879,-4.137,-3.008,-2.458
0.500,0.157,-0.208,0.872,-4.214,-3.847,-2.351
0.510,0.164,-0.217,0.867,-4.351,-4.855,-2.427
0.510,0.167,-0.214,0.880,-4.321,-4.977,-2.260
0.510,0.170,-0.222,0.881,-4.153,-4.473,-2.534
0.520,0.166,-0.219,0.883,-3.847,-4.504,-2.382
0.520,0.159,-0.229,0.876,-3.756,-4.504,-2.198
0.530,0.148,-0.222,0.881,-3.588,-4.931,-1.756
0.530,0.161,-0.224,0.878,-3.786,-4.275,-1.603
0.530,0.166,-0.223,0.885,-3.710,-3.649,-1.237
0.540,0.164,-0.228,0.891,-3.863,-3.191,-1.069
0.540,0.165,-0.226,0.899,-3.924,-3.053,-0.718
0.550,0.157,-0.228,0.888,-3.878,-3.099,-0.550
0.550,0.159,-0.227,0.905,-3.664,-2.504,-0.153
0.560,0.167,-0.236,0.905,-2.824,-1.710,0.153
0.560,0.170,-0.236,0.906,-2.427,-0.931,0.382
0.560,0.169,-0.234,0.914,-1.771,-0.687,0.473
0.570,0.167,-0.239,0.913,-1.573,-1.221,0.382
0.570,0.171,-0.233,0.907,-1.237,-2.031,0.137
0.580,0.178,-0.233,0.907,-0.779,-2.107,-0.046
0.580,0.172,-0.237,0.917,-0.473,-2.366,-0.137
0.580,0.177,-0.234,0.914,-0.229,-2.641,-0.092
0.590,0.171,-0.235,0.926,0.137,-2.366,-0.061
0.590,0.178,-0.237,0.926,0.366,-1.802,0.061
0.600,0.180,-0.234,0.909,0.931,-1.053,0.015
0.600,0.183,-0.243,0.922,0.931,-0.305,0.076
0.600,0.186,-0.230,0.913,1.313,0.412,0.092
0.610,0.186,-0.230,0.908,1.344,1.206,0.092
0.610,0.185,-0.239,0.915,1.359,1.695,0.000
0.610,0.181,-0.240,0.911,1.863,2.214,-0.168
0.620,0.183,-0.239,0.895,2.046,2.840,0.000
0.620,0.177,-0.236,0.899,2.336,3.221,0.015
0.630,0.172,-0.237,0.897,2.702,3.542,0.122
0.630,0.161,-0.229,0.887,2.794,3.511,0.321
0.630,0.165,-0.230,0.884,3.191,3.420,0.519
0.640,0.160,-0.229,0.873,3.160,3.069,0.656
0.640,0.157,-0.223,0.877,2.931,2.931,0.763
0.650,0.170,-0.223,0.865,2.824,2.702,0.687
0.650,0.167,-0.220,0.864,2.824,2.382,0.748
0.650,0.170,-0.224,0.853,2.382,1.786,0.763
0.660,0.172,-0.224,0.850,2.107,1.145,0.733
0.660,0.172,-0.221,0.858,1.817,1.374,0.672
0.660,0.176,-0.223,0.859,1.695,1.206,0.687
0.670,0.180,-0.222,0.850,1.771,1.435,0.672
0.670,0.178,-0.218,0.852,1.634,1.802,0.260
0.680,0.179,-0.217,0.842,1.634,2.015,0.198
0.680,0.174,-0.227,0.829,1.115,1.786,0.229
0.680,0.175,-0.223,0.831,1.053,1.557,0.183
0.690,0.173,-0.217,0.837,0.580,1.252,0.000
0.690,0.177,-0.213,0.835,0.443,1.267,0.305
0.690,0.177,-0.221,0.836,0.137,0.855,0.122
0.700,0.170,-0.224,0.842,-0.168,0.550,0.275
0.700,0.174,-0.221,0.843,-0.321,-0.183,0.137
0.710,0.175,-0.218,0.845,-0.473,-0.901,-0.183
0.710,0.176,-0.217,0.841,-0.779,-1.542,-0.366
0.710,0.178,-0.223,0.846,-0.397,-1.206,-0.351
0.720,0.166,-0.226,0.847,-0.198,-0.977,-0.321
0.720,0.167,-0.224,0.844,-0.412,-1.389,-0.122
0.730,0.179,-0.221,0.849,-0.504,-1.649,-0.321
0.730,0.176,-0.222,0.842,-0.656,-0.901,-0.214
0.740,0.174,-0.217,0.839,-0.336,-0.244,0.092
0.740,0.173,-0.224,0.861,-0.275,-0.031,0.214
0.740,0.169,-0.230,0.865,0.107,0.229,0.198
0.750,0.173,-0.227,0.855,-0.168,0.550,0.427
0.750,0.177,-0.222,0.860,-0.382,1.023,0.504
0.750,0.180,-0.224,0.859,0.000,1.649,0.412
0.760,0.182,-0.223,0.876,0.092,2.153,0.611
0.760,0.177,-0.219,0.862,0.229,2.366,0.641
0.770,0.170,-0.222,0.854,-0.046,2.473,0.550
0.770,0.169,-0.216,0.848,-0.260,2.122,0.458
0.770,0.176,-0.218,0.844,-0.168,2.092,0.443
0.780,0.171,-0.217,0.851,-0.260,1.863,0.382
0.780,0.169,-0.217,0.849,-0.611,1.466,0.473
0.790,0.174,-0.209,0.838,-0.641,1.298,0.733
0.790,0.174,-0.207,0.829,-0.901,1.481,0.534
0.790,0.169,-0.207,0.833,-1.099,1.496,0.519
0.800,0.167,-0.202,0.830,-1.542,1.344,0.641
0.800,0.165,-0.200,0.826,-1.939,0.977,0.641
0.810,0.169,-0.204,0.821,-2.672,0.962,0.702
0.810,0.172,-0.206,0.831,-3.618,0.611,0.718
0.810,0.172,-0.204,0.833,-3.634,0.427,0.656
0.820,0.177,-0.209,0.842,-4.137,0.076,0.733
0.820,0.175,-0.208,0.844,-4.473,0.000,0.733
0.820,0.169,-0.211,0.860,-4.580,-0.397,0.580
0.830,0.165,-0.215,0.872,-4.412,-0.977,0.473
0.830,0.170,-0.219,0.875,-4.565,-1.542,0.641
0.840,0.179,-0.219,0.882,-4.458,-1.847,0.489
0.840,0.182,-0.223,0.888,-4.260,-1.954,0.550
0.840,0.178,-0.226,0.895,-3.756,-1.985,0.534
0.850,0.177,-0.224,0.891,-3.023,-1.603,0.702
0.850,0.178,-0.227,0.901,-2.519,-0.916,0.794
0.860,0.184,-0.227,0.896,-1.908,-0.382,0.855
0.860,0.185,-0.223,0.901,-1.298,0.290,0.916
0.860,0.181,-0.227,0.903,-0.916,1.328,0.794
0.870,0.195,-0.225,0.887,-0.489,1.664,0.733
0.870,0.183,-0.225,0.899,-0.229,2.412,0.748
0.880,0.186,-0.221,0.882,-0.153,2.626,0.718
0.880,0.181,-0.220,0.884,-0.153,2.183,0.382
0.880,0.185,-0.218,0.884,-0.015,2.076,0.229
0.890,0.187,-0.220,0.875,-0.229,2.458,-0.122
0.890,0.188,-0.219,0.893,0.107,2.427,-0.229
0.900,0.184,-0.215,0.880,0.519,2.061,-0.443
0.900,0.174,-0.210,0.878,0.504,1.282,-0.305
0.900,0.180,-0.209,0.876,0.290,1.099,-0.779
0.910,0.187,-0.212,0.870,-0.015,0.748,-0.824
0.910,0.178,-0.209,0.865,-0.305,0.534,-1.053
0.920,0.174,-0.203,0.860,-0.458,0.122,-1.359
0.920,0.185,-0.211,0.866,-0.824,-0.214,-1.466
0.920,0.173,-0.207,0.872,-1.359,-0.275,-1.618
0.930,0.166,-0.206,0.851,-1.863,-0.916,-1.603
0.930,0.172,-0.208,0.866,-2.214,-1.130,-1.542
0.940,0.163,-0.218,0.872,-2.443,-1.145,-1.481
0.940,0.166,-0.213,0.881,-2.702,-0.809,-1.206
0.940,0.158,-0.222,0.871,-2.824,-0.443,-1.099
0.950,0.169,-0.216,0.866,-2.855,-0.519,-1.084
0.950,0.165,-0.217,0.874,-2.916,-0.351,-0.992
0.960,0.167,-0.220,0.859,-3.221,-0.427,-0.748
0.960,0.161,-0.216,0.869,-3.405,-0.489,-0.687
0.960,0.167,-0.227,0.874,-3.573,-0.565,-0.443
0.970,0.165,-0.223,0.870,-3.389,-0.275,-0.382
0.970,0.167,-0.227,0.883,-3.206,-0.427,-0.031
0.980,0.168,-0.229,0.883,-2.870,-0.504,-0.122
0.980,0.174,-0.226,0.902,-2.489,-0.015,-0.137
0.980,0.185,-0.231,0.898,-1.740,1.115,-0.153
0.990,0.183,-0.233,0.889,-0.733,2.489,-0.565
0.990,0.172,-0.234,0.903,0.382,3.237,-0.382
1.000,0.159,-0.228,0.898,0.992,3.252,-0.061
1.000,0.160,-0.231,0.888,1.466,2.931,0.061
1.000,0.161,-0.229,0.880,2.168,3.496,-0.107
1.010,0.156,-0.227,0.875,2.794,4.305,0.046
1.010,0.150,-0.216,0.867,3.160,3.725,0.031
1.020,0.147,-0.215,0.859,2.824,2.916,0.275
1.020,0.157,-0.216,0.843,2.443,2.519,-0.031
1.020,0.149,-0.216,0.842,2.000,2.473,-0.015
1.030,0.148,-0.214,0.844,1.588,2.107,-0.031
1.030,0.135,-0.210,0.830,0.779,1.420,0.244
1.040,0.131,-0.210,0.839,0.000,0.366,0.397
1.040,0.134,-0.213,0.827,-0.580,-0.229,0.580
1.040,0.130,-0.209,0.842,-1.237,-0.916,0.733
1.050,0.124,-0.214,0.847,-1.618,-1.878,1.115
1.050,0.137,-0.226,0.858,-1.802,-2.504,1.573
1.060,0.136,-0.225,0.862,-2.183,-2.718,1.710
1.060,0.137,-0.225,0.869,-1.847,-2.061,1.908
1.060,0.140,-0.228,0.863,-1.664,-2.183,2.290
1.070,0.136,-0.217,0.877,-1.450,-2.153,2.366
1.070,0.141,-0.226,0.873,-1.328,-2.122,2.366
1.080,0.145,-0.221,0.867,-1.313,-1.802,2.458
1.080,0.144,-0.224,0.870,-0.977,-1.221,2.824
1.080,0.137,-0.219,0.872,-0.916,-1.084,2.763
1.090,0.136,-0.217,0.870,-1.038,-1.191,2.931
1.090,0.135,-0.218,0.872,-0.916,-1.634,3.038
1.100,0.138,-0.228,0.880,-1.115,-1.786,3.267
1.100,0.138,-0.223,0.882,-1.267,-1.679,3.450
1.100,0.139,-0.226,0.882,-0.763,-1.588,3.924
1.110,0.132,-0.227,0.874,-0.565,-1.359,4.137
1.110,0.130,-0.226,0.886,-0.489,-1.145,4.504
1.120,0.131,-0.222,0.884,-0.397,-0.824,4.840
1.120,0.132,-0.230,0.880,-0.076,-0.565,5.084
1.120,0.130,-0.228,0.881,-0.092,-0.427,5.435
1.130,0.124,-0.232,0.881,0.000,-0.336,5.924
1.130,0.131,-0.227,0.885,0.244,-0.061,6.321
1.130,0.133,-0.225,0.899,0.412,0.412,6.534
1.140,0.134,-0.228,0.896,0.794,0.733,6.702
1.140,0.128,-0.230,0.885,0.947,0.458,6.458
1.150,0.121,-0.232,0.903,1.176,-0.046,6.534
1.150,0.107,-0.232,0.890,1.038,-1.542,6.687
1.150,0.104,-0.229,0.901,1.145,-3.145,7.176
1.160,0.099,-0.235,0.900,1.511,-4.000,7.664
1.160,0.097,-0.234,0.903,1.740,-4.260,8.168
1.170,0.093,-0.229,0.905,1.969,-4.748,8.885
1.170,0.099,-0.238,0.898,2.183,-5.252,9.328
1.170,0.101,-0.233,0.912,2.351,-5.435,9.725
1.180,0.107,-0.234,0.893,2.687,-5.130,10.061
1.180,0.113,-0.237,0.896,2.779,-4.977,10.702
1.190,0.110,-0.227,0.897,2.718,-5.710,11.099
1.190,0.114,-0.224,0.891,2.718,-5.511,11.496
1.190,0.117,-0.235,0.911,2.763,-4.824,11.939
1.200,0.111,-0.235,0.912,3.267,-3.695,12.473
1.200,0.104,-0.239,0.914,3.832,-3.252,13.099
1.210,0.103,-0.234,0.915,3.893,-3.191,13.679
1.210,0.102,-0.237,0.912,4.260,-3.130,14.305
1.210,0.093,-0.244,0.925,4.977,-3.069,14.702
1.220,0.090,-0.246,0.926,5.481,-2.992,15.374
1.220,0.074,-0.247,0.927,6.153,-3.176,15.985
1.230,0.067,-0.248,0.915,6.382,-3.115,16.580
1.230,0.060,-0.250,0.920,6.779,-3.374,17.450
1.230,0.045,-0.259,0.920,7.237,-3.954,18.351
1.240,0.021,-0.258,0.931,8.137,-4.275,19.298
1.240,0.011,-0.267,0.918,8.641,-4.305,20.473
1.250,-0.000,-0.265,0.918,9.573,-4.076,21.527
1.250,-0.012,-0.265,0.916,10.092,-4.015,23.115
1.250,-0.019,-0.272,0.922,10.931,-4.061,24.718
1.260,-0.027,-0.267,0.934,11.771,-3.344,26.565
1.260,-0.028,-0.270,0.923,12.214,-2.672,28.015
1.270,-0.047,-0.268,0.911,12.611,-2.046,29.557
1.270,-0.048,-0.277,0.913,12.763,-0.763,31.573
1.270,-0.061,-0.277,0.918,13.954,-0.076,32.992
1.280,-0.080,-0.274,0.909,14.366,0.641,35.130
1.280,-0.093,-0.274,0.918,14.733,0.870,37.267
1.290,-0.115,-0.275,0.909,15.282,0.947,39.527
1.290,-0.126,-0.280,0.915,15.756,0.992,41.664
1.300,-0.137,-0.285,0.918,16.916,0.489,44.137
1.300,-0.138,-0.289,0.919,17.618,-0.321,46.275
1.300,-0.153,-0.290,0.932,18.412,-1.267,48.779
1.310,-0.169,-0.299,0.919,19.206,-2.336,51.023
1.310,-0.185,-0.303,0.931,20.244,-3.603,53.588
1.320,-0.194,-0.299,0.928,20.885,-5.756,56.275
1.320,-0.195,-0.305,0.932,21.496,-8.168,58.580
1.320,-0.196,-0.315,0.927,22.366,-10.351,60.992
1.330,-0.204,-0.320,0.935,23.130,-12.321,63.237
1.330,-0.210,-0.323,0.933,24.107,-14.168,65.618
1.340,-0.220,-0.323,0.937,25.191,-16.626,67.954
1.340,-0.235,-0.328,0.938,26.733,-19.115,70.214
1.350,-0.241,-0.329,0.929,27.756,-22.458,72.748
1.350,-0.249,-0.324,0.919,28.534,-25.511,75.206
1.350,-0.260,-0.328,0.917,29.191,-28.534,77.802
1.360,-0.278,-0.331,0.927,30.443,-31.756,81.221
1.360,-0.292,-0.335,0.926,31.435,-34.916,84.473
1.370,-0.303,-0.336,0.926,33.084,-38.092,88.366
1.370,-0.293,-0.335,0.914,34.015,-40.748,92.519
1.380,-0.285,-0.329,0.899,34.458,-42.427,96.565
1.380,-0.265,-0.329,0.895,34.870,-43.557,98.977
1.380,-0.245,-0.334,0.890,35.802,-43.954,102.809
1.390,-0.226,-0.332,0.870,35.496,-44.168,106.061
1.390,-0.209,-0.332,0.846,34.687,-44.137,108.504
1.400,-0.186,-0.326,0.851,33.832,-43.664,110.809
1.400,-0.176,-0.330,0.831,32.702,-44.000,113.298
1.410,-0.169,-0.337,0.845,31.893,-43.756,115.573
1.410,-0.160,-0.344,0.844,31.099,-43.420,117.924
1.410,-0.141,-0.346,0.841,30.076,-42.809,120.397
1.420,-0.131,-0.357,0.848,29.389,-41.832,123.069
1.420,-0.136,-0.360,0.868,29.786,-41.634,125.511
1.430,-0.135,-0.372,0.880,30.489,-40.901,128.473
1.430,-0.130,-0.378,0.881,31.374,-39.313,131.557
1.440,-0.132,-0.376,0.886,32.733,-38.366,134.046
1.440,-0.123,-0.384,0.899,33.802,-38.641,136.366
1.440,-0.121,-0.387,0.893,34.687,-39.252,138.656
1.450,-0.117,-0.382,0.894,35.481,-39.649,141.130
1.450,-0.100,-0.368,0.903,35.954,-40.153,143.435
1.460,-0.085,-0.363,0.878,36.244,-41.038,145.542
1.460,-0.067,-0.354,0.860,36.122,-41.802,147.160
1.470,-0.046,-0.349,0.847,35.542,-42.779,148.763
1.470,-0.038,-0.345,0.842,35.008,-44.153,149.985
1.470,-0.024,-0.346,0.836,34.534,-45.557,151.221
1.480,-0.008,-0.341,0.846,33.939,-47.405,152.443
1.480,-0.004,-0.344,0.833,33.496,-49.740,153.527
1.490,0.001,-0.348,0.841,32.885,-52.336,154.733
1.490,0.001,-0.355,0.843,32.656,-54.809,155.954
1.500,0.010,-0.360,0.851,33.298,-57.634,157.603
1.500,0.030,-0.359,0.859,34.031,-59.496,158.672
1.500,0.061,-0.362,0.856,34.855,-60.214,159.145
1.510,0.095,-0.367,0.841,35.145,-59.038,159.160
1.510,0.110,-0.374,0.841,34.702,-57.252,159.282
1.520,0.119,-0.376,0.845,34.870,-54.580,159.344
1.520,0.131,-0.376,0.864,35.313,-50.595,160.122
1.530,0.122,-0.377,0.871,36.611,-46.351,161.710
1.530,0.127,-0.383,0.874,37.710,-41.588,163.069
1.530,0.160,-0.375,0.860,37.908,-35.939,164.031
1.540,0.189,-0.378,0.841,38.351,-30.519,164.305
1.540,0.219,-0.372,0.857,38.840,-26.137,164.031
1.550,0.256,-0.358,0.817,39.466,-21.817,163.893
1.550,0.195,-0.370,0.811,38.092,-15.206,164.504
1.560,0.083,-0.375,0.794,36.626,-16.702,168.382
1.560,0.050,-0.382,0.795,35.511,-21.237,172.550
1.560,0.118,-0.385,0.811,36.107,-26.534,174.763
1.570,0.193,-0.383,0.816,35.802,-30.214,175.389
1.570,0.220,-0.373,0.806,35.313,-33.038,175.725
1.580,0.210,-0.376,0.795,35.557,-37.557,175.924
1.580,0.225,-0.378,0.777,35.328,-42.595,175.725
1.590,0.262,-0.383,0.751,34.366,-45.145,175.099
1.590,0.291,-0.380,0.757,33.847,-45.496,174.733
1.590,0.293,-0.385,0.764,33.542,-45.527,174.595
1.600,0.308,-0.389,0.758,32.992,-45.130,174.366
1.600,0.324,-0.390,0.748,31.527,-43.053,173.725
1.610,0.329,-0.399,0.744,30.183,-39.908,173.435
1.610,0.313,-0.412,0.756,28.656,-37.924,173.298
1.620,0.298,-0.415,0.784,27.618,-37.145,173.053
1.620,0.286,-0.419,0.799,27.176,-35.802,174.153
1.620,0.281,-0.418,0.798,27.160,-35.130,175.328
1.630,0.285,-0.426,0.806,27.191,-33.832,176.336
1.630,0.288,-0.428,0.821,27.954,-33.069,177.618
1.640,0.304,-0.431,0.834,28.794,-30.748,179.649
1.640,0.316,-0.436,0.835,30.397,-27.740,181.282
1.650,0.330,-0.431,0.824,32.275,-25.466,182.321
1.650,0.334,-0.434,0.820,33.435,-25.389,183.237
1.650,0.351,-0.419,0.807,34.275,-26.473,183.649
1.660,0.363,-0.423,0.790,34.947,-25.740,183.771
1.660,0.385,-0.425,0.788,35.008,-24.977,183.863
1.670,0.402,-0.423,0.784,35.527,-25.008,183.496
1.670,0.410,-0.417,0.771,35.542,-25.863,182.855
1.670,0.434,-0.417,0.748,34.748,-25.053,181.511
1.680,0.474,-0.417,0.737,33.985,-21.771,180.412
1.680,0.486,-0.398,0.731,33.878,-18.076,179.130
1.690,0.468,-0.404,0.731,34.000,-19.466,177.649
1.690,0.459,-0.401,0.708,33.191,-23.298,176.046
1.700,0.481,-0.401,0.691,31.695,-25.740,174.244
1.700,0.470,-0.403,0.682,30.153,-27.603,172.504
1.700,0.456,-0.401,0.680,28.992,-31.908,170.641
1.710,0.439,-0.411,0.688,28.763,-38.489,169.099
1.710,0.439,-0.409,0.688,28.000,-44.779,167.710
1.720,0.447,-0.400,0.681,26.992,-49.023,166.870
1.720,0.438,-0.404,0.678,26.061,-52.351,167.038
1.730,0.430,-0.418,0.689,26.000,-54.977,168.382
1.730,0.409,-0.427,0.703,27.405,-55.420,171.023
1.730,0.410,-0.424,0.716,28.763,-54.519,174.031
1.740,0.419,-0.442,0.727,29.878,-53.786,177.069
1.740,0.428,-0.438,0.734,32.061,-51.664,180.550
1.750,0.447,-0.443,0.728,34.290,-48.321,183.603
1.750,0.484,-0.443,0.728,36.046,-43.603,185.954
1.760,0.534,-0.432,0.692,36.275,-36.321,187.496
1.760,0.578,-0.432,0.698,35.588,-29.023,187.908
1.760,0.606,-0.442,0.691,37.359,-23.893,186.412
1.770,0.634,-0.425,0.699,39.145,-21.084,183.924
1.770,0.647,-0.420,0.658,40.260,-21.466,180.885
1.780,0.625,-0.408,0.598,37.130,-31.053,177.664
1.780,0.656,-0.371,0.522,31.069,-38.595,172.229
1.790,0.755,-0.351,0.510,28.061,-32.931,166.061
1.790,0.787,-0.334,0.522,27.359,-29.435,159.084
1.790,0.762,-0.333,0.540,25.389,-29.450,152.458
1.800,0.745,-0.312,0.485,22.855,-27.374,147.115
1.800,0.717,-0.311,0.430,18.489,-23.893,141.985
1.810,0.695,-0.300,0.454,14.260,-23.023,136.855
1.810,0.700,-0.305,0.488,9.160,-21.969,132.672
1.820,0.692,-0.313,0.518,4.748,-19.191,128.214
1.820,0.651,-0.311,0.526,1.313,-16.840,125.023
1.820,0.578,-0.323,0.568,-2.458,-16.947,123.939
1.830,0.542,-0.339,0.629,-5.557,-18.656,123.863
1.830,0.541,-0.348,0.664,-6.153,-17.893,123.863
1.840,0.550,-0.365,0.716,-5.389,-19.328,123.008
1.840,0.563,-0.352,0.736,-4.458,-20.794,121.786
1.840,0.575,-0.354,0.757,-3.160,-21.420,120.107
1.850,0.622,-0.343,0.773,-1.557,-22.504,117.908
1.850,0.650,-0.340,0.771,-0.351,-23.969,114.168
1.860,0.700,-0.331,0.760,-0.092,-25.649,110.076
1.860,0.761,-0.307,0.773,0.061,-28.000,104.580
1.870,0.806,-0.314,0.759,-0.214,-29.130,98.611
1.870,0.844,-0.309,0.750,-3.069,-27.618,92.153
1.870,0.870,-0.297,0.768,-5.634,-22.733,87.282
1.880,0.869,-0.307,0.788,-6.076,-19.511,81.389
1.880,0.853,-0.318,0.824,-7.252,-18.336,75.832
1.890,0.876,-0.308,0.831,-8.916,-15.786,70.809
1.890,0.892,-0.327,0.856,-10.015,-9.557,65.237
1.900,0.891,-0.328,0.868,-10.489,-3.771,59.939
1.900,0.840,-0.336,0.910,-10.489,0.076,55.298
1.900,0.809,-0.349,0.943,-9.786,2.153,51.405
1.910,0.788,-0.355,0.963,-8.351,4.275,47.588
1.910,0.758,-0.356,1.002,-6.427,6.687,44.198
1.920,0.735,-0.363,1.005,-4.046,6.931,41.359
1.920,0.701,-0.375,1.024,-1.542,6.565,38.733
1.920,0.691,-0.371,1.034,1.389,6.275,36.305
1.930,0.683,-0.375,1.031,5.160,6.382,33.435
1.930,0.658,-0.366,1.024,8.198,5.344,30.977
1.940,0.621,-0.354,1.010,10.458,2.534,28.840
1.940,0.607,-0.352,1.005,12.336,0.168,26.611
1.940,0.588,-0.345,0.986,13.542,-1.939,24.443
1.950,0.559,-0.331,0.970,14.595,-5.191,22.702
1.950,0.536,-0.328,0.974,14.718,-9.237,20.885
1.960,0.533,-0.320,0.953,15.298,-12.168,19.221
1.960,0.531,-0.307,0.960,15.924,-13.053,17.267
1.960,0.537,-0.298,0.945,16.290,-13.817,15.069
1.970,0.537,-0.292,0.946,16.458,-13.634,12.611
1.970,0.543,-0.283,0.925,16.763,-12.336,10.015
1.980,0.519,-0.271,0.889,16.550,-11.679,7.511
1.980,0.501,-0.263,0.876,15.893,-11.176,5.527
1.980,0.464,-0.253,0.851,14.977,-11.176,4.443
1.990,0.434,-0.249,0.830,13.695,-11.618,3.206
1.990,0.404,-0.239,0.820,12.366,-12.885,2.275
2.000,0.382,-0.226,0.802,10.626,-13.053,1.420
2.000,0.369,-0.211,0.783,8.641,-12.855,0.397
2.000,0.371,-0.208,0.773,6.137,-12.534,-0.443
2.010,0.356,-0.203,0.760,4.168,-11.817,-1.252
2.010,0.344,-0.203,0.749,1.924,-10.672,-2.137
2.020,0.339,-0.190,0.746,-0.107,-8.824,-2.718
2.020,0.324,-0.194,0.736,-1.954,-8.412,-3.359
2.030,0.314,-0.190,0.738,-4.153,-9.237,-4.198
2.030,0.323,-0.203,0.733,-6.229,-8.443,-4.794
2.030,0.323,-0.208,0.728,-8.183,-6.885,-5.084
2.040,0.322,-0.204,0.735,-9.786,-5.405,-5.145
2.040,0.309,-0.208,0.734,-10.947,-4.565,-4.626
2.050,0.301,-0.219,0.750,-11.893,-3.527,-3.771
2.050,0.311,-0.233,0.776,-12.412,-1.282,-2.824
2.050,0.323,-0.240,0.790,-11.878,0.855,-1.954
2.060,0.318,-0.253,0.801,-11.053,2.275,-1.435
2.060,0.340,-0.257,0.818,-10.321,3.710,-1.313
2.070,0.358,-0.258,0.819,-9.160,5.420,-1.237
2.070,0.375,-0.250,0.816,-8.382,5.985,-1.710
2.070,0.385,-0.257,0.812,-8.275,6.092,-2.412
2.080,0.415,-0.255,0.806,-8.321,7.542,-3.176
2.080,0.434,-0.256,0.787,-8.824,9.771,-4.031
2.090,0.438,-0.253,0.775,-9.405,11.405,-4.931
2.090,0.440,-0.252,0.762,-10.672,12.153,-5.786
2.090,0.456,-0.261,0.770,-11.649,12.534,-6.901
2.100,0.474,-0.257,0.767,-13.252,12.901,-8.473
2.100,0.491,-0.257,0.759,-14.412,13.115,-10.382
2.110,0.515,-0.257,0.756,-15.603,13.053,-12.397
2.110,0.527,-0.268,0.776,-16.870,11.496,-15.023
2.120,0.554,-0.276,0.762,-18.092,11.084,-17.588
2.120,0.592,-0.280,0.769,-19.282,12.763,-20.107
2.120,0.610,-0.287,0.769,-20.061,15.435,-23.038
2.130,0.628,-0.283,0.770,-20.748,17.023,-25.924
2.130,0.639,-0.296,0.761,-20.885,17.496,-29.160
2.140,0.662,-0.299,0.774,-21.771,18.397,-32.626
2.140,0.671,-0.311,0.766,-21.893,19.771,-35.817
2.150,0.684,-0.311,0.785,-22.015,21.771,-39.282
2.150,0.689,-0.319,0.784,-22.305,22.489,-42.443
2.150,0.702,-0.318,0.781,-22.153,22.412,-46.061
2.160,0.712,-0.327,0.772,-21.847,23.450,-49.878
2.160,0.708,-0.326,0.770,-21.618,23.756,-53.359
2.170,0.712,-0.327,0.769,-21.832,23.145,-57.389
2.170,0.700,-0.336,0.760,-21.695,21.740,-60.626
2.170,0.693,-0.352,0.762,-21.115,19.771,-63.206
2.180,0.679,-0.355,0.762,-20.794,16.580,-65.969
2.180,0.683,-0.359,0.751,-20.565,13.786,-68.885
2.190,0.695,-0.360,0.741,-20.382,10.977,-71.802
2.190,0.704,-0.356,0.741,-21.115,8.290,-75.252
2.200,0.713,-0.360,0.720,-21.924,6.321,-78.672
2.200,0.729,-0.357,0.709,-23.313,5.466,-82.260
2.200,0.740,-0.359,0.708,-24.534,5.466,-86.519
2.210,0.750,-0.358,0.701,-25.481,5.664,-90.992
2.210,0.759,-0.361,0.707,-26.672,6.229,-95.420
2.220,0.755,-0.363,0.695,-28.397,8.779,-99.893
2.220,0.750,-0.364,0.682,-30.397,12.000,-103.649
2.230,0.748,-0.364,0.669,-32.885,16.122,-107.359
2.230,0.749,-0.363,0.653,-35.740,20.962,-111.435
2.230,0.748,-0.367,0.641,-39.084,26.885,-115.115
2.240,0.759,-0.366,0.624,-42.580,33.527,-118.702
2.240,0.753,-0.367,0.612,-46.076,39.695,-122.260
2.250,0.740,-0.366,0.601,-49.756,44.580,-125.954
2.250,0.696,-0.368,0.601,-51.008,44.260,-128.534
2.260,0.712,-0.387,0.606,-55.084,44.809,-133.023
2.260,0.727,-0.405,0.549,-62.443,51.053,-137.832
2.260,0.657,-0.431,0.606,-66.611,53.176,-139.496
2.270,0.540,-0.459,0.669,-65.221,47.664,-139.328
2.270,0.472,-0.493,0.735,-62.931,39.786,-138.763
2.280,0.462,-0.505,0.749,-60.687,32.840,-137.725
2.280,0.470,-0.494,0.752,-58.473,28.656,-136.870
2.290,0.487,-0.501,0.752,-55.924,25.786,-136.595
2.290,0.500,-0.497,0.759,-53.344,23.069,-137.282
2.290,0.510,-0.500,0.751,-50.687,19.618,-138.366
2.300,0.525,-0.483,0.736,-49.038,16.885,-139.985
2.300,0.548,-0.478,0.714,-48.305,16.046,-141.618
2.310,0.561,-0.474,0.684,-48.794,17.695,-143.557
2.310,0.578,-0.461,0.661,-50.000,20.534,-145.603
2.320,0.591,-0.455,0.630,-52.733,24.855,-148.183
2.320,0.612,-0.450,0.615,-56.076,31.115,-150.901
2.330,0.640,-0.440,0.614,-60.672,39.832,-154.275
2.330,0.659,-0.446,0.604,-65.481,50.198,-158.198
2.330,0.665,-0.456,0.602,-70.244,59.481,-162.565
2.340,0.666,-0.456,0.587,-74.718,68.015,-167.252
2.340,0.637,-0.471,0.604,-78.290,74.962,-172.198
2.350,0.612,-0.491,0.625,-80.931,79.969,-176.748
2.350,0.575,-0.507,0.641,-82.519,82.366,-180.885
2.360,0.522,-0.537,0.660,-84.275,82.840,-184.702
2.360,0.458,-0.558,0.688,-85.267,80.702,-186.763
2.360,0.361,-0.574,0.738,-84.153,75.023,-186.718
2.370,0.309,-0.598,0.782,-80.962,65.817,-185.832
2.370,0.276,-0.620,0.839,-75.969,56.397,-184.015
2.380,0.281,-0.630,0.868,-70.534,50.031,-181.939
2.380,0.290,-0.623,0.874,-64.641,45.298,-181.069
2.390,0.301,-0.616,0.872,-59.160,39.725,-180.427
2.390,0.318,-0.610,0.867,-54.687,35.313,-180.443
2.390,0.352,-0.590,0.839,-50.458,32.534,-181.267
2.400,0.377,-0.580,0.822,-47.511,31.527,-182.290
2.400,0.392,-0.569,0.794,-46.260,32.122,-183.557
2.410,0.413,-0.570,0.766,-46.382,34.031,-185.389
2.410,0.432,-0.558,0.735,-47.573,37.649,-187.710
2.420,0.436,-0.555,0.718,-49.863,41.908,-189.939
2.420,0.454,-0.551,0.709,-52.885,46.290,-192.504
2.430,0.450,-0.550,0.694,-56.672,50.885,-195.847
2.430,0.448,-0.550,0.679,-60.443,54.656,-199.191
2.430,0.466,-0.549,0.665,-64.031,58.397,-203.756
2.440,0.498,-0.553,0.658,-68.412,61.969,-209.160
2.440,0.501,-0.558,0.644,-72.687,64.519,-214.763
2.450,0.499,-0.559,0.632,-76.870,65.878,-220.718
2.450,0.492,-0.580,0.628,-80.397,66.458,-226.595
2.460,0.479,-0.598,0.646,-82.641,66.000,-232.702
2.460,0.449,-0.617,0.678,-83.527,64.275,-237.588
2.460,0.406,-0.643,0.713,-83.511,61.863,-241.527
2.470,0.337,-0.660,0.764,-81.985,58.656,-242.947
2.470,0.289,-0.684,0.790,-79.573,56.000,-244.168
2.480,0.229,-0.705,0.825,-75.115,53.603,-242.382
2.480,0.174,-0.713,0.889,-69.771,54.870,-239.389
2.490,0.197,-0.713,0.924,-61.603,66.473,-234.809
2.490,0.096,-0.723,0.928,-54.733,67.313,-228.275
2.490,-0.006,-0.700,0.914,-52.351,54.321,-219.832
2.500,-0.012,-0.686,0.900,-49.435,46.412,-211.023
2.500,0.021,-0.667,0.906,-46.198,45.756,-202.397
2.510,0.066,-0.661,0.929,-41.282,47.695,-195.008
2.510,0.096,-0.650,0.906,-37.344,50.763,-188.702
2.520,0.119,-0.636,0.891,-34.092,54.931,-182.916
2.520,0.157,-0.628,0.866,-31.985,59.710,-178.565
2.530,0.188,-0.612,0.841,-30.733,64.595,-175.588
2.530,0.207,-0.605,0.816,-30.137,69.450,-173.756
2.530,0.216,-0.596,0.800,-30.458,74.046,-172.962
2.540,0.215,-0.599,0.782,-30.702,77.420,-172.611
2.540,0.185,-0.592,0.772,-31.389,78.046,-172.672
2.550,0.193,-0.589,0.773,-33.282,78.015,-173.038
2.550,0.189,-0.584,0.762,-34.992,78.534,-173.405
2.560,0.175,-0.584,0.770,-36.137,78.260,-173.756
2.560,0.148,-0.584,0.771,-37.115,75.954,-174.107
2.560,0.125,-0.583,0.763,-37.985,72.336,-174.137
2.570,0.103,-0.582,0.767,-38.275,66.519,-174.092
2.570,0.088,-0.586,0.776,-38.290,59.832,-173.985
2.580,0.060,-0.585,0.797,-37.359,52.076,-173.298
2.580,0.021,-0.591,0.820,-35.695,43.588,-171.282
2.590,-0.006,-0.587,0.853,-33.313,35.344,-168.366
2.590,-0.028,-0.578,0.879,-29.893,28.046,-164.260
2.590,-0.020,-0.578,0.885,-26.397,23.450,-159.557
2.600,-0.014,-0.569,0.891,-22.534,20.260,-154.626
2.600,0.003,-0.554,0.890,-18.916,19.527,-149.649
2.610,0.026,-0.550,0.870,-16.046,21.374,-145.420
2.610,0.045,-0.532,0.852,-13.863,24.901,-141.588
2.620,0.071,-0.525,0.831,-13.893,28.809,-138.611
2.620,0.092,-0.518,0.820,-13.771,35.313,-135.893
2.630,0.099,-0.512,0.788,-14.366,42.977,-133.588
2.630,0.102,-0.500,0.788,-15.542,50.046,-131.527
2.630,0.091,-0.494,0.771,-16.962,55.969,-129.740
2.640,0.074,-0.489,0.763,-18.718,60.733,-127.939
2.640,0.044,-0.488,0.751,-20.336,64.015,-126.519
2.650,0.018,-0.489,0.742,-21.573,64.718,-124.092
2.650,-0.031,-0.481,0.731,-22.840,61.664,-121.985
2.660,-0.035,-0.480,0.744,-24.183,55.817,-120.382
2.660,-0.033,-0.474,0.743,-24.672,50.092,-118.702
2.660,-0.035,-0.478,0.757,-25.389,44.382,-117.374
2.670,-0.041,-0.467,0.759,-25.771,37.832,-116.076
2.670,-0.046,-0.470,0.777,-25.695,29.939,-114.473
2.680,-0.066,-0.469,0.793,-25.496,22.092,-112.107
2.680,-0.076,-0.470,0.815,-24.824,15.954,-108.962
2.690,-0.093,-0.464,0.829,-23.282,10.656,-104.458
2.690,-0.092,-0.459,0.843,-21.435,6.840,-99.634
2.700,-0.067,-0.444,0.855,-19.618,5.206,-95.542
2.700,-0.023,-0.446,0.864,-17.664,7.084,-92.092
2.700,0.000,-0.446,0.869,-15.603,10.336,-88.824
2.710,0.030,-0.426,0.875,-14.489,15.450,-86.366
2.710,0.049,-0.424,0.853,-13.710,20.702,-83.878
2.720,0.055,-0.419,0.841,-13.145,25.863,-81.939
2.720,0.067,-0.414,0.843,-12.901,31.160,-79.924
2.730,0.062,-0.414,0.843,-12.794,36.580,-77.924
2.730,0.050,-0.403,0.828,-13.450,41.420,-75.649
2.730,0.039,-0.404,0.811,-13.832,45.527,-73.282
2.740,0.022,-0.395,0.813,-14.595,48.840,-70.855
2.740,0.018,-0.389,0.799,-15.328,50.840,-68.336
2.750,0.017,-0.381,0.801,-16.595,52.351,-65.908
2.750,-0.000,-0.381,0.799,-17.359,53.038,-63.664
2.760,-0.006,-0.366,0.794,-18.260,52.214,-61.313
2.760,0.002,-0.365,0.796,-19.420,50.443,-59.496
2.760,0.022,-0.362,0.810,-19.817,49.084,-57.924
2.770,0.042,-0.354,0.811,-19.893,48.687,-56.855
2.770,0.047,-0.351,0.807,-20.412,47.740,-56.107
2.780,0.063,-0.350,0.820,-20.458,46.565,-55.603
2.780,0.059,-0.343,0.824,-19.679,45.557,-54.931
2.780,0.060,-0.342,0.834,-18.779,44.336,-54.031
2.790,0.051,-0.333,0.835,-17.603,43.252,-52.992
2.790,0.044,-0.342,0.846,-16.656,41.389,-51.679
2.800,0.035,-0.330,0.846,-16.092,40.046,-50.092
2.800,0.026,-0.331,0.839,-14.824,38.687,-48.473
2.810,0.018,-0.322,0.833,-14.351,36.107,-46.534
2.810,0.006,-0.316,0.828,-14.840,33.924,-44.885
2.810,0.024,-0.313,0.818,-14.870,31.481,-43.237
2.820,0.038,-0.314,0.827,-15.298,30.137,-41.969
2.820,0.039,-0.304,0.824,-15.710,27.817,-40.962
2.830,0.053,-0.308,0.836,-16.229,25.863,-39.832
2.830,0.065,-0.311,0.835,-16.611,24.321,-39.038
2.840,0.068,-0.312,0.854,-16.550,21.969,-38.550
2.840,0.081,-0.311,0.864,-16.534,19.802,-38.473
2.840,0.086,-0.312,0.863,-15.817,17.679,-38.260
2.850,0.094,-0.322,0.889,-15.221,14.977,-37.802
2.850,0.080,-0.319,0.889,-13.786,12.962,-37.221
2.860,0.078,-0.321,0.886,-12.443,10.580,-36.137
2.860,0.071,-0.315,0.890,-11.588,8.321,-34.824
2.870,0.069,-0.316,0.887,-10.244,6.153,-33.832
2.870,0.087,-0.303,0.874,-9.588,5.191,-32.885
2.870,0.086,-0.303,0.874,-8.748,4.443,-31.863
2.880,0.088,-0.302,0.872,-8.015,4.061,-30.901
2.880,0.099,-0.299,0.864,-7.756,4.183,-29.817
2.890,0.105,-0.290,0.848,-7.908,4.794,-28.931
2.890,0.116,-0.294,0.859,-8.366,5.832,-27.802
2.890,0.116,-0.297,0.863,-8.382,7.954,-26.580
2.900,0.116,-0.300,0.877,-8.122,9.588,-25.496
2.900,0.114,-0.302,0.883,-8.198,11.282,-24.427
2.910,0.115,-0.297,0.870,-8.046,13.832,-22.962
2.910,0.113,-0.302,0.878,-7.435,17.008,-21.252
2.910,0.109,-0.304,0.884,-7.130,18.855,-20.000
2.920,0.099,-0.301,0.884,-6.733,19.740,-18.702
2.920,0.095,-0.300,0.884,-7.069,20.412,-17.435
2.930,0.102,-0.300,0.882,-6.901,20.962,-16.275
2.930,0.099,-0.297,0.890,-6.733,21.466,-15.435
2.940,0.102,-0.301,0.885,-6.550,21.466,-14.595
2.940,0.111,-0.308,0.892,-6.122,21.221,-13.985
2.940,0.110,-0.306,0.894,-6.229,20.107,-13.725
2.950,0.112,-0.303,0.905,-6.183,18.565,-13.359
2.950,0.118,-0.303,0.910,-5.527,17.420,-12.962
2.960,0.111,-0.304,0.919,-4.870,16.015,-12.305
2.960,0.110,-0.310,0.935,-3.710,14.153,-12.031
2.960,0.116,-0.312,0.941,-2.076,11.985,-11.496
2.970,0.091,-0.316,0.931,-0.351,9.023,-10.626
2.970,0.084,-0.312,0.949,1.237,5.985,-9.664
2.980,0.078,-0.310,0.946,2.794,3.069,-8.000
2.980,0.082,-0.313,0.949,4.458,0.427,-6.611
2.980,0.085,-0.311,0.950,6.061,-2.504,-5.252
2.990,0.083,-0.304,0.952,7.282,-5.176,-3.557
2.990,0.086,-0.301,0.942,9.160,-7.878,-2.000
3.000,0.096,-0.297,0.937,10.458,-10.427,-0.595
3.000,0.119,-0.299,0.934,11.771,-12.718,0.519
3.010,0.136,-0.291,0.935,12.366,-14.565,1.298
3.010,0.154,-0.293,0.924,12.977,-15.725,1.405
3.010,0.182,-0.283,0.920,13.725,-16.779,1.313
3.020,0.206,-0.287,0.916,14.321,-17.710,0.550
3.020,0.226,-0.278,0.910,15.008,-17.130,-0.382
3.030,0.232,-0.276,0.904,15.450,-16.290,-1.099
3.030,0.236,-0.268,0.897,15.557,-15.237,-2.031
3.030,0.229,-0.263,0.882,15.634,-14.122,-2.855
3.040,0.222,-0.266,0.870,15.969,-12.504,-3.282
3.040,0.208,-0.259,0.861,15.786,-11.405,-3.496
3.050,0.200,-0.265,0.862,15.099,-9.450,-3.267
3.050,0.195,-0.251,0.844,14.489,-7.603,-2.611
3.050,0.196,-0.250,0.842,13.420,-5.511,-2.321
3.060,0.192,-0.251,0.831,12.183,-3.420,-1.847
3.060,0.177,-0.247,0.824,10.550,-1.771,-1.389
3.070,0.186,-0.253,0.828,8.092,-0.763,-1.206
3.070,0.196,-0.254,0.840,6.595,0.153,-1.160
3.070,0.212,-0.257,0.842,5.649,2.550,-1.359
3.080,0.205,-0.256,0.860,4.122,4.153,-1.176
3.080,0.205,-0.251,0.864,3.267,4.962,-1.344
3.090,0.202,-0.256,0.874,2.672,5.679,-1.160
3.090,0.201,-0.259,0.876,2.397,6.183,-1.008
3.090,0.210,-0.259,0.891,2.641,6.733,-1.038
3.100,0.204,-0.269,0.911,3.008,6.977,-1.008
3.100,0.205,-0.258,0.910,3.527,7.252,-0.947
3.110,0.205,-0.260,0.912,4.351,7.542,-0.947
3.110,0.204,-0.260,0.910,4.779,7.695,-0.840
3.110,0.197,-0.258,0.917,5.435,8.015,-1.084
3.120,0.198,-0.254,0.910,5.985,8.092,-1.115
3.120,0.183,-0.255,0.902,6.656,7.740,-1.191
3.130,0.181,-0.255,0.884,7.053,7.176,-1.023
3.130,0.173,-0.244,0.864,6.656,6.412,-0.687
3.130,0.172,-0.241,0.855,6.214,5.344,-0.580
3.140,0.183,-0.245,0.863,5.221,4.489,-0.626
3.140,0.186,-0.243,0.855,4.519,3.573,-0.656
3.140,0.193,-0.237,0.865,3.603,2.870,-0.992
3.150,0.188,-0.242,0.863,3.023,1.710,-1.160
3.150,0.189,-0.240,0.854,2.214,0.687,-1.389
3.160,0.197,-0.246,0.854,1.359,0.015,-1.786
3.160,0.201,-0.243,0.870,1.221,-0.366,-1.847
3.160,0.192,-0.242,0.878,1.771,-0.580,-2.000
3.170,0.190,-0.241,0.883,2.015,-0.763,-2.000
3.170,0.182,-0.250,0.889,2.290,-0.565,-1.710
3.180,0.184,-0.245,0.875,2.977,0.366,-1.221
3.180,0.189,-0.245,0.877,3.313,1.496,-0.748
3.180,0.190,-0.241,0.881,3.496,2.580,-0.351
3.190,0.188,-0.247,0.881,3.939,3.634,0.046
3.190,0.183,-0.244,0.877,4.198,4.366,0.092
3.200,0.186,-0.238,0.874,4.458,4.519,0.244
3.200,0.194,-0.241,0.878,4.427,3.939,0.519
3.200,0.191,-0.237,0.868,5.008,4.092,0.443
3.210,0.188,-0.243,0.873,5.405,4.779,0.901
3.210,0.190,-0.238,0.868,5.710,4.626,1.053
3.220,0.189,-0.238,0.856,5.282,4.031,0.870
3.220,0.190,-0.228,0.845,5.282,3.450,1.038
3.220,0.186,-0.230,0.855,5.267,3.389,1.084
3.230,0.176,-0.230,0.853,5.191,2.794,1.527
3.230,0.166,-0.232,0.852,5.359,1.252,1.878
3.230,0.152,-0.234,0.851,5.282,0.061,2.397
3.240,0.166,-0.228,0.855,5.282,-1.649,2.489
3.240,0.179,-0.233,0.854,5.282,-2.855,2.061
3.250,0.185,-0.227,0.861,5.130,-3.298,2.214
3.250,0.190,-0.225,0.855,5.237,-3.710,2.076
3.250,0.184,-0.225,0.859,5.252,-3.954,2.580
3.260,0.181,-0.224,0.847,5.267,-4.122,2.687
3.260,0.188,-0.227,0.843,5.053,-3.954,2.794
3.270,0.196,-0.223,0.840,4.519,-3.252,2.962
3.270,0.188,-0.220,0.836,4.092,-2.565,3.420
3.270,0.186,-0.226,0.829,3.466,-1.969,3.695
3.280,0.190,-0.226,0.846,2.824,-1.695,3.573
3.280,0.194,-0.231,0.847,2.840,-1.344,3.939
3.280,0.183,-0.227,0.842,3.008,-1.649,3.420
3.290,0.182,-0.227,0.843,2.443,-3.511,3.389
3.290,0.197,-0.224,0.855,1.542,-5.847,2.779
3.300,0.214,-0.231,0.869,1.954,-5.756,2.382
3.300,0.215,-0.229,0.865,2.397,-5.573,2.092
3.300,0.194,-0.226,0.869,2.840,-6.046,2.382
3.310,0.188,-0.227,0.857,3.344,-6.931,2.855
3.310,0.194,-0.228,0.858,3.511,-7.160,3.084
3.320,0.200,-0.222,0.853,3.695,-6.870,3.573
3.320,0.201,-0.218,0.840,3.725,-6.168,3.893
3.320,0.206,-0.218,0.818,3.511,-5.221,4.183
3.330,0.212,-0.216,0.823,2.809,-4.473,4.260
3.330,0.214,-0.219,0.830,2.260,-3.511,4.489
3.340,0.217,-0.220,0.843,1.939,-2.672,4.305
3.340,0.227,-0.221,0.845,2.031,-1.374,4.260
3.340,0.221,-0.219,0.855,2.122,0.519,4.366
3.350,0.217,-0.220,0.844,2.351,1.405,4.870
3.350,0.214,-0.217,0.845,2.153,1.740,5.099
3.350,0.216,-0.220,0.854,2.580,2.718,5.176
3.360,0.205,-0.223,0.843,3.084,2.779,5.237
3.360,0.204,-0.219,0.845,2.473,0.580,5.069
3.370,0.211,-0.221,0.857,1.771,-1.130,4.519
3.370,0.219,-0.223,0.858,2.046,-1.237,4.519
3.370,0.223,-0.231,0.874,2.305,-1.282,4.275
3.380,0.219,-0.230,0.863,2.565,-1.847,4.305
3.380,0.214,-0.228,0.870,3.282,-2.779,4.321
3.390,0.221,-0.226,0.872,3.847,-3.038,4.092
3.390,0.229,-0.224,0.872,4.260,-2.656,4.061
3.390,0.228,-0.221,0.860,4.931,-1.985,4.275
3.400,0.219,-0.222,0.858,5.450,-0.947,4.580
3.400,0.215,-0.220,0.844,5.450,-0.153,4.687
3.410,0.212,-0.207,0.840,5.115,0.611,5.069
3.410,0.213,-0.208,0.838,4.473,0.840,5.252
3.410,0.212,-0.207,0.818,4.168,1.008,5.374
3.420,0.213,-0.211,0.818,3.267,0.962,5.344
3.420,0.221,-0.209,0.823,2.244,1.115,5.466
3.420,0.224,-0.214,0.828,1.695,1.145,5.450
3.430,0.220,-0.212,0.829,1.206,1.298,5.405
3.430,0.218,-0.212,0.834,0.794,0.992,5.466
3.440,0.211,-0.210,0.831,0.565,0.687,5.603
3.440,0.216,-0.213,0.837,0.351,0.244,5.740
3.440,0.226,-0.211,0.836,-0.031,0.290,5.863
3.450,0.230,-0.207,0.838,-0.275,-0.031,6.000
3.450,0.231,-0.208,0.847,-0.412,0.000,6.061
3.460,0.229,-0.219,0.853,-0.519,-0.305,5.817
3.460,0.238,-0.214,0.857,-0.519,-0.260,6.107
3.460,0.249,-0.216,0.860,-0.427,-0.305,5.756
3.470,0.247,-0.218,0.859,-0.305,0.153,5.634
3.470,0.245,-0.217,0.861,-0.137,0.595,5.603
3.480,0.245,-0.218,0.859,0.397,1.069,5.267
3.480,0.241,-0.217,0.860,0.580,0.947,5.099
3.480,0.239,-0.214,0.865,0.550,0.336,4.885
3.490,0.240,-0.215,0.852,0.260,0.321,4.641
3.490,0.251,-0.211,0.847,0.061,0.351,4.336
3.490,0.245,-0.216,0.836,-0.015,0.397,4.076
3.500,0.240,-0.212,0.837,-0.214,-0.580,4.000
3.500,0.233,-0.219,0.834,-0.855,-1.420,3.771
3.510,0.231,-0.215,0.846,-1.115,-2.229,3.634
3.510,0.232,-0.218,0.858,-1.084,-2.702,3.878
3.510,0.224,-0.223,0.856,-0.947,-3.878,3.832
3.520,0.224,-0.221,0.863,-1.237,-4.824,3.893
3.520,0.238,-0.220,0.871,-1.221,-4.870,3.954
3.530,0.232,-0.226,0.867,-0.855,-4.565,4.092
3.530,0.231,-0.227,0.871,-0.626,-3.969,4.076
3.530,0.237,-0.224,0.874,-0.351,-3.527,4.275
3.540,0.241,-0.229,0.873,-0.305,-2.977,4.534
3.540,0.232,-0.232,0.877,-0.183,-2.168,4.794
3.550,0.242,-0.225,0.872,-0.046,-1.328,4.885
3.550,0.235,-0.233,0.871,0.092,-0.580,4.870
3.550,0.241,-0.222,0.868,0.137,0.000,4.840
3.560,0.243,-0.229,0.874,0.092,0.351,4.336
3.560,0.238,-0.225,0.871,0.153,0.916,4.519
3.570,0.238,-0.222,0.875,0.336,0.809,4.229
3.570,0.233,-0.223,0.865,0.351,0.748,4.015
3.570,0.233,-0.219,0.859,0.305,0.855,3.985
3.580,0.233,-0.227,0.856,0.458,1.115,3.863
3.580,0.234,-0.224,0.859,0.626,1.252,3.802
3.580,0.222,-0.214,0.846,0.611,1.084,3.756
3.590,0.223,-0.221,0.842,0.580,0.504,3.511
3.590,0.220,-0.222,0.847,0.443,-0.031,3.344
3.600,0.225,-0.218,0.850,0.092,0.107,3.481
3.600,0.222,-0.219,0.844,0.168,0.275,3.389
3.600,0.228,-0.216,0.850,-0.046,0.076,3.450
3.610,0.227,-0.218,0.841,-0.092,0.168,2.931
3.610,0.230,-0.217,0.846,-0.565,0.061,2.733
3.620,0.235,-0.214,0.837,-0.595,-0.351,2.458
3.620,0.237,-0.210,0.846,-1.084,-0.443,2.046
3.620,0.239,-0.206,0.840,-1.542,-0.611,1.786
3.630,0.238,-0.214,0.843,-2.153,-0.870,1.542
3.630,0.244,-0.212,0.844,-2.458,-0.763,1.176
3.640,0.249,-0.208,0.847,-2.672,-0.427,0.977
3.640,0.244,-0.210,0.849,-3.053,-0.183,0.534
3.640,0.249,-0.216,0.843,-3.130,-0.321,-0.076
3.650,0.248,-0.217,0.844,-3.176,-0.901,-0.107
3.650,0.236,-0.219,0.855,-3.008,-0.977,-0.336
3.660,0.234,-0.219,0.851,-2.901,-1.191,-0.702
3.660,0.238,-0.211,0.838,-3.160,-1.191,-0.794
3.660,0.228,-0.213,0.838,-3.160,-1.603,-0.855
3.670,0.229,-0.212,0.842,-3.282,-1.939,-0.885
3.670,0.229,-0.213,0.837,-3.496,-1.725,-0.947
3.680,0.231,-0.215,0.840,-3.740,-1.191,-0.565
3.680,0.233,-0.217,0.831,-4.076,-1.160,-0.397
3.680,0.228,-0.213,0.833,-4.656,-1.282,-0.260
3.690,0.231,-0.211,0.829,-5.038,-1.145,-0.321
3.690,0.227,-0.214,0.824,-5.481,-0.962,-0.672
3.700,0.231,-0.213,0.842,-6.061,-0.733,-0.687
3.700,0.226,-0.213,0.843,-6.122,-0.534,-0.626
3.700,0.235,-0.213,0.835,-6.733,-0.305,-0.748
3.710,0.234,-0.214,0.847,-6.763,-0.015,-0.748
3.710,0.224,-0.215,0.852,-6.687,0.092,-0.412
3.720,0.223,-0.225,0.861,-6.626,0.000,-0.443
3.720,0.220,-0.226,0.865,-6.458,-0.321,-0.382
3.720,0.226,-0.229,0.873,-6.260,-0.824,-0.473
3.730,0.232,-0.227,0.872,-6.061,-0.977,-0.702
3.730,0.244,-0.226,0.880,-5.588,-0.626,-0.901
3.740,0.240,-0.237,0.872,-5.237,-0.687,-0.977
3.740,0.234,-0.228,0.877,-4.885,-0.718,-1.099
3.750,0.229,-0.232,0.869,-4.427,-1.069,-1.206
3.750,0.235,-0.227,0.866,-4.427,-1.405,-1.176
3.750,0.244,-0.225,0.856,-4.321,-1.008,-1.420
3.760,0.240,-0.230,0.870,-4.198,-0.748,-1.557
3.760,0.235,-0.228,0.862,-4.275,-0.412,-1.511
3.770,0.236,-0.222,0.862,-4.443,0.000,-1.786
3.770,0.240,-0.226,0.861,-4.626,0.092,-1.756
3.770,0.248,-0.221,0.860,-4.397,0.397,-1.954
3.780,0.245,-0.228,0.872,-4.351,0.916,-2.000
3.780,0.240,-0.226,0.871,-4.107,1.344,-2.382
3.790,0.240,-0.230,0.874,-3.679,1.450,-2.519
3.790,0.238,-0.233,0.879,-3.267,1.206,-2.534
3.790,0.230,-0.228,0.876,-2.718,1.328,-2.656
3.800,0.233,-0.230,0.869,-2.672,1.099,-2.519
3.800,0.223,-0.231,0.863,-2.336,0.901,-2.580
3.810,0.219,-0.225,0.859,-2.275,0.061,-2.611
3.810,0.221,-0.225,0.859,-2.595,-0.550,-2.504
3.810,0.225,-0.224,0.858,-2.672,-0.122,-2.336
3.820,0.223,-0.232,0.859,-2.748,0.076,-2.382
3.820,0.213,-0.229,0.854,-2.702,0.061,-1.893
3.830,0.204,-0.229,0.861,-2.718,0.031,-1.603
3.830,0.212,-0.228,0.855,-2.580,0.534,-1.435
3.830,0.216,-0.235,0.866,-2.565,1.038,-0.840
3.840,0.213,-0.223,0.864,-2.382,1.496,-0.229
3.840,0.202,-0.235,0.863,-2.122,1.649,0.046
3.850,0.205,-0.233,0.874,-1.878,1.863,0.595
3.850,0.207,-0.235,0.873,-1.435,2.137,1.099
3.850,0.218,-0.232,0.870,-1.405,2.427,1.038
3.860,0.226,-0.234,0.878,-1.221,2.595,1.237
3.860,0.230,-0.225,0.869,-1.176,2.992,1.206
3.870,0.230,-0.225,0.867,-1.176,3.237,1.069
3.870,0.241,-0.235,0.868,-1.344,3.160,0.855
3.870,0.239,-0.224,0.859,-1.252,2.565,0.473
3.880,0.229,-0.233,0.863,-1.573,2.183,0.107
3.880,0.234,-0.230,0.858,-1.802,2.229,-0.092
3.880,0.229,-0.234,0.860,-1.954,2.229,-0.321
3.890,0.228,-0.228,0.866,-2.168,1.832,-0.824
3.890,0.222,-0.231,0.856,-2.611,0.687,-0.916
3.900,0.236,-0.229,0.867,-2.763,0.412,-1.099
3.900,0.234,-0.240,0.871,-2.901,1.023,-1.038
3.900,0.230,-0.240,0.873,-2.626,1.481,-1.008
3.910,0.231,-0.237,0.869,-2.473,1.847,-0.824
3.910,0.230,-0.239,0.874,-2.290,1.756,-1.099
3.920,0.229,-0.242,0.882,-2.000,1.847,-1.053
3.920,0.233,-0.236,0.874,-1.985,2.183,-1.282
3.920,0.233,-0.234,0.887,-1.710,2.809,-1.313
3.930,0.224,-0.236,0.890,-1.069,2.947,-1.221
3.930,0.211,-0.239,0.889,-0.809,2.718,-1.298
3.940,0.208,-0.238,0.877,-0.244,2.840,-1.160
3.940,0.207,-0.239,0.878,0.137,2.916,-0.992
3.940,0.207,-0.235,0.869,0.260,2.763,-0.916
3.950,0.202,-0.234,0.858,0.092,2.122,-0.809
3.950,0.206,-0.229,0.860,0.046,1.481,-0.656
3.960,0.208,-0.226,0.865,-0.092,1.191,-0.473
3.960,0.211,-0.226,0.857,-0.351,1.389,-0.321
3.960,0.204,-0.225,0.856,-0.656,1.511,-0.229
3.970,0.208,-0.226,0.847,-0.992,1.389,-0.031
3.970,0.199,-0.224,0.845,-1.176,1.557,0.137
3.980,0.209,-0.222,0.844,-1.313,1.695,0.458
3.980,0.206,-0.221,0.845,-1.542,1.756,0.779
3.980,0.207,-0.220,0.853,-1.893,1.740,0.687
3.990,0.211,-0.222,0.858,-2.015,2.092,0.534
3.990,0.216,-0.215,0.851,-2.168,2.489,0.702
4.000,0.219,-0.216,0.855,-2.351,1.756,0.458
4.000,0.210,-0.216,0.855,-2.122,1.420,0.550
4.000,0.208,-0.212,0.848,-2.397,0.977,0.580
4.010,0.208,-0.217,0.846,-2.382,0.656,0.443
4.010,0.208,-0.219,0.855,-2.229,0.137,0.641
4.020,0.206,-0.215,0.856,-2.031,-0.397,0.611
4.020,0.210,-0.216,0.856,-1.969,-1.328,0.641
4.020,0.213,-0.217,0.854,-1.985,-1.847,0.458
4.030,0.212,-0.217,0.848,-1.817,-2.382,0.061
4.030,0.216,-0.215,0.842,-2.137,-2.809,0.076
4.040,0.212,-0.219,0.858,-2.137,-2.840,-0.290
4.040,0.217,-0.220,0.857,-2.473,-2.901,-0.473
4.040,0.213,-0.222,0.854,-2.580,-2.275,-0.443
4.050,0.208,-0.220,0.846,-2.824,-2.000,-0.427
4.050,0.201,-0.225,0.855,-3.099,-1.802,-0.198
4.060,0.199,-0.225,0.855,-3.145,-1.695,0.000
4.060,0.197,-0.227,0.857,-3.679,-1.405,0.198
4.060,0.205,-0.225,0.864,-3.542,-1.084,0.473
