Time,acce_x,acce_y,acce_z,gyro_x,gyro_y,gyro_z
0.000,0.279,-0.275,0.825,-0.916,2.718,1.206
0.000,0.281,-0.274,0.821,-0.947,2.275,1.008
0.010,0.283,-0.271,0.824,-1.008,1.863,0.733
0.010,0.281,-0.271,0.821,-1.237,1.710,0.580
0.010,0.282,-0.265,0.825,-1.176,1.420,0.290
0.020,0.276,-0.273,0.826,-1.863,0.733,0.122
0.020,0.278,-0.275,0.827,-1.725,0.244,-0.061
0.020,0.277,-0.277,0.825,-2.168,-0.107,-0.122
0.030,0.280,-0.270,0.829,-1.969,-0.137,-0.214
0.030,0.287,-0.279,0.835,-1.740,-0.153,-0.275
0.030,0.287,-0.281,0.836,-1.771,-0.458,-0.489
0.040,0.280,-0.282,0.839,-1.771,-0.046,-0.412
0.040,0.282,-0.281,0.837,-1.679,0.336,-0.473
0.040,0.277,-0.284,0.847,-1.527,0.626,-0.794
0.050,0.270,-0.285,0.831,-1.573,0.656,-0.901
0.050,0.264,-0.280,0.839,-1.740,0.229,-0.763
0.060,0.262,-0.287,0.838,-1.802,0.214,-0.473
0.060,0.252,-0.282,0.831,-1.832,0.550,0.061
0.060,0.251,-0.285,0.837,-1.847,0.947,0.366
0.070,0.250,-0.272,0.835,-1.847,1.084,0.504
0.070,0.250,-0.274,0.828,-1.756,1.145,0.962
0.070,0.256,-0.271,0.830,-1.969,0.992,1.008
0.080,0.256,-0.273,0.815,-2.275,1.282,1.115
0.080,0.250,-0.271,0.817,-2.580,0.840,1.069
0.090,0.244,-0.275,0.823,-2.931,-0.168,1.282
0.090,0.251,-0.270,0.826,-3.389,-1.389,1.511
0.090,0.248,-0.274,0.836,-3.740,-1.954,1.588
0.100,0.256,-0.277,0.848,-3.832,-2.992,1.618
0.100,0.265,-0.276,0.857,-3.466,-3.252,1.679
0.110,0.272,-0.278,0.861,-2.977,-3.435,1.542
0.110,0.277,-0.281,0.862,-2.321,-3.221,1.344
0.110,0.279,-0.276,0.858,-1.802,-3.069,1.298
0.120,0.279,-0.284,0.866,-1.084,-2.458,1.389
0.120,0.284,-0.277,0.855,-0.351,-1.969,1.191
0.130,0.283,-0.273,0.864,0.092,-1.450,1.328
0.130,0.285,-0.275,0.857,0.321,-0.947,1.053
0.130,0.280,-0.264,0.844,0.336,-1.252,0.916
0.140,0.280,-0.264,0.848,0.473,-1.344,0.947
0.140,0.283,-0.261,0.835,0.382,-1.420,1.099
0.150,0.284,-0.258,0.839,0.168,-1.771,0.794
0.150,0.274,-0.261,0.829,0.153,-1.893,0.885
0.150,0.273,-0.254,0.830,0.168,-1.649,0.901
0.160,0.273,-0.264,0.830,-0.046,-1.053,1.206
0.160,0.272,-0.262,0.822,0.000,-0.626,1.374
0.170,0.272,-0.263,0.818,-0.168,-0.397,1.359
0.170,0.275,-0.261,0.817,-0.260,-0.260,1.450
0.170,0.273,-0.259,0.811,-0.702,-0.550,1.374
0.180,0.266,-0.267,0.812,-1.099,-1.008,1.344
0.180,0.274,-0.270,0.824,-1.664,-0.626,1.420
0.190,0.274,-0.270,0.823,-1.878,-0.153,1.450
0.190,0.270,-0.276,0.821,-2.031,-0.183,1.588
0.190,0.267,-0.277,0.827,-2.137,0.397,1.756
0.200,0.277,-0.278,0.826,-2.229,0.885,1.802
0.200,0.280,-0.287,0.828,-2.321,1.389,1.878
0.210,0.281,-0.286,0.828,-2.061,2.000,1.756
0.210,0.279,-0.275,0.834,-2.427,1.786,1.756
0.210,0.294,-0.279,0.827,-2.519,2.092,1.527
0.220,0.292,-0.285,0.834,-2.427,2.656,1.344
0.220,0.283,-0.272,0.840,-2.443,2.672,1.267
0.220,0.288,-0.275,0.837,-2.565,2.382,0.962
0.230,0.284,-0.275,0.829,-2.473,2.214,0.687
0.230,0.272,-0.273,0.837,-2.550,1.847,0.656
0.240,0.278,-0.278,0.833,-2.626,1.603,0.473
0.240,0.272,-0.278,0.834,-2.763,0.412,0.519
0.240,0.281,-0.278,0.842,-3.374,-0.550,0.336
0.250,0.287,-0.281,0.847,-3.679,-0.412,0.061
0.250,0.280,-0.281,0.851,-3.756,-0.351,0.076
0.260,0.280,-0.285,0.853,-3.496,-0.595,0.000
0.260,0.285,-0.285,0.854,-3.374,-0.840,-0.076
0.260,0.283,-0.290,0.860,-3.145,-0.443,-0.015
0.270,0.286,-0.292,0.866,-3.008,0.061,-0.107
0.270,0.288,-0.288,0.876,-2.321,0.198,-0.260
0.280,0.283,-0.299,0.865,-1.908,0.305,-0.122
0.280,0.280,-0.295,0.870,-1.679,0.382,-0.168
0.280,0.271,-0.297,0.868,-1.344,0.702,-0.015
0.290,0.275,-0.292,0.871,-0.794,0.916,0.290
0.290,0.267,-0.293,0.865,-0.382,1.359,0.519
0.300,0.272,-0.298,0.855,0.061,1.863,0.733
0.300,0.267,-0.287,0.863,0.275,1.664,0.855
0.300,0.266,-0.295,0.853,0.550,1.496,1.038
0.310,0.275,-0.286,0.854,0.305,1.817,1.221
0.310,0.273,-0.288,0.846,0.290,1.985,1.221
0.320,0.266,-0.285,0.849,0.000,1.756,1.328
0.320,0.275,-0.278,0.842,-0.198,1.313,1.374
0.320,0.274,-0.279,0.838,-0.504,0.687,1.527
0.330,0.269,-0.276,0.839,-0.412,0.183,1.527
0.330,0.271,-0.283,0.848,-0.336,-0.275,1.573
0.330,0.271,-0.284,0.844,-0.397,-0.672,1.618
0.340,0.277,-0.280,0.855,-0.290,-1.847,1.420
0.340,0.285,-0.281,0.846,-0.198,-3.038,1.206
0.350,0.295,-0.281,0.863,-0.489,-2.779,0.687
0.350,0.305,-0.279,0.868,0.153,-2.015,0.779
0.350,0.291,-0.282,0.864,0.962,-1.908,0.947
0.360,0.284,-0.287,0.851,1.176,-1.588,0.733
0.360,0.294,-0.281,0.848,1.389,-1.160,0.779
0.370,0.290,-0.275,0.842,1.802,-0.489,0.824
0.370,0.293,-0.279,0.839,2.061,-0.275,0.672
0.370,0.287,-0.276,0.825,1.847,-0.229,0.519
0.380,0.282,-0.273,0.828,1.237,-0.214,0.672
0.380,0.284,-0.267,0.825,0.672,-0.977,0.443
0.390,0.289,-0.268,0.817,0.229,-1.542,0.061
0.390,0.296,-0.262,0.812,-0.046,-2.015,-0.076
0.390,0.295,-0.265,0.818,-0.458,-2.519,-0.489
0.400,0.294,-0.268,0.816,-1.038,-3.008,-0.504
0.400,0.284,-0.266,0.814,-1.069,-3.725,-0.534
0.410,0.285,-0.270,0.811,-1.221,-3.405,-0.260
0.410,0.284,-0.276,0.826,-1.023,-2.794,-0.137
0.410,0.290,-0.268,0.823,-1.053,-2.366,0.137
0.420,0.297,-0.272,0.824,-1.206,-1.802,0.305
0.420,0.298,-0.271,0.838,-1.679,-1.664,0.351
0.430,0.297,-0.276,0.833,-1.863,-0.794,0.214
0.430,0.302,-0.280,0.846,-1.893,0.092,-0.198
0.430,0.308,-0.273,0.836,-2.000,0.687,-0.336
0.440,0.305,-0.271,0.839,-2.336,1.084,-0.763
0.440,0.304,-0.279,0.843,-2.122,1.267,-0.763
0.450,0.295,-0.283,0.850,-1.771,1.221,-1.038
0.450,0.287,-0.280,0.851,-1.282,1.374,-1.023
0.450,0.276,-0.285,0.847,-0.977,1.191,-1.008
0.460,0.274,-0.279,0.846,-0.687,0.687,-1.084
0.460,0.274,-0.280,0.841,-0.626,0.229,-1.038
0.470,0.270,-0.282,0.829,-0.229,0.046,-1.099
0.470,0.273,-0.277,0.832,-0.107,-0.168,-0.855
0.470,0.269,-0.280,0.824,-0.397,-0.244,-0.809
0.480,0.268,-0.271,0.824,-0.260,0.107,-0.565
0.480,0.263,-0.269,0.824,-0.260,0.427,-0.244
0.490,0.260,-0.277,0.812,-0.412,1.053,0.244
0.490,0.263,-0.270,0.822,-0.550,1.634,0.611
0.490,0.273,-0.270,0.812,-0.824,1.802,0.611
0.500,0.280,-0.263,0.808,-1.237,2.260,0.840
0.500,0.276,-0.270,0.817,-1.634,3.008,0.916
0.510,0.288,-0.272,0.809,-1.786,3.466,0.733
0.510,0.287,-0.276,0.824,-1.924,3.389,0.489
0.510,0.288,-0.271,0.824,-1.985,3.084,0.183
0.520,0.281,-0.279,0.826,-2.092,2.458,-0.046
0.520,0.286,-0.285,0.828,-1.939,1.435,-0.382
0.530,0.276,-0.281,0.829,-1.893,0.153,-0.595
0.530,0.282,-0.286,0.833,-1.832,-0.718,-0.855
0.530,0.277,-0.284,0.834,-1.802,-1.557,-0.901
0.540,0.274,-0.277,0.824,-2.031,-2.290,-0.763
0.540,0.273,-0.271,0.828,-2.107,-2.321,-0.779
0.550,0.280,-0.276,0.824,-2.015,-1.985,-0.656
0.550,0.283,-0.275,0.819,-1.985,-1.527,-0.763
0.550,0.291,-0.270,0.821,-2.031,-0.901,-0.794
0.560,0.292,-0.268,0.829,-1.954,-0.061,-0.870
0.560,0.284,-0.271,0.821,-1.939,1.099,-0.733
0.570,0.272,-0.267,0.817,-1.924,1.634,-0.672
0.570,0.278,-0.268,0.815,-1.908,2.198,-0.779
0.570,0.277,-0.271,0.796,-2.214,2.443,-0.656
0.580,0.279,-0.264,0.807,-3.008,3.115,-0.580
0.580,0.269,-0.266,0.793,-3.466,3.313,-0.885
0.590,0.268,-0.268,0.795,-4.214,2.458,-0.962
0.590,0.261,-0.270,0.801,-5.176,1.588,-0.794
0.590,0.260,-0.271,0.798,-5.679,1.145,-0.885
0.600,0.263,-0.266,0.804,-6.351,0.840,-0.550
0.600,0.264,-0.273,0.817,-6.580,0.107,-0.626
0.610,0.257,-0.268,0.821,-7.160,-0.076,-0.473
0.610,0.276,-0.267,0.825,-7.450,-0.183,-0.565
0.610,0.270,-0.280,0.842,-7.786,-0.366,-0.748
0.620,0.272,-0.278,0.857,-7.496,-0.244,-0.733
0.620,0.268,-0.278,0.851,-7.191,-0.519,-1.053
0.630,0.274,-0.280,0.858,-7.130,-0.641,-1.084
0.630,0.270,-0.285,0.860,-6.702,-0.427,-1.115
0.630,0.277,-0.278,0.872,-6.000,0.168,-0.870
0.640,0.268,-0.282,0.863,-5.328,0.458,-0.824
0.640,0.266,-0.286,0.858,-4.458,0.168,-0.702
0.650,0.257,-0.280,0.858,-3.756,-0.336,-0.534
0.650,0.266,-0.284,0.869,-3.130,-0.397,-0.397
0.650,0.262,-0.285,0.879,-2.519,-0.626,-0.473
0.660,0.265,-0.279,0.868,-1.924,-0.718,-0.473
0.660,0.263,-0.287,0.864,-1.511,-0.687,-0.534
0.670,0.270,-0.283,0.871,-0.962,-0.580,-0.504
0.670,0.268,-0.289,0.862,-0.687,-0.183,-0.229
0.680,0.268,-0.289,0.862,-0.366,-0.183,-0.275
0.680,0.269,-0.281,0.859,-0.305,-0.031,-0.137
0.680,0.276,-0.290,0.855,-0.489,0.366,-0.153
0.690,0.276,-0.284,0.862,-0.458,0.687,-0.046
0.690,0.273,-0.283,0.850,-0.412,1.008,0.092
0.700,0.269,-0.287,0.846,-0.183,1.099,0.198
0.700,0.270,-0.278,0.851,-0.061,1.221,0.244
0.700,0.274,-0.276,0.836,0.244,1.710,0.229
0.710,0.267,-0.281,0.848,0.473,2.092,0.458
0.710,0.265,-0.274,0.835,0.916,2.427,0.626
0.710,0.271,-0.275,0.827,1.023,2.702,0.794
0.720,0.269,-0.272,0.819,0.992,2.809,0.931
0.720,0.273,-0.264,0.808,0.824,3.069,1.099
0.730,0.268,-0.269,0.801,0.336,2.840,1.405
0.730,0.265,-0.263,0.809,-0.260,2.443,1.344
0.730,0.282,-0.264,0.801,-0.947,1.771,1.023
0.740,0.278,-0.265,0.807,-1.573,1.786,0.641
0.740,0.288,-0.272,0.805,-2.275,1.710,0.504
0.750,0.283,-0.270,0.810,-2.427,1.206,0.244
0.750,0.276,-0.276,0.822,-2.809,0.336,0.382
0.750,0.272,-0.278,0.824,-2.687,0.168,0.321
0.760,0.276,-0.283,0.824,-2.519,-0.366,0.351
0.760,0.275,-0.281,0.839,-2.504,-0.901,0.260
0.770,0.281,-0.285,0.844,-2.534,-1.618,-0.107
0.770,0.287,-0.279,0.848,-2.473,-1.649,-0.214
0.770,0.277,-0.283,0.855,-2.229,-1.649,-0.107
0.780,0.283,-0.280,0.834,-1.954,-2.015,-0.260
0.780,0.287,-0.282,0.841,-2.000,-2.061,-0.397
0.790,0.282,-0.280,0.839,-1.786,-2.229,-0.626
0.790,0.283,-0.279,0.839,-1.954,-1.954,-0.656
0.790,0.278,-0.275,0.830,-1.863,-1.756,-0.687
0.800,0.288,-0.275,0.826,-2.244,-1.985,-0.870
0.800,0.291,-0.274,0.823,-2.504,-1.634,-1.099
0.810,0.276,-0.279,0.832,-2.687,-1.450,-1.023
0.810,0.269,-0.281,0.833,-3.160,-1.481,-0.840
0.810,0.263,-0.285,0.826,-3.130,-1.634,-0.626
0.820,0.255,-0.281,0.837,-3.511,-2.031,-0.137
0.820,0.264,-0.281,0.842,-3.420,-2.305,-0.061
0.830,0.266,-0.284,0.844,-3.389,-2.672,0.244
0.830,0.280,-0.287,0.857,-3.679,-2.641,0.107
0.830,0.280,-0.287,0.843,-3.435,-2.916,-0.092
0.840,0.294,-0.293,0.860,-3.237,-2.794,-0.275
0.840,0.303,-0.290,0.860,-3.221,-2.351,-0.595
0.850,0.295,-0.295,0.862,-2.580,-1.924,-0.855
0.850,0.291,-0.294,0.861,-1.847,-1.802,-0.962
0.850,0.289,-0.286,0.859,-1.374,-2.107,-0.885
0.860,0.287,-0.293,0.868,-0.748,-1.802,-1.053
0.860,0.286,-0.294,0.853,-0.504,-1.191,-1.069
0.870,0.279,-0.286,0.851,-0.427,-1.023,-0.962
0.870,0.280,-0.288,0.858,-0.168,-1.008,-1.053
0.880,0.278,-0.288,0.855,0.046,-0.901,-0.840
0.880,0.275,-0.281,0.847,-0.031,-0.565,-0.702
0.880,0.280,-0.280,0.839,-0.260,-0.550,-0.641
0.890,0.278,-0.281,0.845,-0.443,-0.229,-0.595
0.890,0.283,-0.278,0.839,-0.412,0.168,-0.443
0.900,0.284,-0.277,0.837,-0.290,0.702,-0.443
0.900,0.288,-0.281,0.847,-0.275,0.947,-0.458
0.900,0.279,-0.280,0.826,-0.519,1.115,-0.458
0.910,0.276,-0.277,0.836,-0.458,1.389,-0.305
0.910,0.281,-0.282,0.838,-0.855,2.046,-0.031
0.920,0.278,-0.282,0.839,-0.626,2.534,0.122
0.920,0.281,-0.283,0.835,-0.427,2.748,0.076
0.920,0.281,-0.280,0.838,-0.046,2.687,0.076
0.930,0.284,-0.281,0.840,0.305,2.397,-0.275
0.930,0.286,-0.274,0.839,0.534,2.626,-0.214
0.930,0.288,-0.281,0.833,0.519,3.115,-0.244
0.940,0.283,-0.275,0.830,0.916,3.130,-0.305
0.940,0.284,-0.266,0.829,1.191,3.130,-0.321
0.950,0.289,-0.274,0.820,0.977,3.023,-0.641
0.950,0.287,-0.265,0.808,0.611,3.176,-0.641
0.950,0.285,-0.258,0.811,-0.107,2.824,-0.748
0.960,0.286,-0.262,0.799,-0.565,2.595,-0.992
0.960,0.276,-0.264,0.789,-1.328,2.427,-1.038
0.970,0.272,-0.264,0.801,-2.061,1.832,-1.038
0.970,0.275,-0.263,0.797,-2.580,1.511,-1.069
0.970,0.271,-0.272,0.795,-2.916,0.870,-0.947
0.980,0.272,-0.267,0.811,-2.962,0.046,-1.252
0.980,0.271,-0.273,0.814,-2.870,-0.824,-1.298
0.990,0.270,-0.271,0.816,-2.748,-1.450,-1.282
0.990,0.273,-0.277,0.830,-2.748,-1.695,-1.405
0.990,0.275,-0.280,0.807,-3.008,-2.015,-1.298
1.000,0.273,-0.275,0.825,-3.252,-2.031,-1.450
1.000,0.273,-0.279,0.833,-3.389,-1.557,-1.405
1.010,0.275,-0.281,0.831,-3.160,-1.450,-1.389
1.010,0.277,-0.278,0.835,-3.221,-1.160,-1.160
1.010,0.275,-0.284,0.838,-3.466,-0.855,-1.038
1.020,0.276,-0.283,0.843,-3.695,-0.473,-0.794
1.020,0.284,-0.283,0.850,-3.466,0.473,-0.870
1.030,0.279,-0.286,0.852,-3.145,1.115,-1.084
1.030,0.289,-0.281,0.845,-2.885,1.588,-1.176
1.040,0.291,-0.291,0.856,-2.656,2.229,-1.206
1.040,0.289,-0.280,0.849,-2.504,2.580,-1.634
1.040,0.292,-0.286,0.842,-2.214,2.519,-1.863
1.050,0.276,-0.290,0.843,-2.305,2.565,-2.000
1.050,0.263,-0.287,0.845,-2.412,1.771,-2.122
1.060,0.256,-0.286,0.837,-2.397,1.511,-1.679
1.060,0.260,-0.288,0.845,-2.427,1.313,-1.847
1.060,0.257,-0.287,0.834,-2.473,0.962,-1.557
1.070,0.247,-0.283,0.846,-2.366,0.626,-1.328
1.070,0.249,-0.284,0.842,-2.382,0.229,-1.344
1.080,0.246,-0.288,0.840,-2.595,-0.061,-1.023
1.080,0.259,-0.287,0.846,-2.809,-0.015,-1.038
1.080,0.253,-0.289,0.852,-2.641,0.626,-1.084
1.090,0.248,-0.288,0.861,-2.229,0.580,-1.084
1.090,0.233,-0.297,0.868,-1.847,0.244,-0.687
1.100,0.223,-0.286,0.874,-1.359,0.107,-0.153
1.100,0.220,-0.295,0.863,-0.687,-0.031,0.504
1.100,0.212,-0.289,0.880,0.183,-0.076,1.344
1.110,0.212,-0.295,0.873,1.176,0.290,1.832
1.110,0.216,-0.291,0.867,1.573,0.244,2.351
1.110,0.212,-0.287,0.856,1.893,0.290,2.916
1.120,0.218,-0.287,0.838,1.954,-0.183,3.084
1.120,0.213,-0.283,0.849,1.939,-0.595,3.481
1.130,0.230,-0.276,0.848,1.511,-1.130,3.771
1.130,0.230,-0.274,0.844,1.282,-1.374,3.969
1.130,0.228,-0.282,0.848,1.084,-1.695,4.107
1.140,0.229,-0.284,0.850,0.885,-2.290,4.183
1.140,0.225,-0.279,0.857,0.794,-2.748,4.198
1.150,0.232,-0.283,0.860,1.053,-2.916,4.260
1.150,0.228,-0.292,0.867,1.237,-3.634,4.397
1.150,0.216,-0.285,0.862,1.374,-4.260,4.260
1.160,0.211,-0.287,0.862,1.802,-5.267,4.260
1.160,0.198,-0.292,0.869,2.122,-6.565,4.580
1.170,0.190,-0.298,0.877,2.733,-7.344,5.206
1.170,0.179,-0.300,0.886,3.389,-8.183,5.832
1.170,0.181,-0.298,0.889,4.015,-8.687,6.550
1.180,0.180,-0.304,0.884,4.534,-8.718,7.405
1.180,0.179,-0.299,0.874,4.901,-8.198,7.802
1.180,0.172,-0.301,0.869,5.145,-8.397,8.366
1.190,0.168,-0.299,0.872,5.206,-8.748,8.656
1.190,0.155,-0.304,0.880,5.084,-9.191,9.298
1.200,0.142,-0.301,0.886,5.191,-9.954,10.046
1.200,0.130,-0.308,0.891,5.252,-11.191,11.084
1.200,0.121,-0.308,0.915,5.847,-11.985,12.550
1.210,0.117,-0.317,0.924,6.687,-11.573,13.863
1.210,0.118,-0.318,0.924,8.366,-11.206,15.282
1.220,0.110,-0.320,0.926,9.756,-11.176,16.611
1.220,0.116,-0.321,0.916,10.916,-11.084,17.908
1.230,0.121,-0.317,0.926,11.908,-10.763,18.901
1.230,0.131,-0.311,0.917,12.809,-10.733,19.725
1.230,0.135,-0.322,0.925,13.832,-11.206,20.687
1.240,0.138,-0.311,0.931,14.183,-11.603,21.527
1.240,0.150,-0.308,0.927,14.748,-11.786,22.382
1.250,0.156,-0.307,0.946,15.817,-12.748,23.038
1.250,0.164,-0.308,0.947,16.687,-13.847,23.603
1.250,0.173,-0.301,0.951,17.802,-14.183,24.244
1.260,0.175,-0.301,0.950,19.099,-14.290,24.733
1.260,0.179,-0.297,0.947,20.229,-14.885,25.069
1.270,0.182,-0.290,0.933,21.206,-15.435,25.450
1.270,0.192,-0.287,0.924,22.122,-15.756,25.786
1.280,0.190,-0.287,0.912,22.565,-15.695,26.031
1.280,0.188,-0.281,0.905,22.489,-15.985,26.351
1.280,0.182,-0.279,0.894,22.840,-16.702,26.870
1.290,0.177,-0.278,0.885,22.611,-17.496,27.710
1.290,0.179,-0.269,0.885,22.687,-17.756,28.672
1.300,0.177,-0.271,0.882,22.763,-17.435,29.603
1.300,0.196,-0.268,0.887,22.534,-17.191,30.519
1.300,0.205,-0.271,0.889,22.901,-17.237,31.267
1.310,0.213,-0.270,0.884,22.977,-16.656,31.710
1.310,0.224,-0.260,0.892,23.145,-16.137,32.473
1.320,0.240,-0.267,0.896,23.084,-15.206,32.855
1.320,0.253,-0.270,0.903,23.221,-14.992,33.191
1.330,0.275,-0.268,0.910,23.420,-14.168,32.824
1.330,0.290,-0.262,0.919,23.710,-13.435,32.550
1.330,0.303,-0.267,0.920,24.412,-12.260,31.985
1.340,0.319,-0.255,0.920,24.794,-11.008,31.267
1.340,0.319,-0.250,0.911,25.450,-10.305,30.748
1.350,0.324,-0.248,0.902,25.588,-9.282,29.908
1.350,0.321,-0.238,0.880,25.756,-8.611,29.359
1.350,0.317,-0.238,0.882,25.802,-8.534,28.824
1.360,0.328,-0.233,0.883,25.939,-7.786,28.168
1.360,0.355,-0.220,0.877,26.137,-9.191,26.702
1.370,0.356,-0.229,0.870,25.710,-10.427,25.695
1.370,0.347,-0.219,0.864,25.542,-10.412,25.527
1.370,0.343,-0.219,0.865,26.137,-9.634,25.847
1.380,0.347,-0.212,0.859,26.168,-9.435,25.893
1.380,0.361,-0.206,0.843,26.412,-9.466,25.496
1.390,0.362,-0.214,0.830,26.733,-9.237,24.702
1.390,0.357,-0.207,0.820,26.397,-9.282,24.092
1.400,0.356,-0.203,0.798,25.618,-9.160,23.542
1.400,0.355,-0.198,0.785,24.229,-9.160,22.672
1.400,0.328,-0.203,0.773,22.794,-9.893,22.107
1.410,0.312,-0.203,0.759,21.008,-11.695,21.725
1.410,0.290,-0.205,0.771,18.992,-13.237,21.679
1.420,0.274,-0.213,0.769,17.145,-14.718,21.771
1.420,0.259,-0.225,0.788,15.969,-16.076,22.504
1.420,0.238,-0.235,0.811,15.466,-17.588,23.298
1.430,0.220,-0.245,0.828,15.740,-18.443,24.336
1.430,0.198,-0.261,0.839,16.489,-18.733,25.481
1.440,0.173,-0.275,0.854,17.481,-18.931,27.069
1.440,0.144,-0.280,0.865,19.252,-19.389,29.053
1.440,0.129,-0.285,0.868,20.656,-19.573,30.931
1.450,0.120,-0.290,0.865,22.000,-18.779,32.855
1.450,0.110,-0.292,0.858,23.023,-17.664,34.595
1.460,0.090,-0.299,0.860,23.939,-16.840,36.687
1.460,0.075,-0.298,0.850,24.840,-16.107,38.931
1.470,0.045,-0.302,0.841,25.313,-15.649,41.344
1.470,0.037,-0.305,0.841,25.389,-15.618,43.328
1.470,0.007,-0.310,0.837,25.053,-16.565,45.069
1.480,-0.025,-0.318,0.839,24.901,-18.626,47.008
1.480,-0.062,-0.334,0.843,24.809,-22.137,49.618
1.490,-0.106,-0.342,0.859,24.656,-26.748,52.611
1.490,-0.130,-0.350,0.871,25.130,-31.344,56.046
1.500,-0.155,-0.365,0.879,25.542,-35.237,59.954
1.500,-0.165,-0.382,0.897,26.565,-39.023,64.275
1.500,-0.181,-0.385,0.918,28.244,-41.863,69.130
1.510,-0.199,-0.393,0.936,30.168,-44.092,75.023
1.510,-0.207,-0.406,0.941,31.817,-44.916,81.053
1.520,-0.213,-0.401,0.951,33.756,-45.160,87.313
1.520,-0.216,-0.419,0.952,35.878,-45.863,93.817
1.520,-0.221,-0.427,0.950,37.282,-46.076,99.893
1.530,-0.228,-0.424,0.960,37.725,-45.252,106.626
1.530,-0.221,-0.437,0.982,38.397,-43.374,113.588
1.540,-0.204,-0.448,0.992,39.725,-39.847,120.046
1.540,-0.174,-0.445,1.014,40.947,-34.809,126.382
1.550,-0.140,-0.452,1.018,41.908,-28.244,131.359
1.550,-0.100,-0.446,1.029,42.931,-20.153,135.908
1.560,-0.057,-0.456,1.046,44.412,-9.847,139.145
1.560,-0.036,-0.461,1.069,46.672,0.550,141.756
1.560,-0.027,-0.461,1.060,48.458,10.748,143.511
1.570,-0.033,-0.460,1.052,50.000,18.595,144.992
1.570,-0.059,-0.469,1.049,51.511,24.611,146.229
1.580,-0.092,-0.473,1.061,53.664,27.893,147.618
1.580,-0.122,-0.479,1.043,55.542,29.191,149.573
1.580,-0.174,-0.487,1.044,57.603,26.992,151.496
1.590,-0.203,-0.485,1.017,59.863,22.748,153.802
1.590,-0.222,-0.485,0.990,61.496,17.542,156.198
1.600,-0.270,-0.491,0.968,63.099,11.679,159.756
1.600,-0.292,-0.492,0.959,65.145,5.099,164.092
1.610,-0.291,-0.490,0.923,66.122,-0.595,168.244
1.610,-0.271,-0.492,0.891,66.626,-5.603,171.985
1.610,-0.259,-0.490,0.867,66.122,-10.733,175.176
1.620,-0.260,-0.495,0.867,65.435,-16.031,178.290
1.620,-0.248,-0.499,0.864,65.588,-20.901,181.725
1.630,-0.234,-0.501,0.873,66.076,-25.435,184.748
1.630,-0.208,-0.510,0.863,66.031,-28.687,186.534
1.640,-0.202,-0.530,0.855,66.046,-32.244,188.214
1.640,-0.207,-0.534,0.850,66.611,-37.023,189.664
1.650,-0.204,-0.546,0.858,67.802,-42.122,191.725
1.650,-0.192,-0.556,0.866,69.634,-47.099,193.435
1.650,-0.185,-0.574,0.859,71.725,-52.168,194.870
1.660,-0.177,-0.578,0.832,73.954,-57.710,196.473
1.660,-0.183,-0.588,0.816,75.878,-64.366,198.336
1.670,-0.178,-0.589,0.802,77.466,-71.328,201.313
1.670,-0.158,-0.591,0.784,78.702,-76.687,204.962
1.680,-0.120,-0.595,0.770,79.771,-80.672,208.763
1.680,-0.108,-0.610,0.760,80.305,-84.611,212.534
1.680,-0.100,-0.616,0.772,81.710,-88.718,217.145
1.690,-0.056,-0.633,0.788,83.679,-91.511,221.237
1.690,-0.013,-0.650,0.795,85.313,-91.511,224.580
1.700,0.044,-0.649,0.771,85.817,-89.878,227.405
1.700,0.102,-0.648,0.759,86.122,-88.885,229.267
1.710,0.158,-0.645,0.762,86.779,-86.824,229.847
1.710,0.227,-0.652,0.771,87.756,-83.695,229.786
1.710,0.260,-0.649,0.768,89.115,-82.122,229.496
1.720,0.282,-0.646,0.729,89.298,-81.023,228.427
1.720,0.329,-0.641,0.719,89.053,-79.924,226.672
1.730,0.363,-0.638,0.720,88.718,-78.076,224.550
1.730,0.403,-0.638,0.712,89.023,-77.420,221.313
1.740,0.406,-0.636,0.695,88.763,-77.038,218.183
1.740,0.403,-0.631,0.682,87.542,-75.817,216.473
1.740,0.376,-0.624,0.677,86.412,-75.542,216.168
1.750,0.348,-0.637,0.696,86.504,-75.878,217.786
1.750,0.365,-0.641,0.693,86.855,-75.420,219.359
1.760,0.399,-0.643,0.684,86.458,-72.809,220.656
1.760,0.427,-0.641,0.664,86.519,-70.260,221.817
1.770,0.442,-0.647,0.676,87.267,-67.206,223.023
1.770,0.460,-0.654,0.681,89.084,-64.885,224.534
1.770,0.489,-0.655,0.667,89.634,-62.290,225.786
1.780,0.528,-0.653,0.637,89.328,-59.206,226.275
1.780,0.562,-0.644,0.625,88.656,-56.672,226.305
1.790,0.587,-0.646,0.618,87.282,-52.214,225.435
1.790,0.625,-0.641,0.607,87.115,-48.718,225.420
1.790,0.643,-0.630,0.600,85.985,-45.313,223.603
1.800,0.675,-0.613,0.584,84.321,-42.840,222.718
1.800,0.691,-0.604,0.552,82.351,-40.290,221.313
1.810,0.702,-0.598,0.532,80.321,-38.947,219.863
1.810,0.705,-0.585,0.532,78.473,-38.061,218.992
1.820,0.710,-0.590,0.525,77.710,-37.756,218.168
1.820,0.730,-0.575,0.519,76.931,-38.046,217.328
1.820,0.754,-0.570,0.504,76.046,-38.000,216.397
1.830,0.792,-0.561,0.495,75.679,-37.420,214.412
1.830,0.828,-0.552,0.482,74.687,-36.794,212.260
1.840,0.855,-0.535,0.450,72.718,-35.710,208.672
1.840,0.870,-0.538,0.453,70.290,-35.802,204.962
1.850,0.859,-0.536,0.458,68.321,-37.832,201.176
1.850,0.839,-0.536,0.467,66.885,-40.962,198.183
1.850,0.842,-0.540,0.467,65.618,-45.573,194.626
1.860,0.868,-0.530,0.455,62.809,-49.847,190.244
1.860,0.897,-0.515,0.449,58.824,-52.534,185.252
1.870,0.918,-0.500,0.454,55.298,-53.084,180.992
1.870,0.937,-0.482,0.472,52.611,-51.603,177.191
1.880,0.964,-0.471,0.485,51.008,-48.748,173.053
1.880,0.972,-0.463,0.463,48.626,-45.893,168.977
1.880,0.960,-0.450,0.468,46.733,-42.290,165.099
1.890,0.956,-0.435,0.486,45.191,-38.153,162.870
1.890,0.955,-0.430,0.497,44.031,-33.115,160.718
1.900,0.972,-0.416,0.502,42.565,-27.191,158.137
1.900,0.961,-0.407,0.491,40.412,-21.679,155.573
1.910,0.919,-0.415,0.500,38.641,-17.740,153.664
1.910,0.879,-0.422,0.528,37.832,-14.656,153.466
1.910,0.878,-0.426,0.541,36.840,-12.046,153.389
1.920,0.892,-0.422,0.536,35.008,-10.840,151.908
1.920,0.920,-0.415,0.520,32.366,-10.122,148.901
1.930,0.945,-0.402,0.518,29.740,-9.405,145.206
1.930,0.953,-0.390,0.530,27.420,-8.977,141.008
1.940,0.987,-0.384,0.543,25.527,-7.725,135.649
1.940,1.013,-0.370,0.550,23.145,-5.176,129.695
1.940,1.039,-0.355,0.558,20.427,-1.618,123.466
1.950,1.062,-0.335,0.579,18.687,1.557,116.809
1.950,1.055,-0.324,0.573,17.481,1.985,109.282
1.960,1.044,-0.304,0.570,14.641,1.191,103.176
1.960,1.015,-0.296,0.591,12.977,1.618,98.641
1.960,0.986,-0.291,0.611,12.427,1.450,94.244
1.970,0.982,-0.287,0.601,10.412,-0.229,89.908
1.970,0.978,-0.288,0.606,8.015,-3.450,85.985
1.980,1.013,-0.270,0.610,6.855,-7.771,80.870
1.980,1.012,-0.265,0.592,6.214,-14.519,75.130
1.980,1.037,-0.279,0.593,2.473,-18.885,70.473
1.990,1.076,-0.278,0.628,1.649,-19.145,65.237
1.990,1.116,-0.289,0.653,3.588,-14.901,59.008
2.000,1.097,-0.284,0.629,3.496,-15.084,53.618
2.000,1.070,-0.291,0.638,2.641,-14.641,49.313
2.000,1.084,-0.298,0.651,2.214,-9.969,45.756
2.010,1.100,-0.299,0.669,3.496,-3.420,41.832
2.010,1.104,-0.300,0.659,4.397,3.237,37.969
2.020,1.103,-0.289,0.639,2.977,9.237,33.954
2.020,1.097,-0.292,0.630,2.122,15.145,29.786
2.020,1.086,-0.292,0.641,1.053,21.267,25.893
2.030,1.031,-0.295,0.638,-0.443,24.855,23.328
2.030,0.999,-0.302,0.654,-2.275,26.611,21.252
2.040,0.995,-0.311,0.679,-3.206,30.977,19.130
2.040,0.998,-0.313,0.683,-2.504,33.939,17.069
2.040,0.979,-0.317,0.689,-2.092,32.595,14.672
2.050,0.986,-0.317,0.686,-2.122,31.084,11.511
2.050,1.009,-0.329,0.700,-1.756,32.382,8.458
2.060,1.022,-0.325,0.708,-0.687,33.573,4.595
2.060,0.988,-0.325,0.712,1.435,31.939,0.855
2.060,0.953,-0.330,0.692,1.634,27.725,-2.992
2.070,0.939,-0.327,0.692,0.733,23.634,-7.038
2.070,0.942,-0.315,0.683,-0.748,21.221,-11.557
2.080,0.944,-0.311,0.683,-1.679,18.244,-16.580
2.080,0.929,-0.306,0.662,-3.618,14.489,-21.771
2.090,0.939,-0.298,0.657,-6.595,11.267,-27.053
2.090,0.959,-0.289,0.643,-9.802,9.878,-32.550
2.090,0.986,-0.291,0.634,-12.962,9.695,-38.412
2.100,1.006,-0.287,0.640,-16.565,10.656,-44.198
2.100,1.042,-0.284,0.638,-20.305,15.237,-49.481
2.110,1.074,-0.285,0.646,-23.084,23.389,-54.870
2.110,1.097,-0.289,0.657,-24.244,31.450,-60.382
2.110,1.109,-0.298,0.659,-25.435,38.336,-66.321
2.120,1.095,-0.306,0.647,-26.473,42.473,-71.466
2.120,1.081,-0.315,0.651,-28.275,47.389,-75.954
2.130,1.060,-0.329,0.631,-29.832,51.252,-80.015
2.130,1.057,-0.338,0.632,-31.771,51.664,-84.565
2.140,1.058,-0.342,0.627,-33.099,48.977,-89.832
2.140,1.058,-0.349,0.617,-35.069,45.389,-95.756
2.140,1.065,-0.356,0.604,-37.099,40.473,-102.275
2.150,1.068,-0.361,0.602,-39.359,34.290,-109.359
2.150,1.079,-0.356,0.582,-41.588,28.473,-117.023
2.160,1.094,-0.362,0.570,-44.443,24.580,-125.176
2.160,1.093,-0.371,0.558,-47.603,22.321,-132.122
2.170,1.084,-0.376,0.558,-50.916,22.458,-139.267
2.170,1.075,-0.387,0.561,-54.290,25.160,-146.061
2.170,1.058,-0.399,0.565,-57.191,29.725,-152.565
2.180,1.042,-0.411,0.542,-60.947,33.786,-158.870
2.180,1.017,-0.422,0.541,-65.756,37.618,-165.298
2.190,0.989,-0.424,0.539,-70.336,42.046,-171.466
2.190,0.960,-0.438,0.532,-74.702,46.046,-176.824
2.200,0.909,-0.444,0.522,-79.527,49.695,-181.344
2.200,0.865,-0.449,0.512,-84.595,51.450,-184.977
2.200,0.824,-0.465,0.491,-89.038,51.008,-187.985
2.210,0.791,-0.477,0.496,-93.221,49.069,-191.145
2.210,0.758,-0.487,0.519,-97.038,45.924,-193.878
2.220,0.708,-0.510,0.550,-99.191,41.038,-195.527
2.220,0.669,-0.533,0.584,-99.252,34.031,-196.580
2.230,0.653,-0.555,0.641,-97.817,25.664,-197.603
2.230,0.655,-0.571,0.686,-95.466,16.748,-198.962
2.240,0.654,-0.579,0.714,-91.939,9.191,-200.901
2.240,0.665,-0.583,0.717,-88.336,0.916,-203.542
2.240,0.672,-0.578,0.713,-84.641,-7.282,-206.794
2.250,0.667,-0.569,0.696,-82.015,-15.008,-210.168
2.250,0.664,-0.565,0.674,-79.939,-23.023,-213.099
2.260,0.674,-0.558,0.643,-79.282,-29.771,-215.817
2.260,0.687,-0.542,0.599,-80.443,-34.947,-218.748
2.270,0.698,-0.535,0.558,-82.794,-39.038,-221.237
2.270,0.719,-0.519,0.526,-87.023,-40.061,-223.725
2.270,0.763,-0.516,0.476,-92.672,-35.725,-225.786
2.280,0.793,-0.512,0.446,-100.519,-25.725,-227.649
2.280,0.815,-0.523,0.421,-109.359,-12.489,-229.496
2.290,0.827,-0.533,0.416,-117.985,3.344,-231.176
2.290,0.802,-0.557,0.428,-125.389,17.878,-231.893
2.300,0.770,-0.594,0.474,-130.076,31.466,-231.527
2.300,0.725,-0.628,0.526,-133.557,45.679,-231.023
2.310,0.683,-0.645,0.551,-136.031,60.443,-229.786
2.310,0.612,-0.679,0.603,-137.115,71.221,-227.847
2.310,0.515,-0.712,0.656,-135.924,76.550,-225.206
2.320,0.396,-0.747,0.743,-131.664,78.137,-221.359
2.320,0.302,-0.768,0.808,-123.740,75.924,-215.786
2.330,0.222,-0.779,0.880,-113.817,69.328,-209.802
2.330,0.183,-0.774,0.910,-103.863,57.893,-203.603
2.340,0.191,-0.766,0.925,-94.198,46.260,-198.427
2.340,0.216,-0.757,0.926,-84.962,36.076,-194.733
2.350,0.246,-0.740,0.917,-77.221,25.634,-192.321
2.350,0.302,-0.703,0.885,-72.244,16.076,-191.038
2.350,0.351,-0.686,0.852,-68.580,9.099,-191.237
2.360,0.426,-0.660,0.792,-66.779,7.130,-191.924
2.360,0.451,-0.641,0.769,-67.847,8.824,-192.763
2.370,0.484,-0.632,0.723,-70.519,14.992,-193.374
2.370,0.506,-0.616,0.691,-74.916,25.740,-194.061
2.380,0.509,-0.616,0.669,-79.847,39.786,-193.786
2.380,0.481,-0.625,0.674,-85.099,55.008,-192.718
2.380,0.461,-0.636,0.671,-90.412,69.695,-192.046
2.390,0.467,-0.637,0.682,-95.206,83.695,-191.313
2.390,0.472,-0.652,0.699,-98.840,96.244,-192.443
2.400,0.474,-0.667,0.702,-100.336,103.496,-194.626
2.400,0.453,-0.681,0.713,-100.916,108.473,-197.756
2.410,0.430,-0.689,0.723,-100.641,108.504,-200.290
2.410,0.361,-0.712,0.770,-98.565,104.366,-202.183
2.420,0.279,-0.740,0.842,-93.038,95.695,-202.275
2.420,0.158,-0.764,0.920,-84.580,85.863,-199.740
2.420,0.087,-0.769,0.972,-75.359,71.573,-195.053
2.430,0.053,-0.757,0.997,-65.679,58.107,-189.634
2.430,0.058,-0.739,0.998,-56.992,47.221,-183.985
2.440,0.100,-0.722,0.993,-49.023,38.885,-179.145
2.440,0.177,-0.692,0.950,-42.290,33.893,-176.550
2.450,0.239,-0.671,0.897,-40.458,33.115,-174.321
2.450,0.416,-0.681,0.969,-36.473,48.809,-173.160
2.450,0.284,-0.632,0.767,-27.328,54.992,-174.198
2.460,0.240,-0.651,0.729,-35.649,50.076,-175.527
2.460,0.244,-0.609,0.658,-38.321,48.687,-179.160
2.470,0.273,-0.609,0.659,-40.458,52.595,-182.107
2.470,0.144,-0.606,0.667,-43.817,45.466,-183.710
2.480,0.100,-0.597,0.635,-49.344,42.947,-181.420
2.480,0.054,-0.602,0.646,-52.489,43.817,-178.427
2.480,0.050,-0.596,0.639,-55.573,45.863,-173.863
2.490,0.040,-0.592,0.652,-58.031,46.763,-169.847
2.490,0.064,-0.578,0.644,-60.855,47.099,-166.336
2.500,0.090,-0.564,0.643,-63.802,47.969,-163.908
2.500,0.122,-0.559,0.649,-65.557,48.168,-162.382
2.510,0.133,-0.555,0.661,-67.557,48.427,-161.115
2.510,0.137,-0.551,0.682,-69.405,48.809,-160.046
2.520,0.122,-0.563,0.702,-69.863,48.214,-158.244
2.520,0.101,-0.558,0.726,-70.015,47.405,-155.176
2.520,0.085,-0.553,0.749,-69.588,48.794,-150.809
2.530,0.065,-0.554,0.772,-68.458,50.977,-145.740
2.530,0.042,-0.562,0.794,-66.672,52.229,-140.962
2.540,0.026,-0.557,0.813,-64.763,52.427,-136.687
2.540,0.012,-0.560,0.818,-62.885,52.198,-132.779
2.550,-0.005,-0.556,0.824,-61.557,51.649,-128.901
2.550,-0.015,-0.549,0.831,-59.649,50.824,-125.206
2.550,-0.042,-0.535,0.823,-58.061,50.534,-121.389
2.560,-0.049,-0.523,0.824,-57.023,50.137,-117.771
2.560,-0.057,-0.508,0.799,-56.107,50.015,-113.649
2.570,-0.077,-0.501,0.786,-55.847,50.275,-109.252
2.570,-0.085,-0.477,0.765,-56.244,50.809,-104.351
2.580,-0.099,-0.462,0.760,-57.038,50.779,-99.344
2.580,-0.083,-0.440,0.741,-58.443,49.954,-94.672
2.590,-0.073,-0.427,0.746,-59.985,48.916,-89.985
2.590,-0.038,-0.422,0.742,-61.603,47.924,-86.504
2.590,-0.001,-0.413,0.751,-62.687,46.763,-83.359
2.600,0.022,-0.413,0.756,-63.069,45.481,-81.084
2.600,0.049,-0.409,0.765,-63.420,44.565,-79.313
2.610,0.089,-0.400,0.767,-63.496,43.557,-77.893
2.610,0.100,-0.392,0.767,-63.359,42.534,-76.824
2.620,0.116,-0.397,0.763,-63.344,41.649,-75.634
2.620,0.131,-0.402,0.776,-63.130,41.130,-74.382
2.620,0.152,-0.392,0.797,-63.710,42.458,-73.344
2.630,0.184,-0.388,0.806,-63.603,44.947,-72.931
2.630,0.197,-0.388,0.822,-63.206,47.969,-72.656
2.640,0.196,-0.397,0.838,-62.000,51.557,-72.443
2.640,0.195,-0.404,0.856,-59.023,55.344,-71.969
2.640,0.173,-0.406,0.871,-56.840,58.611,-71.313
2.650,0.139,-0.413,0.871,-53.481,60.412,-69.924
2.650,0.129,-0.414,0.885,-50.031,62.443,-68.321
2.660,0.108,-0.414,0.886,-47.053,63.802,-66.565
2.660,0.081,-0.416,0.876,-44.076,64.260,-64.122
2.670,0.052,-0.412,0.865,-41.725,64.214,-61.450
2.670,0.037,-0.403,0.864,-40.107,63.359,-58.275
2.670,0.029,-0.400,0.853,-38.275,62.412,-55.267
2.680,0.028,-0.388,0.844,-37.527,60.824,-52.962
2.680,0.041,-0.387,0.841,-36.595,58.962,-51.176
2.690,0.051,-0.381,0.827,-35.969,57.115,-50.076
2.690,0.039,-0.383,0.838,-35.450,54.275,-49.115
2.700,0.036,-0.381,0.823,-34.901,50.992,-47.817
2.700,0.017,-0.380,0.829,-33.893,47.344,-46.763
2.700,0.003,-0.383,0.822,-33.252,43.176,-45.374
2.710,-0.006,-0.383,0.831,-33.069,37.893,-44.351
2.710,-0.016,-0.386,0.843,-32.336,32.885,-42.824
2.720,-0.021,-0.394,0.850,-31.817,28.672,-41.206
2.720,-0.021,-0.393,0.870,-30.901,24.153,-39.527
2.730,-0.022,-0.399,0.874,-29.863,19.908,-37.924
2.730,0.000,-0.399,0.903,-28.656,17.069,-36.137
2.730,0.016,-0.396,0.919,-27.267,15.771,-34.443
2.740,0.022,-0.401,0.934,-25.573,14.351,-32.382
2.740,0.023,-0.398,0.944,-24.153,13.618,-30.153
2.750,0.034,-0.396,0.954,-22.565,13.328,-28.015
2.750,0.044,-0.396,0.966,-20.809,14.397,-25.786
2.760,0.062,-0.388,0.971,-18.824,16.382,-23.527
2.760,0.071,-0.389,0.981,-16.962,19.038,-21.160
2.760,0.069,-0.388,0.976,-14.733,20.443,-19.069
2.770,0.066,-0.389,0.977,-12.565,21.328,-17.160
2.770,0.076,-0.389,0.962,-10.260,22.198,-15.099
2.780,0.085,-0.381,0.963,-8.046,22.947,-13.756
2.780,0.089,-0.375,0.951,-6.656,22.977,-12.794
2.790,0.102,-0.377,0.942,-5.481,22.427,-12.137
2.790,0.100,-0.372,0.930,-4.168,21.557,-11.649
2.790,0.104,-0.363,0.927,-3.130,20.550,-10.962
2.800,0.087,-0.359,0.908,-2.290,19.008,-10.504
2.800,0.081,-0.359,0.910,-1.710,16.550,-9.847
2.810,0.074,-0.354,0.890,-1.588,14.168,-9.023
2.810,0.066,-0.351,0.890,-1.573,11.969,-7.679
2.810,0.058,-0.352,0.899,-1.420,9.985,-5.618
2.820,0.058,-0.346,0.898,-1.878,7.725,-3.679
2.820,0.079,-0.347,0.896,-2.260,6.015,-2.153
2.830,0.091,-0.337,0.901,-2.595,5.496,-0.580
2.830,0.110,-0.342,0.907,-2.885,5.725,1.176
2.830,0.125,-0.342,0.917,-3.084,5.725,2.504
2.840,0.135,-0.343,0.913,-3.069,5.771,3.344
2.840,0.165,-0.338,0.926,-3.252,6.031,3.786
2.850,0.186,-0.339,0.936,-2.824,6.595,4.000
2.850,0.194,-0.332,0.946,-2.168,7.359,4.229
2.850,0.201,-0.337,0.947,-1.038,7.786,4.214
2.860,0.201,-0.334,0.946,-0.076,7.847,4.519
2.860,0.197,-0.332,0.938,1.176,7.588,4.809
2.870,0.202,-0.327,0.947,2.107,7.206,5.237
2.870,0.202,-0.326,0.937,3.130,6.397,5.802
2.870,0.205,-0.317,0.941,4.214,5.603,6.244
2.880,0.214,-0.314,0.928,4.977,5.038,6.366
2.880,0.225,-0.313,0.920,5.695,4.519,6.458
2.880,0.235,-0.305,0.918,6.214,3.664,6.137
2.890,0.238,-0.303,0.915,6.840,2.183,5.817
2.890,0.246,-0.300,0.898,7.008,0.794,5.389
2.900,0.249,-0.290,0.881,6.626,-0.260,4.885
2.900,0.251,-0.290,0.879,6.015,-1.176,4.534
2.900,0.263,-0.292,0.875,5.756,-2.061,4.153
2.910,0.266,-0.294,0.879,4.962,-2.794,4.031
2.910,0.265,-0.294,0.876,4.931,-2.885,3.924
2.920,0.281,-0.291,0.873,4.565,-3.008,3.817
2.920,0.288,-0.288,0.877,3.908,-2.931,3.817
2.920,0.296,-0.292,0.877,3.298,-2.427,3.389
2.930,0.311,-0.294,0.886,2.779,-1.527,2.916
2.930,0.319,-0.299,0.892,2.931,-0.412,2.595
2.940,0.312,-0.292,0.878,3.115,0.687,2.580
2.940,0.304,-0.301,0.893,3.313,1.634,2.168
2.940,0.310,-0.304,0.896,3.527,2.641,1.924
2.950,0.307,-0.304,0.897,4.183,4.015,1.832
2.950,0.304,-0.309,0.911,5.344,5.267,1.786
2.950,0.301,-0.309,0.903,6.046,5.740,1.344
2.960,0.298,-0.309,0.902,6.687,6.351,1.267
2.960,0.289,-0.316,0.898,7.481,6.672,0.992
2.970,0.276,-0.308,0.895,8.580,7.313,0.763
2.970,0.266,-0.307,0.886,9.191,6.977,0.489
2.970,0.263,-0.310,0.875,9.618,6.153,0.336
2.980,0.261,-0.308,0.873,10.336,5.802,0.061
2.980,0.255,-0.299,0.855,10.824,4.824,-0.107
2.980,0.240,-0.299,0.843,11.466,3.908,-0.611
2.990,0.228,-0.296,0.841,11.740,2.565,-0.550
2.990,0.219,-0.295,0.828,11.389,1.634,-0.168
3.000,0.215,-0.291,0.819,10.229,1.084,0.351
3.000,0.212,-0.288,0.804,9.679,0.992,0.870
3.000,0.209,-0.290,0.810,8.870,0.519,1.618
3.010,0.200,-0.289,0.802,7.832,-0.107,2.290
3.010,0.216,-0.287,0.805,6.641,-0.092,2.885
3.020,0.214,-0.286,0.792,5.405,-0.122,3.695
3.020,0.220,-0.289,0.807,4.275,-0.275,4.229
3.020,0.224,-0.287,0.805,3.878,-0.519,4.519
3.030,0.234,-0.289,0.822,3.176,-1.237,4.794
3.030,0.237,-0.293,0.828,2.458,-1.130,4.992
3.040,0.247,-0.294,0.824,2.321,-0.779,5.160
3.040,0.246,-0.297,0.844,2.473,-0.718,5.069
3.040,0.249,-0.299,0.836,2.382,-1.115,5.206
3.050,0.255,-0.302,0.843,2.550,-1.282,4.947
3.050,0.261,-0.304,0.846,2.916,-1.878,4.550
3.060,0.264,-0.297,0.849,3.466,-2.763,4.260
3.060,0.266,-0.297,0.849,3.496,-3.664,3.939
3.060,0.264,-0.299,0.855,4.183,-4.275,3.679
3.070,0.266,-0.290,0.850,4.534,-5.221,3.374
3.070,0.265,-0.286,0.855,5.038,-6.122,3.313
3.070,0.270,-0.292,0.858,5.405,-6.718,3.328
3.080,0.283,-0.286,0.844,5.725,-6.641,3.496
3.080,0.289,-0.290,0.859,6.046,-6.183,3.084
3.090,0.298,-0.287,0.850,6.214,-5.145,3.176
3.090,0.304,-0.285,0.839,6.092,-3.771,3.069
3.090,0.302,-0.280,0.836,5.985,-2.427,2.763
3.100,0.294,-0.284,0.829,5.740,-1.466,2.489
3.100,0.292,-0.281,0.825,5.527,-0.504,2.534
3.110,0.291,-0.281,0.837,5.359,-0.229,2.443
3.110,0.287,-0.276,0.829,5.115,-0.672,2.321
3.110,0.280,-0.281,0.828,5.176,-1.679,2.321
3.120,0.280,-0.275,0.820,4.550,-2.870,2.031
3.120,0.284,-0.275,0.825,4.214,-3.008,1.802
3.130,0.281,-0.282,0.825,4.244,-2.885,1.863
3.130,0.283,-0.276,0.826,4.015,-3.099,2.076
3.130,0.281,-0.280,0.819,4.061,-3.221,1.847
3.140,0.277,-0.276,0.818,3.924,-3.084,1.985
3.140,0.287,-0.282,0.814,3.725,-2.870,2.015
3.150,0.294,-0.277,0.829,3.542,-2.809,1.756
3.150,0.292,-0.276,0.829,3.634,-2.260,1.664
3.150,0.307,-0.274,0.825,3.969,-1.710,1.252
3.160,0.300,-0.276,0.818,4.122,-1.527,1.069
3.160,0.300,-0.272,0.812,4.107,-2.031,0.550
3.160,0.300,-0.269,0.820,3.496,-3.038,0.198
3.170,0.306,-0.269,0.821,3.221,-3.298,0.198
3.170,0.310,-0.271,0.829,2.931,-3.069,-0.336
3.180,0.311,-0.269,0.824,2.855,-2.809,-0.504
3.180,0.304,-0.261,0.817,2.382,-2.748,-0.702
3.180,0.304,-0.269,0.804,1.985,-2.702,-0.779
3.190,0.298,-0.265,0.805,1.679,-2.244,-0.992
3.190,0.297,-0.267,0.804,1.237,-1.771,-0.824
3.200,0.300,-0.265,0.810,0.885,-1.191,-0.763
3.200,0.302,-0.269,0.810,0.198,-0.412,-0.641
3.200,0.302,-0.270,0.811,-0.336,0.473,-0.809
3.210,0.305,-0.266,0.812,-0.809,1.389,-1.115
3.210,0.310,-0.271,0.815,-1.099,2.305,-1.405
3.220,0.322,-0.271,0.822,-1.588,3.450,-1.863
3.220,0.321,-0.273,0.828,-1.695,4.366,-2.351
3.220,0.316,-0.273,0.818,-1.496,3.985,-2.977
3.230,0.310,-0.263,0.811,-1.924,2.916,-3.817
3.230,0.307,-0.268,0.828,-2.443,0.137,-5.008
3.240,0.317,-0.270,0.829,-2.718,-1.603,-5.450
3.240,0.316,-0.278,0.848,-2.229,-1.618,-5.985
3.240,0.308,-0.284,0.855,-1.511,-2.779,-6.092
3.250,0.289,-0.278,0.846,-1.099,-3.939,-6.214
3.250,0.290,-0.279,0.836,-0.870,-4.687,-6.061
3.260,0.290,-0.281,0.844,-0.275,-4.595,-6.015
3.260,0.295,-0.284,0.843,0.550,-4.122,-6.076
3.260,0.295,-0.282,0.838,1.023,-3.389,-5.878
3.270,0.289,-0.278,0.829,0.855,-2.412,-5.634
3.270,0.281,-0.281,0.823,0.824,-1.313,-5.359
3.280,0.279,-0.278,0.815,0.611,-0.305,-5.115
3.280,0.278,-0.279,0.824,-0.046,0.489,-4.519
3.280,0.264,-0.277,0.826,-0.427,1.450,-4.046
3.290,0.269,-0.281,0.812,-0.702,2.779,-3.878
3.290,0.265,-0.275,0.815,-1.053,3.481,-3.191
3.300,0.250,-0.272,0.805,-0.656,3.466,-2.290
3.300,0.253,-0.277,0.811,-0.901,2.733,-1.954
3.300,0.253,-0.270,0.817,-1.115,1.771,-1.649
3.310,0.263,-0.274,0.815,-1.389,1.115,-1.649
3.310,0.264,-0.275,0.827,-1.695,0.534,-1.435
3.320,0.263,-0.279,0.823,-1.847,0.092,-1.145
3.320,0.261,-0.276,0.824,-1.817,-0.336,-0.870
3.320,0.273,-0.277,0.824,-1.802,-0.397,-0.809
3.330,0.271,-0.272,0.820,-1.786,0.092,-0.076
3.330,0.271,-0.271,0.823,-1.634,0.626,0.122
3.340,0.281,-0.275,0.819,-1.679,1.511,0.122
3.340,0.289,-0.273,0.816,-1.405,2.519,0.275
3.340,0.292,-0.268,0.820,-1.634,3.389,0.168
3.350,0.292,-0.271,0.820,-1.832,4.519,0.260
3.350,0.292,-0.267,0.814,-1.618,5.588,0.305
3.360,0.280,-0.265,0.823,-1.618,6.107,0.550
3.360,0.284,-0.267,0.820,-1.634,6.137,0.779
3.360,0.275,-0.267,0.813,-1.908,5.878,0.840
3.370,0.283,-0.259,0.808,-1.939,4.947,0.641
3.370,0.285,-0.265,0.815,-2.718,3.893,0.321
3.380,0.289,-0.259,0.818,-2.885,3.221,-0.168
3.380,0.278,-0.262,0.833,-2.519,2.687,-0.397
3.380,0.278,-0.267,0.832,-2.366,1.221,-0.733
3.390,0.273,-0.257,0.828,-2.153,0.046,-0.779
3.390,0.273,-0.261,0.825,-2.046,-0.870,-0.855
3.400,0.273,-0.266,0.831,-2.229,-1.450,-0.763
3.400,0.279,-0.266,0.831,-2.153,-2.076,-0.962
3.400,0.288,-0.258,0.822,-2.076,-2.244,-1.053
3.410,0.293,-0.269,0.823,-2.122,-2.076,-1.511
3.410,0.289,-0.261,0.822,-2.489,-2.168,-1.954
3.420,0.295,-0.259,0.827,-2.824,-1.893,-2.107
3.420,0.298,-0.269,0.827,-3.069,-1.740,-2.443
3.420,0.292,-0.263,0.832,-3.573,-1.634,-2.656
3.430,0.287,-0.270,0.826,-4.046,-2.168,-3.008
3.430,0.288,-0.266,0.840,-3.924,-1.939,-3.008
3.440,0.290,-0.263,0.830,-4.092,-1.252,-3.130
3.440,0.287,-0.268,0.830,-4.168,-0.916,-3.252
3.440,0.281,-0.266,0.828,-4.076,-0.885,-3.191
3.450,0.279,-0.268,0.831,-3.939,-0.947,-2.977
3.450,0.274,-0.270,0.828,-3.939,-0.534,-3.023
3.460,0.275,-0.268,0.826,-4.092,-0.214,-2.885
3.460,0.265,-0.264,0.825,-4.168,-0.107,-2.779
3.470,0.265,-0.267,0.828,-4.137,0.351,-2.244
3.470,0.265,-0.268,0.823,-4.260,0.870,-1.832
3.470,0.263,-0.271,0.828,-4.397,1.740,-1.756
3.480,0.272,-0.273,0.832,-4.656,2.824,-1.389
3.480,0.267,-0.273,0.830,-4.534,3.481,-1.313
3.490,0.270,-0.279,0.834,-4.794,3.969,-1.359
3.490,0.277,-0.274,0.835,-4.366,4.275,-1.649
3.490,0.285,-0.283,0.840,-4.412,4.412,-1.908
3.500,0.271,-0.271,0.844,-4.397,4.198,-2.305
3.500,0.275,-0.276,0.835,-4.260,3.908,-2.626
3.510,0.266,-0.277,0.842,-4.595,3.542,-2.885
3.510,0.255,-0.285,0.845,-4.275,2.855,-2.641
3.510,0.253,-0.282,0.848,-4.076,2.229,-2.885
3.520,0.250,-0.285,0.854,-3.817,1.725,-2.611
3.520,0.246,-0.289,0.848,-3.466,1.588,-2.565
3.530,0.246,-0.281,0.848,-3.298,1.282,-2.214
3.530,0.247,-0.292,0.847,-3.267,0.687,-2.336
3.530,0.247,-0.282,0.846,-3.389,0.336,-2.198
3.540,0.241,-0.283,0.848,-3.282,0.534,-2.015
3.540,0.244,-0.283,0.853,-3.282,0.809,-1.695
3.550,0.244,-0.276,0.851,-3.405,1.115,-1.115
3.550,0.236,-0.275,0.846,-3.435,1.252,-0.580
3.550,0.239,-0.278,0.844,-3.679,1.771,-0.122
3.560,0.244,-0.276,0.826,-3.893,2.534,0.580
3.560,0.251,-0.285,0.838,-3.985,3.099,0.824
3.560,0.253,-0.279,0.849,-3.802,3.756,0.794
3.570,0.258,-0.284,0.846,-3.618,4.046,0.962
3.570,0.271,-0.281,0.848,-3.481,4.107,0.779
3.580,0.273,-0.286,0.845,-3.511,4.412,0.489
3.580,0.266,-0.287,0.840,-3.023,4.458,0.275
3.580,0.261,-0.287,0.837,-2.855,4.321,0.076
3.590,0.254,-0.292,0.838,-2.840,3.618,0.031
3.590,0.259,-0.289,0.838,-2.519,3.389,0.015
3.600,0.253,-0.288,0.847,-2.137,2.901,0.031
3.600,0.240,-0.289,0.846,-2.031,2.443,0.198
3.600,0.245,-0.285,0.838,-1.725,1.679,0.382
3.610,0.253,-0.291,0.837,-1.832,1.328,0.336
3.610,0.263,-0.285,0.844,-1.664,1.893,0.336
3.620,0.265,-0.288,0.845,-1.542,2.137,0.733
3.620,0.260,-0.287,0.845,-1.618,2.366,0.916
3.620,0.260,-0.285,0.834,-1.588,2.305,1.160
3.630,0.268,-0.281,0.849,-1.863,2.473,1.344
3.630,0.275,-0.287,0.849,-1.863,3.664,1.191
3.640,0.284,-0.283,0.842,-1.863,4.824,1.084
3.640,0.281,-0.286,0.837,-2.015,5.664,1.160
3.640,0.281,-0.283,0.837,-2.076,5.695,0.840
3.650,0.275,-0.285,0.846,-2.153,5.969,0.809
3.650,0.278,-0.281,0.844,-2.244,6.336,0.718
3.650,0.273,-0.282,0.854,-2.351,6.687,0.580
3.660,0.271,-0.290,0.840,-1.893,6.794,0.397
3.660,0.267,-0.283,0.847,-2.198,6.733,0.397
3.670,0.257,-0.286,0.831,-1.863,6.290,0.351
3.670,0.260,-0.283,0.834,-1.771,6.107,0.519
3.670,0.261,-0.281,0.826,-2.031,5.740,0.473
3.680,0.256,-0.282,0.823,-2.336,5.115,0.595
3.680,0.260,-0.280,0.833,-2.565,4.824,0.641
3.690,0.254,-0.281,0.832,-2.595,4.855,0.641
3.690,0.255,-0.272,0.829,-2.748,4.519,0.779
3.690,0.253,-0.270,0.835,-2.901,4.260,0.855
3.700,0.261,-0.274,0.832,-3.130,3.618,1.038
3.700,0.260,-0.270,0.827,-3.130,3.099,1.069
3.710,0.257,-0.267,0.845,-3.115,2.168,0.702
3.710,0.264,-0.272,0.826,-3.344,1.267,0.687
3.710,0.271,-0.270,0.832,-3.450,0.718,0.351
3.720,0.272,-0.263,0.834,-3.679,0.275,0.275
3.720,0.276,-0.274,0.830,-3.710,-0.137,0.137
3.730,0.273,-0.272,0.826,-3.985,-0.489,-0.076
3.730,0.274,-0.268,0.838,-4.351,-0.718,-0.076
3.730,0.269,-0.273,0.841,-4.198,-1.115,-0.046
3.740,0.268,-0.276,0.837,-4.275,-1.206,-0.137
3.740,0.262,-0.275,0.859,-3.893,-0.763,-0.168
3.750,0.260,-0.285,0.848,-3.511,-0.336,0.122
3.750,0.253,-0.277,0.857,-3.344,0.214,0.214
3.750,0.253,-0.283,0.843,-2.656,0.916,0.458
3.760,0.247,-0.281,0.840,-2.382,1.344,0.748
3.760,0.248,-0.273,0.832,-2.290,2.031,0.824
3.770,0.248,-0.266,0.834,-2.229,2.519,1.053
3.770,0.248,-0.276,0.840,-2.260,2.656,1.298
3.770,0.242,-0.269,0.818,-2.534,2.382,1.359
3.780,0.245,-0.267,0.830,-3.008,2.366,1.420
3.780,0.242,-0.266,0.818,-3.160,2.427,1.496
3.780,0.251,-0.273,0.822,-3.435,2.061,1.725
3.790,0.252,-0.271,0.824,-3.481,1.679,1.863
3.790,0.246,-0.271,0.818,-3.847,0.992,1.756
3.800,0.256,-0.279,0.836,-3.878,0.183,1.557
3.800,0.258,-0.278,0.834,-3.847,-0.137,1.298
3.800,0.266,-0.277,0.849,-3.710,-0.534,1.084
3.810,0.266,-0.274,0.845,-3.588,-0.244,0.824
3.810,0.263,-0.281,0.838,-3.511,-0.046,0.992
3.820,0.265,-0.282,0.843,-3.481,0.061,0.824
3.820,0.263,-0.283,0.834,-3.282,0.015,0.977
3.820,0.259,-0.284,0.834,-3.313,-0.137,0.794
3.830,0.269,-0.280,0.832,-3.267,-0.458,0.580
3.830,0.266,-0.279,0.829,-3.542,-1.237,0.229
3.840,0.261,-0.275,0.833,-3.893,-1.603,0.107
3.840,0.250,-0.285,0.835,-4.183,-1.802,0.046
3.840,0.248,-0.282,0.845,-4.229,-2.076,0.214
3.850,0.254,-0.279,0.844,-4.137,-1.985,0.290
3.850,0.258,-0.279,0.850,-3.924,-1.557,0.550
3.860,0.259,-0.280,0.845,-3.527,-1.557,0.977
3.860,0.258,-0.291,0.862,-3.313,-1.191,0.809
3.860,0.266,-0.288,0.852,-2.885,-0.718,0.809
3.870,0.265,-0.288,0.851,-2.763,-0.015,0.641
3.870,0.269,-0.286,0.853,-2.305,0.397,0.550
3.880,0.266,-0.283,0.855,-2.107,0.000,0.489
3.880,0.255,-0.285,0.856,-2.198,-0.855,0.519
3.880,0.259,-0.284,0.849,-2.183,-1.725,0.550
3.890,0.263,-0.290,0.846,-2.382,-1.282,0.336
3.890,0.257,-0.291,0.846,-2.779,-1.176,0.443
3.900,0.260,-0.290,0.849,-2.641,-1.313,0.718
3.900,0.265,-0.282,0.850,-2.824,-1.420,0.519
3.900,0.261,-0.289,0.840,-2.962,-1.206,0.656
3.910,0.266,-0.291,0.854,-2.718,-0.076,0.672
3.910,0.258,-0.292,0.858,-2.260,0.519,0.763
3.920,0.257,-0.290,0.859,-1.863,1.221,0.809
3.920,0.254,-0.294,0.862,-1.450,1.298,0.840
3.920,0.262,-0.296,0.879,-1.252,1.969,1.115
3.930,0.253,-0.289,0.866,-0.947,2.275,1.267
3.930,0.258,-0.297,0.868,-0.611,2.672,1.389
3.940,0.251,-0.298,0.869,-0.489,3.023,1.389
3.940,0.248,-0.295,0.875,-0.382,3.267,1.359
3.940,0.253,-0.302,0.856,-0.198,2.534,1.237
3.950,0.243,-0.299,0.871,0.046,1.878,1.115
3.950,0.242,-0.298,0.861,0.550,1.664,1.191
3.950,0.244,-0.302,0.865,0.656,1.206,1.328
3.960,0.240,-0.300,0.858,0.733,0.534,1.511
3.960,0.235,-0.298,0.860,1.038,0.351,1.710
3.970,0.239,-0.293,0.851,1.282,0.168,1.725
3.970,0.246,-0.289,0.851,1.191,0.321,2.107
3.970,0.233,-0.295,0.844,1.084,0.458,2.260
3.980,0.236,-0.286,0.834,1.145,0.794,2.641
3.980,0.243,-0.285,0.845,0.901,0.885,3.084
3.990,0.237,-0.284,0.839,1.130,0.824,3.160
3.990,0.251,-0.280,0.836,0.565,0.565,3.313
3.990,0.244,-0.290,0.842,0.504,0.489,3.588
4.000,0.248,-0.282,0.843,0.198,0.473,3.740
4.000,0.252,-0.286,0.829,0.122,0.336,3.847
4.000,0.262,-0.288,0.845,-0.015,0.519,3.802
4.010,0.264,-0.287,0.844,-0.031,-0.473,3.786
4.010,0.281,-0.287,0.846,0.107,-0.885,3.328
4.020,0.281,-0.287,0.854,0.107,-1.282,2.931
4.020,0.271,-0.291,0.849,0.733,-1.679,2.260
4.020,0.272,-0.291,0.846,0.916,-1.985,1.832
4.030,0.272,-0.292,0.838,1.130,-2.153,1.740
4.030,0.265,-0.285,0.842,1.405,-2.092,1.740
4.040,0.265,-0.288,0.837,1.588,-2.412,1.756
4.040,0.264,-0.283,0.837,1.328,-2.229,1.847
4.040,0.259,-0.283,0.835,1.481,-2.168,1.924
4.050,0.261,-0.282,0.831,1.176,-2.275,2.137
4.050,0.263,-0.287,0.832,1.038,-1.710,2.168
4.060,0.263,-0.284,0.836,0.962,-0.336,2.443
