Time,acce_x,acce_y,acce_z,gyro_x,gyro_y,gyro_z
0.000,0.208,-0.288,0.866,-1.573,-1.099,-0.397
0.000,0.204,-0.276,0.872,-1.313,-0.580,-0.962
0.010,0.198,-0.281,0.858,-0.992,-0.214,-0.916
0.010,0.192,-0.278,0.873,-0.840,-1.084,-0.809
0.010,0.191,-0.282,0.860,-1.008,-1.008,-0.840
0.020,0.185,-0.278,0.847,-0.840,-1.038,-1.145
0.020,0.201,-0.284,0.848,-1.863,-0.870,-1.237
0.020,0.185,-0.278,0.858,-1.878,-1.527,-1.359
0.030,0.187,-0.282,0.856,-1.481,-1.084,-1.359
0.030,0.193,-0.271,0.858,-1.664,-0.595,-0.962
0.030,0.181,-0.280,0.833,-1.893,-0.947,-1.008
0.040,0.181,-0.270,0.845,-2.000,-0.473,-0.763
0.040,0.184,-0.272,0.836,-2.046,0.214,-0.504
0.040,0.175,-0.271,0.841,-2.565,-0.412,-0.611
0.050,0.185,-0.267,0.841,-2.947,-1.008,-0.626
0.050,0.189,-0.267,0.829,-3.237,-1.115,-0.885
0.060,0.188,-0.273,0.845,-3.832,-1.740,-0.916
0.060,0.191,-0.274,0.832,-4.214,-1.725,-1.115
0.060,0.194,-0.266,0.839,-4.641,-1.618,-1.115
0.070,0.202,-0.271,0.845,-4.611,-1.664,-1.466
0.070,0.190,-0.270,0.844,-4.931,-3.099,-1.603
0.080,0.194,-0.268,0.851,-5.130,-3.664,-1.496
0.080,0.193,-0.282,0.855,-5.206,-3.740,-1.710
0.090,0.201,-0.275,0.856,-4.672,-3.679,-1.924
0.090,0.194,-0.287,0.860,-4.733,-4.611,-1.954
0.090,0.199,-0.271,0.858,-4.931,-4.702,-1.878
0.100,0.198,-0.276,0.861,-4.687,-4.992,-2.168
0.100,0.193,-0.277,0.854,-4.855,-5.298,-2.214
0.110,0.196,-0.285,0.860,-5.130,-5.863,-2.473
0.110,0.205,-0.277,0.867,-4.962,-5.038,-2.901
0.110,0.203,-0.284,0.869,-4.321,-5.084,-2.794
0.120,0.208,-0.289,0.873,-3.695,-4.122,-2.885
0.120,0.202,-0.291,0.889,-2.489,-2.427,-2.733
0.130,0.198,-0.295,0.903,-1.603,-1.466,-2.702
0.130,0.197,-0.301,0.890,-0.397,-0.168,-2.061
0.130,0.188,-0.289,0.885,0.473,1.023,-1.756
0.140,0.177,-0.290,0.870,1.389,1.664,-1.420
0.140,0.176,-0.293,0.859,1.420,2.366,-1.145
0.150,0.175,-0.289,0.861,1.573,3.237,-0.977
0.150,0.170,-0.285,0.848,1.450,3.679,-0.534
0.150,0.165,-0.289,0.840,0.824,2.779,-0.244
0.160,0.178,-0.282,0.841,-0.046,2.305,-0.061
0.160,0.176,-0.282,0.842,-0.168,2.305,0.076
0.170,0.178,-0.278,0.847,-0.702,2.565,0.092
0.170,0.174,-0.279,0.847,-1.130,2.244,0.168
0.170,0.173,-0.280,0.845,-1.496,2.015,0.580
0.180,0.160,-0.279,0.844,-1.359,1.664,0.412
0.180,0.169,-0.278,0.852,-1.481,0.916,0.901
0.180,0.172,-0.277,0.846,-1.649,0.473,1.023
0.190,0.169,-0.282,0.852,-1.481,-0.092,0.992
0.190,0.176,-0.284,0.853,-1.969,-1.053,1.023
0.200,0.181,-0.283,0.862,-2.214,-1.450,0.779
0.200,0.188,-0.279,0.858,-1.893,-1.389,0.855
0.200,0.193,-0.281,0.866,-1.771,-1.160,0.840
0.210,0.186,-0.284,0.871,-1.863,-0.687,0.840
0.210,0.190,-0.288,0.859,-1.588,-0.305,0.824
0.220,0.191,-0.286,0.877,-1.237,0.473,0.763
0.220,0.187,-0.283,0.863,-0.809,0.779,1.023
0.220,0.190,-0.280,0.866,-0.565,0.550,1.145
0.230,0.193,-0.281,0.862,-0.626,0.626,1.206
0.230,0.189,-0.283,0.864,-0.336,0.855,1.405
0.240,0.190,-0.286,0.865,-0.382,0.977,1.466
0.240,0.186,-0.285,0.872,-0.458,0.779,1.359
0.240,0.194,-0.285,0.852,-0.351,0.763,1.359
0.250,0.191,-0.285,0.867,-0.427,0.244,1.130
0.250,0.193,-0.287,0.859,0.046,-0.504,0.870
0.260,0.190,-0.291,0.857,0.244,-0.824,0.473
0.260,0.189,-0.294,0.866,0.061,-1.786,0.260
0.260,0.183,-0.285,0.874,-0.076,-1.313,0.366
0.270,0.187,-0.281,0.868,0.382,-0.244,0.702
0.270,0.188,-0.284,0.860,0.534,0.534,0.977
0.280,0.187,-0.280,0.861,0.504,1.115,1.115
0.280,0.180,-0.276,0.854,0.855,2.153,1.496
0.280,0.189,-0.280,0.852,0.916,2.489,1.802
0.290,0.186,-0.282,0.853,0.809,3.206,1.863
0.290,0.190,-0.279,0.861,0.794,3.542,1.985
0.290,0.188,-0.277,0.851,0.779,3.298,1.878
0.300,0.182,-0.278,0.847,0.489,3.115,1.908
0.300,0.192,-0.273,0.843,0.443,3.252,1.618
0.310,0.191,-0.268,0.849,0.519,3.069,1.664
0.310,0.186,-0.273,0.844,0.198,2.107,1.481
0.310,0.187,-0.271,0.828,-0.092,1.450,1.206
0.320,0.191,-0.264,0.825,-0.580,0.473,0.855
0.320,0.192,-0.266,0.833,-1.023,-0.656,0.580
0.330,0.189,-0.269,0.833,-1.298,-2.351,0.427
0.330,0.188,-0.265,0.841,-1.832,-3.389,0.244
0.330,0.196,-0.270,0.835,-2.076,-3.282,0.122
0.340,0.198,-0.269,0.841,-1.985,-3.069,0.275
0.340,0.200,-0.274,0.833,-2.046,-3.603,0.183
0.350,0.197,-0.271,0.833,-2.519,-4.672,-0.198
0.350,0.201,-0.267,0.840,-2.977,-4.916,-0.290
0.350,0.207,-0.271,0.843,-3.145,-3.511,-0.534
0.360,0.215,-0.274,0.849,-2.718,-2.198,-0.641
0.360,0.208,-0.275,0.859,-2.977,-1.542,-0.351
0.370,0.207,-0.276,0.856,-2.672,-1.160,-0.427
0.370,0.213,-0.276,0.858,-2.397,-0.977,-0.595
0.370,0.215,-0.283,0.864,-2.198,-0.626,-0.565
0.380,0.207,-0.274,0.859,-1.847,-0.504,-0.779
0.380,0.206,-0.279,0.866,-1.603,-0.763,-0.855
0.390,0.211,-0.281,0.881,-1.344,-0.107,-0.809
0.390,0.204,-0.284,0.872,-0.687,0.641,-0.595
0.390,0.203,-0.283,0.868,-0.443,1.298,-0.412
0.400,0.204,-0.283,0.867,-0.229,1.740,-0.351
0.400,0.200,-0.286,0.863,0.137,2.427,-0.260
0.410,0.200,-0.279,0.866,0.458,2.824,-0.275
0.410,0.188,-0.277,0.851,0.504,3.527,-0.336
0.410,0.192,-0.280,0.844,0.397,3.817,-0.061
0.420,0.186,-0.272,0.842,0.168,3.863,-0.015
0.420,0.185,-0.274,0.833,-0.153,4.061,0.061
0.430,0.187,-0.276,0.835,-0.443,4.183,0.153
0.430,0.185,-0.274,0.848,-0.427,4.580,0.260
0.430,0.181,-0.273,0.841,-0.244,4.397,0.275
0.440,0.184,-0.275,0.841,-0.427,3.710,0.244
0.440,0.185,-0.280,0.846,-0.718,3.115,0.244
0.450,0.180,-0.276,0.851,-0.473,2.702,0.107
0.450,0.180,-0.274,0.836,-0.794,2.366,0.061
0.450,0.183,-0.279,0.843,-1.267,1.649,-0.183
0.460,0.174,-0.272,0.848,-1.008,1.069,0.000
0.460,0.182,-0.273,0.856,-1.282,0.656,0.015
0.460,0.188,-0.274,0.842,-1.267,0.977,-0.153
0.470,0.188,-0.274,0.850,-1.405,0.565,-0.366
0.470,0.187,-0.276,0.835,-2.015,-0.641,-0.748
0.480,0.182,-0.270,0.854,-2.473,-1.267,-0.840
0.480,0.183,-0.275,0.862,-2.473,-0.962,-0.794
0.480,0.185,-0.279,0.852,-2.382,-0.168,-0.458
0.490,0.182,-0.278,0.854,-2.656,0.153,-0.473
0.490,0.185,-0.281,0.850,-2.595,0.107,-0.382
0.500,0.187,-0.277,0.860,-2.397,-0.321,-0.443
0.500,0.186,-0.277,0.869,-2.290,-0.260,-0.504
0.510,0.190,-0.285,0.866,-1.954,-0.031,-0.550
0.510,0.184,-0.284,0.870,-1.664,-0.382,-0.290
0.510,0.185,-0.285,0.863,-1.450,-0.443,-0.443
0.520,0.183,-0.288,0.873,-1.176,-0.550,-0.519
0.520,0.181,-0.286,0.867,-1.053,-0.015,-0.260
0.530,0.189,-0.289,0.869,-0.687,0.595,-0.229
0.530,0.185,-0.286,0.859,-0.504,0.824,0.061
0.530,0.178,-0.283,0.857,-0.534,1.023,0.092
0.540,0.186,-0.282,0.851,-1.069,1.466,0.214
0.540,0.181,-0.271,0.858,-1.053,1.145,0.412
0.550,0.180,-0.275,0.852,-1.328,1.130,0.366
0.550,0.191,-0.271,0.854,-1.221,1.344,0.382
0.550,0.186,-0.275,0.852,-1.466,1.603,0.412
0.560,0.183,-0.284,0.850,-1.527,1.588,0.595
0.560,0.177,-0.275,0.853,-1.786,0.687,0.611
0.560,0.186,-0.275,0.853,-1.832,0.626,0.504
0.570,0.185,-0.275,0.858,-1.527,0.916,0.611
0.570,0.184,-0.279,0.858,-1.313,0.656,0.534
0.580,0.175,-0.277,0.856,-1.298,-0.183,0.321
0.580,0.175,-0.275,0.843,-1.069,-1.191,0.183
0.580,0.170,-0.273,0.854,-1.542,-2.550,0.046
0.590,0.183,-0.268,0.856,-1.481,-2.672,0.351
0.590,0.192,-0.270,0.871,-1.237,-2.412,0.061
0.600,0.195,-0.269,0.854,-1.221,-1.954,0.137
0.600,0.190,-0.271,0.849,-1.252,-1.878,0.107
0.600,0.186,-0.270,0.852,-1.069,-2.214,-0.229
0.610,0.190,-0.269,0.854,-0.916,-2.412,-0.321
0.610,0.198,-0.274,0.859,-0.855,-2.076,-0.366
0.620,0.199,-0.274,0.855,-0.916,-1.313,-0.473
0.620,0.195,-0.275,0.853,-0.870,-1.206,-0.687
0.620,0.188,-0.274,0.846,-1.252,-1.740,-0.733
0.630,0.187,-0.268,0.852,-1.496,-1.237,-0.824
0.630,0.187,-0.277,0.852,-1.359,-0.809,-0.580
0.640,0.176,-0.278,0.858,-1.435,-0.748,-0.427
0.640,0.177,-0.273,0.842,-1.084,-0.046,-0.290
0.650,0.173,-0.274,0.845,-1.038,0.168,-0.336
0.650,0.168,-0.272,0.836,-1.313,-0.244,-0.366
0.650,0.176,-0.275,0.851,-1.160,-0.443,-0.397
0.660,0.178,-0.271,0.863,-1.634,-0.427,-0.137
0.660,0.181,-0.277,0.851,-1.588,0.122,-0.153
0.670,0.177,-0.270,0.858,-1.725,-0.076,-0.031
0.670,0.175,-0.271,0.844,-1.863,-0.305,0.153
0.670,0.163,-0.271,0.843,-1.496,-1.023,0.229
0.680,0.171,-0.270,0.861,-2.015,-1.389,0.244
0.680,0.171,-0.278,0.863,-1.908,-1.557,0.489
0.690,0.175,-0.275,0.861,-1.863,-1.573,0.779
0.690,0.174,-0.275,0.864,-2.000,-2.000,0.733
0.690,0.179,-0.277,0.860,-1.939,-1.939,0.885
0.700,0.184,-0.282,0.858,-1.710,-1.664,0.794
0.700,0.191,-0.279,0.871,-1.450,-1.206,0.840
0.710,0.186,-0.277,0.876,-1.252,-1.206,0.916
0.710,0.179,-0.281,0.867,-0.565,-1.160,1.023
0.710,0.174,-0.280,0.868,-0.168,-1.206,1.176
0.720,0.174,-0.274,0.867,-0.168,-1.160,1.328
0.720,0.179,-0.282,0.855,0.137,-1.191,1.328
0.730,0.175,-0.283,0.859,-0.351,-0.962,1.435
0.730,0.169,-0.286,0.859,-0.076,-0.275,1.328
0.730,0.159,-0.281,0.870,0.061,0.000,1.725
0.740,0.154,-0.282,0.870,0.336,-0.092,1.756
0.740,0.133,-0.291,0.866,0.626,-0.427,2.260
0.740,0.128,-0.286,0.873,0.519,-0.809,2.809
0.750,0.134,-0.287,0.869,0.672,-0.672,3.389
0.750,0.136,-0.285,0.862,0.656,-0.046,3.557
0.760,0.124,-0.288,0.872,0.702,0.000,4.397
0.760,0.114,-0.292,0.865,0.550,-0.092,5.160
0.760,0.113,-0.289,0.882,0.519,-0.305,5.802
0.770,0.112,-0.284,0.880,0.809,-0.443,6.229
0.770,0.124,-0.287,0.881,0.977,-0.626,6.718
0.780,0.113,-0.289,0.888,1.344,-1.023,7.099
0.780,0.117,-0.291,0.893,1.740,-2.031,7.344
0.780,0.127,-0.294,0.896,2.427,-2.550,7.649
0.790,0.128,-0.288,0.890,2.885,-1.863,7.847
0.790,0.118,-0.288,0.893,3.252,-1.878,8.748
0.800,0.110,-0.292,0.881,3.832,-1.939,9.206
0.800,0.110,-0.291,0.888,4.321,-1.802,10.015
0.800,0.102,-0.292,0.889,4.840,-1.557,10.733
0.810,0.101,-0.290,0.885,5.160,-1.420,11.649
0.810,0.098,-0.292,0.887,5.176,-1.191,12.473
0.820,0.093,-0.294,0.891,5.084,-1.267,13.023
0.820,0.094,-0.289,0.882,5.481,-0.779,13.649
0.820,0.088,-0.298,0.893,5.695,-1.618,14.107
0.830,0.093,-0.294,0.893,5.679,-2.244,14.595
0.830,0.079,-0.298,0.892,6.214,-1.679,15.282
0.840,0.067,-0.304,0.898,6.458,-1.084,16.565
0.840,0.059,-0.307,0.890,7.099,-0.824,17.481
0.840,0.042,-0.309,0.897,7.603,-1.374,18.870
0.850,0.024,-0.306,0.887,7.756,-2.061,20.092
0.850,0.021,-0.314,0.886,7.908,-2.656,21.099
0.860,0.008,-0.309,0.902,7.863,-3.908,22.000
0.860,0.004,-0.319,0.905,8.092,-4.397,23.252
0.860,-0.010,-0.321,0.904,8.443,-5.450,24.779
0.870,-0.017,-0.317,0.899,8.611,-6.198,26.107
0.870,-0.032,-0.320,0.904,8.794,-6.718,28.137
0.880,-0.039,-0.330,0.906,9.282,-6.840,30.489
0.880,-0.051,-0.329,0.923,10.412,-7.725,32.534
0.880,-0.074,-0.330,0.925,11.099,-8.733,35.145
0.890,-0.075,-0.339,0.927,11.954,-8.977,37.771
0.890,-0.084,-0.337,0.933,12.763,-9.649,40.504
0.900,-0.093,-0.340,0.943,14.229,-10.550,43.557
0.900,-0.103,-0.336,0.934,14.947,-11.740,46.473
0.900,-0.114,-0.335,0.944,15.405,-12.687,50.122
0.910,-0.107,-0.340,0.944,16.275,-13.282,52.977
0.910,-0.101,-0.337,0.946,16.779,-13.893,55.542
0.920,-0.090,-0.346,0.956,17.191,-14.137,57.634
0.920,-0.091,-0.337,0.946,18.290,-15.466,59.466
0.930,-0.083,-0.344,0.955,19.130,-17.435,60.748
0.930,-0.080,-0.353,0.955,20.092,-18.809,62.092
0.930,-0.095,-0.352,0.964,21.466,-20.550,63.420
0.940,-0.106,-0.359,0.968,22.885,-23.282,65.252
0.940,-0.123,-0.351,0.970,24.015,-25.954,67.359
0.950,-0.122,-0.349,0.964,25.176,-27.496,69.206
0.950,-0.115,-0.357,0.963,26.244,-28.122,71.802
0.960,-0.112,-0.353,0.949,27.481,-28.244,73.924
0.960,-0.100,-0.354,0.954,28.214,-27.832,75.939
0.960,-0.092,-0.344,0.944,28.840,-26.748,77.557
0.970,-0.084,-0.350,0.941,29.603,-25.969,78.702
0.970,-0.078,-0.348,0.944,30.000,-24.443,79.985
0.980,-0.078,-0.347,0.943,30.534,-23.252,81.359
0.980,-0.086,-0.344,0.942,30.779,-22.534,83.115
0.990,-0.095,-0.342,0.950,31.374,-22.519,84.824
0.990,-0.099,-0.340,0.933,32.000,-22.427,86.840
0.990,-0.100,-0.340,0.931,32.489,-22.427,89.038
1.000,-0.115,-0.344,0.931,33.634,-22.794,91.282
1.000,-0.130,-0.350,0.932,34.427,-24.443,93.695
1.010,-0.134,-0.346,0.927,35.160,-26.519,96.107
1.010,-0.132,-0.348,0.905,35.786,-28.366,98.031
1.020,-0.136,-0.354,0.902,36.275,-29.863,100.153
1.020,-0.134,-0.347,0.896,36.519,-32.046,102.168
1.020,-0.130,-0.354,0.884,36.534,-34.870,104.092
1.030,-0.114,-0.350,0.888,36.565,-36.626,105.588
1.030,-0.115,-0.354,0.886,36.580,-37.481,107.313
1.040,-0.118,-0.346,0.881,36.580,-38.214,109.466
1.040,-0.110,-0.353,0.880,36.214,-39.160,111.282
1.050,-0.118,-0.358,0.881,35.969,-39.573,113.099
1.050,-0.120,-0.362,0.893,35.603,-40.321,115.496
1.050,-0.128,-0.369,0.885,35.603,-40.763,117.542
1.060,-0.123,-0.373,0.893,35.863,-40.504,119.603
1.060,-0.119,-0.376,0.897,35.969,-40.229,121.603
1.070,-0.116,-0.377,0.906,36.748,-39.282,123.267
1.070,-0.103,-0.374,0.881,37.176,-38.015,125.237
1.080,-0.103,-0.380,0.890,37.725,-36.168,126.901
1.080,-0.101,-0.385,0.894,38.550,-34.733,128.656
1.080,-0.093,-0.388,0.880,39.115,-33.542,130.198
1.090,-0.091,-0.387,0.881,39.756,-33.069,131.573
1.090,-0.102,-0.394,0.866,40.824,-33.649,133.206
1.100,-0.104,-0.395,0.871,41.756,-35.527,134.962
1.100,-0.104,-0.391,0.855,42.290,-37.527,136.504
1.110,-0.109,-0.391,0.844,42.824,-40.397,138.092
1.110,-0.107,-0.390,0.844,43.237,-44.275,139.786
1.120,-0.091,-0.387,0.834,43.389,-48.137,141.435
1.120,-0.070,-0.391,0.834,43.466,-52.153,142.733
1.120,-0.053,-0.380,0.822,42.885,-54.733,144.061
1.130,-0.035,-0.388,0.833,42.840,-56.046,145.359
1.130,-0.012,-0.386,0.821,42.427,-57.145,146.672
1.140,0.000,-0.388,0.825,42.550,-57.298,147.863
1.140,0.017,-0.381,0.809,42.061,-56.916,149.053
1.150,0.033,-0.389,0.821,41.496,-56.397,149.924
1.150,0.041,-0.391,0.815,41.389,-55.481,150.855
1.150,0.061,-0.388,0.794,41.038,-54.137,151.786
1.160,0.063,-0.391,0.794,40.901,-52.840,152.809
1.160,0.076,-0.390,0.795,41.023,-51.969,153.817
1.170,0.087,-0.392,0.789,40.763,-51.481,154.977
1.170,0.108,-0.388,0.766,40.336,-50.305,155.924
1.180,0.120,-0.387,0.755,39.710,-49.466,156.550
1.180,0.135,-0.375,0.746,38.626,-48.198,157.115
1.180,0.155,-0.385,0.743,37.679,-47.145,157.557
1.190,0.167,-0.386,0.753,37.252,-46.931,157.786
1.190,0.184,-0.391,0.753,36.855,-46.672,157.924
1.200,0.188,-0.393,0.758,36.351,-46.489,158.092
1.200,0.190,-0.401,0.750,36.122,-46.580,158.397
1.210,0.186,-0.408,0.757,36.031,-46.595,158.962
1.210,0.197,-0.410,0.762,36.427,-46.626,159.786
1.210,0.200,-0.414,0.758,36.397,-46.427,160.534
1.220,0.214,-0.417,0.758,36.107,-46.366,160.885
1.220,0.228,-0.425,0.752,35.679,-45.160,160.916
1.230,0.228,-0.438,0.764,36.214,-43.756,161.145
1.230,0.230,-0.443,0.780,36.947,-42.656,161.389
1.230,0.212,-0.451,0.790,38.229,-42.427,162.198
1.240,0.202,-0.455,0.806,39.878,-42.321,163.496
1.240,0.210,-0.458,0.810,41.282,-42.885,164.534
1.250,0.214,-0.459,0.808,42.885,-42.901,165.573
1.250,0.228,-0.458,0.802,43.725,-43.115,166.489
1.260,0.244,-0.458,0.796,44.626,-43.908,167.176
1.260,0.279,-0.449,0.784,45.664,-41.389,167.435
1.260,0.293,-0.442,0.771,45.664,-39.450,167.847
1.270,0.295,-0.440,0.766,45.634,-39.359,167.969
1.270,0.314,-0.442,0.749,44.794,-38.702,167.466
1.280,0.341,-0.436,0.744,43.725,-36.672,166.840
1.280,0.350,-0.440,0.738,42.870,-34.214,166.168
1.290,0.356,-0.434,0.735,41.832,-32.244,165.405
1.290,0.363,-0.439,0.740,40.992,-30.290,164.351
1.290,0.365,-0.435,0.753,40.672,-28.107,163.603
1.300,0.359,-0.439,0.749,40.000,-25.130,163.115
1.300,0.346,-0.441,0.758,39.725,-23.664,162.824
1.310,0.328,-0.448,0.776,40.305,-22.916,162.962
1.310,0.317,-0.453,0.774,41.115,-21.191,163.359
1.320,0.317,-0.458,0.777,41.511,-19.634,164.000
1.320,0.312,-0.450,0.777,41.725,-19.450,164.748
1.320,0.303,-0.455,0.777,42.443,-19.878,165.634
1.330,0.306,-0.455,0.761,42.748,-20.427,166.702
1.330,0.300,-0.457,0.765,42.794,-21.145,167.786
1.340,0.294,-0.457,0.775,43.176,-23.115,168.519
1.340,0.315,-0.455,0.776,43.542,-25.084,168.855
1.350,0.317,-0.448,0.761,43.969,-26.702,169.221
1.350,0.338,-0.458,0.759,43.893,-29.160,169.328
1.350,0.363,-0.447,0.751,43.481,-31.481,168.931
1.360,0.376,-0.448,0.742,43.282,-32.779,168.061
1.360,0.383,-0.450,0.748,43.466,-34.076,166.809
1.370,0.390,-0.447,0.735,43.481,-35.603,165.466
1.370,0.394,-0.448,0.724,42.840,-37.542,164.412
1.380,0.392,-0.453,0.711,42.076,-38.718,163.496
1.380,0.389,-0.453,0.721,42.153,-39.664,162.702
1.380,0.386,-0.443,0.712,41.771,-41.282,162.000
1.390,0.386,-0.447,0.683,40.840,-43.313,161.313
1.390,0.394,-0.441,0.673,39.618,-44.855,160.931
1.400,0.391,-0.440,0.688,38.702,-47.023,160.992
1.400,0.382,-0.445,0.705,38.244,-48.611,161.710
1.400,0.391,-0.447,0.709,38.229,-49.145,162.565
1.410,0.416,-0.448,0.700,38.244,-48.153,163.649
1.410,0.448,-0.434,0.706,38.229,-45.954,164.366
1.420,0.470,-0.429,0.698,38.412,-42.855,164.748
1.420,0.502,-0.429,0.693,38.534,-39.344,164.580
1.430,0.518,-0.426,0.693,37.985,-36.244,163.435
1.430,0.537,-0.421,0.688,37.206,-32.794,161.908
1.430,0.545,-0.409,0.669,36.046,-28.198,160.427
1.440,0.560,-0.406,0.669,35.115,-23.435,159.267
1.440,0.559,-0.400,0.663,33.588,-20.473,158.244
1.450,0.566,-0.403,0.648,31.542,-18.763,156.855
1.450,0.578,-0.396,0.665,29.679,-15.466,155.420
1.460,0.583,-0.395,0.649,28.076,-12.244,153.847
1.460,0.568,-0.389,0.646,26.214,-10.107,152.687
1.460,0.566,-0.392,0.642,24.809,-8.733,151.725
1.470,0.568,-0.382,0.634,23.115,-7.771,150.458
1.470,0.564,-0.387,0.632,21.160,-6.885,149.191
1.480,0.555,-0.388,0.643,19.405,-6.840,148.168
1.480,0.523,-0.406,0.673,19.008,-8.458,147.374
1.490,0.490,-0.412,0.691,19.282,-11.023,147.466
1.490,0.477,-0.415,0.717,20.137,-12.885,148.366
1.490,0.465,-0.415,0.722,20.809,-14.214,149.328
1.500,0.461,-0.415,0.716,21.084,-14.992,151.359
1.500,0.450,-0.411,0.716,21.344,-15.130,153.298
1.510,0.459,-0.403,0.701,20.840,-15.282,155.069
1.510,0.472,-0.399,0.697,19.710,-15.466,155.954
1.520,0.484,-0.389,0.698,18.504,-15.450,156.397
1.520,0.504,-0.372,0.709,17.481,-16.565,155.664
1.520,0.533,-0.377,0.733,16.763,-17.603,153.893
1.530,0.575,-0.371,0.752,16.916,-17.450,151.389
1.530,0.602,-0.366,0.774,17.695,-16.962,148.168
1.540,0.597,-0.368,0.782,18.885,-18.763,144.519
1.540,0.621,-0.356,0.773,18.595,-18.656,139.985
1.540,0.649,-0.339,0.745,16.565,-15.298,134.763
1.550,0.662,-0.339,0.743,14.382,-11.969,130.031
1.550,0.627,-0.338,0.755,14.046,-12.260,124.733
1.560,0.603,-0.326,0.753,12.702,-15.267,120.534
1.560,0.575,-0.339,0.760,12.137,-20.153,116.351
1.570,0.543,-0.345,0.790,13.099,-24.397,112.931
1.570,0.511,-0.355,0.844,15.405,-28.336,111.221
1.570,0.469,-0.365,0.887,19.206,-35.924,110.550
1.580,0.484,-0.370,0.876,22.718,-40.687,109.252
1.580,0.521,-0.364,0.835,24.626,-43.405,107.557
1.590,0.583,-0.355,0.840,25.588,-41.756,105.099
1.590,0.616,-0.344,0.865,26.702,-41.344,100.794
1.600,0.643,-0.330,0.858,28.824,-41.511,96.656
1.600,0.647,-0.358,0.904,31.435,-49.191,88.290
1.600,0.682,-0.303,0.971,34.885,-53.771,88.550
1.610,0.743,-0.328,0.914,37.710,-49.145,83.985
1.610,0.770,-0.350,0.832,37.527,-38.916,78.015
1.620,0.769,-0.314,0.828,35.038,-35.038,73.282
1.620,0.775,-0.304,0.833,32.809,-31.145,68.794
1.630,0.792,-0.321,0.848,31.511,-25.802,63.893
1.630,0.803,-0.307,0.878,30.931,-18.656,59.420
1.630,0.781,-0.306,0.878,30.901,-14.489,55.511
1.640,0.764,-0.317,0.886,30.473,-11.252,51.634
1.640,0.779,-0.306,0.879,30.321,-3.924,48.656
1.650,0.787,-0.305,0.866,29.344,0.000,44.489
1.650,0.754,-0.310,0.863,27.099,-4.427,40.183
1.650,0.729,-0.289,0.864,24.031,-8.855,36.015
1.660,0.734,-0.287,0.856,22.092,-8.031,32.061
1.660,0.719,-0.295,0.869,20.962,-4.840,29.221
1.670,0.672,-0.303,0.872,19.847,-4.244,26.901
1.670,0.631,-0.290,0.883,20.137,-6.183,25.252
1.670,0.620,-0.290,0.870,20.031,-6.168,23.664
1.680,0.621,-0.273,0.854,19.786,-5.191,21.908
1.680,0.617,-0.263,0.827,19.221,-3.771,19.542
1.690,0.614,-0.257,0.814,18.076,-2.534,17.252
1.690,0.600,-0.248,0.809,17.130,-0.916,15.160
1.690,0.570,-0.242,0.804,16.595,-0.046,12.901
1.700,0.552,-0.227,0.778,15.374,1.084,10.885
1.700,0.528,-0.225,0.752,13.237,1.130,9.221
1.710,0.503,-0.215,0.736,10.412,1.313,7.557
1.710,0.474,-0.202,0.722,7.588,1.069,6.550
1.710,0.457,-0.209,0.733,5.878,0.397,5.130
1.720,0.432,-0.210,0.753,5.099,-0.305,3.817
1.720,0.413,-0.211,0.741,4.137,-1.481,2.382
1.730,0.396,-0.206,0.741,2.611,-2.229,0.672
1.730,0.362,-0.210,0.763,0.947,-2.504,0.031
1.730,0.307,-0.203,0.778,0.427,-2.672,0.092
1.740,0.264,-0.211,0.795,0.183,-2.244,1.069
1.740,0.255,-0.203,0.810,0.427,-1.328,1.664
1.750,0.253,-0.192,0.803,0.183,0.580,2.214
1.750,0.255,-0.181,0.804,-0.473,2.443,2.229
1.750,0.252,-0.173,0.801,-1.374,4.489,2.107
1.760,0.231,-0.172,0.819,-1.771,5.954,2.229
1.760,0.221,-0.165,0.811,-2.076,8.214,2.656
1.760,0.209,-0.147,0.801,-2.733,10.214,3.466
1.770,0.221,-0.154,0.799,-3.817,11.832,4.229
1.770,0.230,-0.154,0.799,-5.237,12.794,4.351
1.780,0.222,-0.142,0.803,-5.939,12.931,4.565
1.780,0.230,-0.150,0.813,-6.702,12.519,4.427
1.780,0.229,-0.152,0.812,-7.267,12.473,5.008
1.790,0.224,-0.156,0.823,-8.260,12.458,5.954
1.790,0.216,-0.166,0.829,-7.924,11.710,7.130
1.800,0.212,-0.167,0.843,-7.374,10.473,8.366
1.800,0.223,-0.172,0.853,-6.427,9.053,9.130
1.800,0.252,-0.177,0.855,-5.664,9.435,9.389
1.810,0.279,-0.167,0.851,-4.779,10.260,9.053
1.810,0.287,-0.168,0.854,-4.168,10.198,8.672
1.820,0.292,-0.163,0.833,-4.229,10.534,8.870
1.820,0.303,-0.162,0.840,-4.015,10.229,8.473
1.820,0.331,-0.159,0.839,-3.710,10.840,7.985
1.830,0.358,-0.157,0.832,-3.573,11.099,6.458
1.830,0.374,-0.152,0.828,-3.695,12.198,5.496
1.840,0.381,-0.143,0.815,-4.076,13.603,4.794
1.840,0.382,-0.159,0.810,-4.183,15.542,3.832
1.840,0.383,-0.162,0.811,-4.458,16.229,3.008
1.850,0.389,-0.168,0.803,-4.794,17.344,2.550
1.850,0.397,-0.177,0.800,-5.084,17.618,1.786
1.860,0.403,-0.174,0.801,-5.221,18.107,0.672
1.860,0.418,-0.179,0.798,-5.817,18.611,-0.397
1.860,0.432,-0.187,0.793,-6.504,20.595,-1.405
1.870,0.430,-0.179,0.784,-7.618,21.176,-2.214
1.870,0.436,-0.182,0.799,-8.840,22.290,-3.023
1.880,0.438,-0.195,0.810,-9.557,23.786,-3.847
1.880,0.445,-0.205,0.818,-10.168,23.847,-4.931
1.890,0.458,-0.209,0.819,-10.366,23.481,-6.382
1.890,0.455,-0.219,0.812,-10.305,21.893,-8.046
1.890,0.464,-0.216,0.799,-11.679,19.099,-9.817
1.900,0.483,-0.232,0.821,-12.504,16.611,-12.168
1.900,0.504,-0.237,0.838,-11.878,15.145,-14.076
1.910,0.497,-0.260,0.840,-11.435,11.679,-15.802
1.910,0.508,-0.271,0.849,-10.855,8.473,-16.305
1.910,0.533,-0.285,0.847,-9.802,8.672,-18.015
1.920,0.560,-0.284,0.854,-8.885,9.649,-19.344
1.920,0.580,-0.293,0.859,-7.542,9.679,-21.237
1.930,0.612,-0.295,0.853,-6.809,9.069,-23.832
1.930,0.647,-0.295,0.833,-6.687,10.031,-27.557
1.940,0.677,-0.294,0.784,-7.053,10.763,-31.481
1.940,0.690,-0.293,0.772,-8.015,11.634,-35.481
1.940,0.688,-0.297,0.760,-9.588,11.832,-38.992
1.950,0.693,-0.303,0.734,-10.977,11.405,-42.351
1.950,0.709,-0.304,0.726,-13.527,12.260,-45.634
1.960,0.721,-0.316,0.715,-15.817,12.794,-49.221
1.960,0.724,-0.318,0.703,-18.137,11.466,-53.130
1.960,0.730,-0.328,0.684,-20.962,8.656,-57.221
1.970,0.742,-0.324,0.673,-24.565,6.550,-61.603
1.970,0.759,-0.327,0.661,-28.076,5.542,-65.481
1.980,0.765,-0.336,0.666,-30.824,3.649,-69.405
1.980,0.784,-0.348,0.651,-34.061,2.214,-73.435
1.990,0.810,-0.351,0.646,-37.191,2.260,-77.405
1.990,0.839,-0.353,0.635,-39.863,2.473,-82.534
1.990,0.876,-0.367,0.648,-41.527,2.626,-87.969
2.000,0.897,-0.379,0.673,-42.137,3.221,-94.000
2.000,0.910,-0.398,0.679,-42.565,5.344,-99.695
2.010,0.903,-0.409,0.681,-43.481,6.595,-105.405
2.010,0.897,-0.420,0.668,-44.092,7.023,-111.344
2.010,0.894,-0.432,0.677,-44.855,7.115,-116.794
2.020,0.881,-0.433,0.667,-45.893,6.870,-122.168
2.020,0.868,-0.445,0.675,-47.450,6.992,-126.763
2.030,0.857,-0.465,0.662,-48.870,7.847,-131.679
2.030,0.846,-0.476,0.679,-50.275,8.336,-136.412
2.040,0.850,-0.485,0.684,-52.214,7.191,-141.359
2.040,0.840,-0.485,0.689,-54.458,7.221,-146.260
2.040,0.840,-0.496,0.696,-56.641,8.855,-150.962
2.050,0.841,-0.491,0.701,-58.595,10.962,-155.939
2.050,0.846,-0.501,0.698,-60.840,13.344,-161.908
2.060,0.853,-0.502,0.690,-62.977,16.840,-168.504
2.060,0.853,-0.504,0.669,-65.313,20.382,-175.099
2.070,0.832,-0.503,0.675,-67.832,23.542,-181.466
2.070,0.823,-0.497,0.656,-71.359,27.221,-187.863
2.070,0.816,-0.495,0.636,-74.824,31.542,-194.351
2.080,0.793,-0.501,0.642,-77.649,34.412,-200.153
2.080,0.741,-0.513,0.654,-78.687,34.092,-205.298
2.090,0.699,-0.532,0.672,-79.527,32.809,-210.656
2.090,0.647,-0.545,0.672,-81.252,32.382,-214.275
2.100,0.565,-0.574,0.719,-81.344,31.573,-215.603
2.100,0.492,-0.584,0.772,-79.863,30.168,-215.176
2.110,0.428,-0.614,0.815,-76.321,28.855,-213.374
2.110,0.387,-0.629,0.869,-71.069,25.908,-211.145
2.110,0.365,-0.630,0.892,-65.908,22.122,-208.489
2.120,0.376,-0.625,0.908,-61.557,20.137,-206.489
2.120,0.405,-0.616,0.926,-56.855,19.374,-205.389
2.130,0.413,-0.615,0.928,-51.908,19.588,-204.824
2.130,0.427,-0.604,0.910,-47.695,21.878,-204.931
2.140,0.448,-0.592,0.875,-45.160,26.489,-205.191
2.140,0.469,-0.571,0.843,-43.863,34.794,-206.153
2.140,0.472,-0.561,0.820,-43.374,44.656,-207.206
2.150,0.464,-0.541,0.783,-43.557,55.252,-208.351
2.150,0.458,-0.548,0.773,-43.496,65.939,-209.817
2.160,0.434,-0.542,0.749,-43.786,78.290,-211.786
2.160,0.399,-0.530,0.714,-45.191,89.573,-213.389
2.170,0.356,-0.526,0.670,-47.466,99.771,-215.573
2.170,0.363,-0.502,0.686,-46.076,118.580,-216.611
2.170,0.393,-0.542,0.715,-41.115,139.908,-218.824
2.180,0.201,-0.529,0.686,-43.099,133.603,-219.954
2.180,0.143,-0.516,0.665,-46.076,124.412,-220.244
2.190,0.156,-0.506,0.686,-48.382,119.771,-218.504
2.190,0.112,-0.504,0.796,-45.099,108.092,-217.298
2.200,0.097,-0.546,0.755,-44.489,99.099,-217.237
2.200,0.094,-0.505,0.748,-47.099,93.817,-214.534
2.210,0.083,-0.522,0.766,-47.557,85.710,-212.366
2.210,0.083,-0.527,0.786,-46.015,73.786,-209.389
2.210,0.056,-0.512,0.809,-44.489,59.160,-206.534
2.220,0.058,-0.514,0.802,-43.160,44.885,-203.679
2.220,0.065,-0.497,0.776,-43.298,30.260,-201.191
2.230,0.108,-0.488,0.766,-44.656,17.328,-199.664
2.230,0.139,-0.472,0.742,-46.870,6.779,-198.046
2.240,0.171,-0.468,0.739,-48.931,-2.763,-196.351
2.240,0.208,-0.461,0.729,-51.328,-7.924,-195.359
2.240,0.258,-0.467,0.725,-53.618,-6.763,-194.779
2.250,0.299,-0.466,0.692,-56.000,-3.008,-194.840
2.250,0.311,-0.468,0.689,-59.756,1.115,-195.145
2.260,0.318,-0.479,0.682,-62.824,6.412,-195.374
2.260,0.318,-0.491,0.698,-65.496,13.817,-194.870
2.270,0.299,-0.502,0.708,-67.664,22.748,-193.527
2.270,0.267,-0.522,0.728,-69.237,32.366,-191.176
2.270,0.243,-0.542,0.759,-69.710,39.206,-188.611
2.280,0.230,-0.564,0.832,-66.580,41.527,-186.687
2.280,0.208,-0.583,0.884,-61.969,42.855,-185.023
2.290,0.192,-0.583,0.895,-58.168,46.534,-182.962
2.290,0.173,-0.594,0.891,-54.931,50.641,-180.565
2.300,0.151,-0.593,0.889,-51.084,52.992,-178.153
2.300,0.134,-0.589,0.890,-47.084,52.718,-175.649
2.310,0.104,-0.586,0.880,-43.099,50.565,-173.023
2.310,0.083,-0.574,0.879,-39.679,47.328,-170.656
2.310,0.072,-0.559,0.834,-36.733,42.977,-168.031
2.320,0.063,-0.550,0.827,-35.145,36.687,-165.893
2.320,0.055,-0.530,0.805,-34.519,29.359,-163.557
2.330,0.069,-0.523,0.780,-35.053,22.275,-161.450
2.330,0.077,-0.510,0.764,-36.046,15.115,-159.649
2.340,0.093,-0.491,0.743,-38.229,9.542,-157.893
2.340,0.114,-0.480,0.727,-41.344,6.840,-156.015
2.340,0.144,-0.476,0.706,-45.237,7.710,-154.519
2.350,0.187,-0.471,0.700,-50.122,12.031,-153.557
2.350,0.229,-0.477,0.716,-54.382,19.695,-153.786
2.360,0.256,-0.493,0.725,-58.168,29.985,-154.412
2.360,0.261,-0.497,0.738,-60.916,39.405,-154.702
2.370,0.238,-0.517,0.785,-61.099,47.053,-155.053
2.370,0.211,-0.535,0.820,-59.374,53.405,-155.420
2.370,0.191,-0.543,0.836,-57.359,60.183,-154.947
2.380,0.137,-0.557,0.850,-54.977,65.496,-153.481
2.380,0.087,-0.559,0.881,-51.664,67.557,-150.885
2.390,0.037,-0.577,0.916,-47.221,67.038,-147.771
2.390,-0.020,-0.581,0.940,-41.542,65.679,-143.603
2.400,-0.066,-0.577,0.935,-35.496,62.687,-138.397
2.400,-0.094,-0.570,0.918,-30.473,57.405,-133.450
2.400,-0.090,-0.555,0.902,-25.893,50.473,-129.435
2.410,-0.070,-0.541,0.894,-22.046,43.527,-126.427
2.410,-0.043,-0.523,0.880,-18.931,37.496,-124.382
2.420,-0.014,-0.506,0.863,-17.664,32.107,-123.069
2.420,0.013,-0.496,0.824,-17.282,28.733,-122.198
2.430,0.028,-0.476,0.797,-17.939,27.176,-121.496
2.430,0.028,-0.458,0.790,-19.588,26.702,-120.489
2.440,0.030,-0.458,0.767,-20.947,27.527,-119.481
2.440,0.016,-0.446,0.761,-22.885,29.908,-118.275
2.440,0.004,-0.438,0.734,-25.756,32.824,-116.473
2.450,-0.012,-0.438,0.714,-28.733,36.015,-114.305
2.450,-0.030,-0.432,0.710,-31.588,38.947,-111.802
2.460,-0.039,-0.426,0.717,-34.336,41.450,-109.282
2.460,-0.037,-0.418,0.713,-37.115,42.931,-106.702
2.470,-0.032,-0.415,0.719,-39.374,43.664,-104.962
2.470,-0.028,-0.412,0.728,-41.038,42.458,-103.740
2.480,-0.012,-0.415,0.759,-41.420,40.183,-103.481
2.480,-0.008,-0.413,0.764,-41.267,36.718,-103.450
2.480,-0.005,-0.398,0.770,-41.725,32.137,-103.160
2.490,-0.014,-0.408,0.784,-42.076,27.710,-102.733
2.490,-0.025,-0.406,0.814,-41.359,22.809,-101.969
2.500,-0.043,-0.417,0.845,-39.573,16.779,-100.366
2.500,-0.052,-0.416,0.878,-37.023,12.809,-97.924
2.510,-0.054,-0.409,0.884,-34.611,12.366,-94.687
2.510,-0.062,-0.415,0.892,-32.870,12.672,-90.427
2.510,-0.062,-0.407,0.895,-31.344,14.244,-86.687
2.520,-0.047,-0.399,0.903,-29.664,18.947,-82.550
2.520,-0.042,-0.393,0.892,-28.519,24.809,-78.336
2.530,-0.035,-0.386,0.884,-27.924,30.458,-74.427
2.530,-0.036,-0.379,0.862,-28.183,35.176,-70.840
2.540,-0.024,-0.373,0.867,-28.733,39.313,-67.710
2.540,-0.012,-0.365,0.859,-29.206,43.695,-64.901
2.550,-0.000,-0.356,0.868,-29.908,46.519,-62.748
2.550,-0.001,-0.365,0.861,-30.321,48.046,-60.931
2.550,-0.002,-0.361,0.865,-30.580,47.710,-59.405
2.560,0.003,-0.356,0.865,-30.840,46.412,-58.336
2.560,-0.001,-0.350,0.891,-30.748,43.542,-57.389
2.570,0.007,-0.352,0.888,-30.061,39.664,-56.229
2.570,0.011,-0.344,0.904,-29.099,34.382,-55.603
2.580,0.025,-0.356,0.912,-27.649,30.000,-55.344
2.580,0.045,-0.353,0.929,-26.183,25.786,-55.496
2.580,0.057,-0.353,0.921,-24.107,22.763,-55.878
2.590,0.062,-0.347,0.930,-22.336,19.802,-56.092
2.590,0.077,-0.337,0.928,-20.855,17.191,-56.168
2.600,0.084,-0.336,0.924,-19.924,15.053,-56.427
2.600,0.111,-0.325,0.906,-19.115,14.397,-57.084
2.610,0.120,-0.321,0.917,-18.611,13.954,-57.740
2.610,0.129,-0.325,0.931,-17.756,13.725,-58.275
2.610,0.143,-0.319,0.920,-16.198,14.763,-58.397
2.620,0.143,-0.310,0.919,-15.496,17.053,-58.336
2.620,0.148,-0.313,0.912,-15.038,20.473,-57.863
2.630,0.140,-0.303,0.901,-14.366,24.489,-57.176
2.630,0.124,-0.298,0.875,-13.649,28.260,-55.924
2.630,0.106,-0.292,0.865,-13.557,32.244,-54.031
2.640,0.079,-0.296,0.831,-14.458,35.252,-52.000
2.640,0.083,-0.289,0.822,-15.679,39.099,-49.420
2.650,0.059,-0.283,0.815,-17.221,41.374,-46.626
2.650,0.048,-0.291,0.817,-18.489,42.458,-44.244
2.660,0.032,-0.288,0.821,-19.481,43.008,-41.389
2.660,0.017,-0.292,0.825,-20.779,42.565,-38.824
2.660,0.014,-0.295,0.837,-21.435,41.115,-36.489
2.670,0.010,-0.301,0.841,-22.092,38.901,-34.427
2.670,0.019,-0.305,0.863,-22.183,35.939,-32.458
2.680,0.030,-0.313,0.879,-21.023,32.885,-31.374
2.680,0.044,-0.319,0.902,-19.145,29.771,-31.069
2.690,0.042,-0.315,0.901,-17.863,26.183,-30.672
2.690,0.041,-0.321,0.896,-16.916,22.366,-30.092
2.690,0.054,-0.323,0.906,-16.305,19.221,-29.985
2.700,0.055,-0.330,0.913,-15.160,16.229,-29.924
2.700,0.050,-0.333,0.921,-13.649,12.702,-29.374
2.710,0.029,-0.331,0.931,-12.290,9.160,-28.458
2.710,0.014,-0.333,0.916,-12.015,7.115,-27.450
2.720,0.014,-0.337,0.925,-11.832,5.603,-25.954
2.720,0.015,-0.337,0.932,-11.496,4.733,-24.534
2.720,0.025,-0.343,0.940,-10.840,3.908,-22.824
2.730,0.033,-0.345,0.938,-10.000,4.611,-21.237
2.730,0.037,-0.344,0.951,-8.641,5.802,-19.863
2.740,0.045,-0.346,0.951,-7.298,7.374,-18.427
2.740,0.046,-0.346,0.949,-6.183,8.626,-17.069
2.740,0.045,-0.344,0.949,-4.840,9.466,-15.588
2.750,0.040,-0.342,0.939,-3.740,9.924,-14.229
2.750,0.043,-0.337,0.944,-2.458,10.336,-13.191
2.760,0.042,-0.335,0.927,-1.802,9.954,-11.649
2.760,0.042,-0.334,0.927,-1.099,9.679,-10.443
2.760,0.053,-0.334,0.924,0.107,9.527,-9.115
2.770,0.047,-0.340,0.946,1.115,9.328,-7.725
2.770,0.045,-0.334,0.941,2.321,7.878,-6.809
2.780,0.050,-0.335,0.933,3.420,6.916,-5.695
2.780,0.063,-0.334,0.940,4.015,5.786,-4.977
2.780,0.072,-0.323,0.937,4.794,4.641,-4.244
2.790,0.083,-0.332,0.934,5.634,3.053,-4.092
2.790,0.081,-0.328,0.932,6.595,1.405,-3.557
2.800,0.091,-0.324,0.927,7.130,0.275,-3.099
2.800,0.090,-0.325,0.916,7.298,0.015,-2.763
2.800,0.103,-0.321,0.913,7.450,-0.565,-2.061
2.810,0.109,-0.314,0.918,6.947,-1.359,-1.618
2.810,0.117,-0.310,0.910,7.221,-1.267,-1.206
2.820,0.128,-0.302,0.897,6.962,-0.107,-0.641
2.820,0.133,-0.307,0.903,6.977,1.252,-0.305
2.820,0.141,-0.302,0.896,6.824,2.046,0.061
2.830,0.141,-0.300,0.889,6.626,2.718,0.214
2.830,0.143,-0.298,0.899,6.656,3.145,0.702
2.840,0.127,-0.304,0.888,7.466,2.947,1.267
2.840,0.125,-0.296,0.883,7.542,2.443,2.122
2.840,0.126,-0.299,0.881,7.374,1.053,2.931
2.850,0.140,-0.295,0.893,7.282,0.534,3.084
2.850,0.149,-0.298,0.893,7.603,-0.107,3.008
2.850,0.159,-0.297,0.892,7.817,-1.450,2.718
2.860,0.162,-0.295,0.888,7.710,-2.641,2.687
2.860,0.167,-0.290,0.885,7.481,-3.344,2.641
2.870,0.172,-0.291,0.891,7.664,-3.908,2.275
2.870,0.174,-0.295,0.899,8.046,-4.702,2.427
2.870,0.176,-0.295,0.897,8.718,-6.046,2.137
2.880,0.174,-0.292,0.906,9.298,-7.374,2.321
2.880,0.178,-0.289,0.900,9.695,-8.260,2.000
2.890,0.200,-0.287,0.892,10.260,-8.137,1.664
2.890,0.209,-0.285,0.892,10.397,-8.168,1.176
2.890,0.205,-0.278,0.885,10.580,-7.924,0.733
2.900,0.204,-0.279,0.871,10.794,-7.588,0.519
2.900,0.210,-0.271,0.883,10.687,-6.779,0.412
2.910,0.212,-0.277,0.868,10.687,-5.725,-0.061
2.910,0.210,-0.265,0.867,10.916,-5.084,-0.061
2.910,0.199,-0.269,0.860,10.687,-4.626,0.153
2.920,0.194,-0.266,0.849,10.870,-3.649,0.275
2.920,0.192,-0.254,0.848,10.504,-2.840,0.672
2.930,0.200,-0.255,0.825,9.359,-2.580,0.611
2.930,0.214,-0.253,0.827,8.885,-1.435,0.855
2.930,0.209,-0.254,0.841,8.504,-0.061,0.702
2.940,0.209,-0.259,0.834,7.908,0.855,0.656
2.940,0.210,-0.257,0.827,7.420,1.573,0.580
2.950,0.215,-0.256,0.828,6.656,2.305,0.397
2.950,0.214,-0.257,0.832,5.908,3.084,0.382
2.950,0.210,-0.259,0.831,5.221,3.725,0.382
2.960,0.219,-0.253,0.820,4.443,4.107,0.366
2.960,0.208,-0.244,0.827,3.954,4.076,0.305
2.960,0.213,-0.243,0.828,3.115,3.969,0.229
2.970,0.214,-0.248,0.811,2.504,3.618,-0.382
2.970,0.215,-0.248,0.823,1.740,3.298,-0.489
2.980,0.212,-0.252,0.821,1.115,3.008,-0.672
2.980,0.205,-0.244,0.818,0.000,2.534,-0.718
2.980,0.209,-0.244,0.816,-0.870,1.969,-0.809
2.990,0.213,-0.247,0.836,-1.603,1.969,-1.130
2.990,0.208,-0.250,0.839,-1.252,1.557,-1.191
3.000,0.198,-0.250,0.860,-0.626,0.901,-1.130
3.000,0.198,-0.259,0.858,-0.061,0.412,-0.992
3.000,0.200,-0.253,0.848,0.458,0.015,-1.176
3.010,0.206,-0.254,0.845,0.443,-0.641,-1.099
3.010,0.206,-0.261,0.850,0.595,-0.504,-1.282
3.020,0.212,-0.257,0.851,1.145,-0.214,-1.618
3.020,0.207,-0.258,0.848,1.450,0.046,-1.557
3.020,0.213,-0.260,0.837,1.527,0.321,-1.924
3.030,0.214,-0.261,0.847,1.405,0.763,-2.229
3.030,0.208,-0.261,0.849,1.649,1.053,-2.412
3.040,0.194,-0.262,0.846,2.031,0.824,-2.641
3.040,0.178,-0.263,0.841,2.351,-0.107,-2.458
3.040,0.174,-0.257,0.828,2.290,-1.099,-2.382
3.050,0.176,-0.261,0.832,2.229,-1.237,-2.076
3.050,0.172,-0.262,0.823,1.893,-2.122,-1.802
3.060,0.158,-0.261,0.833,1.695,-2.840,-1.282
3.060,0.166,-0.265,0.847,1.893,-2.977,-0.611
3.060,0.161,-0.256,0.843,1.725,-2.901,0.015
3.070,0.174,-0.257,0.816,1.359,-2.840,0.779
3.070,0.181,-0.256,0.825,0.992,-2.565,0.870
3.070,0.179,-0.254,0.811,0.382,-2.122,1.511
3.080,0.177,-0.254,0.834,0.046,-1.756,2.000
3.080,0.183,-0.258,0.833,-0.122,-0.733,2.198
3.090,0.193,-0.250,0.839,-0.153,0.122,2.321
3.090,0.201,-0.250,0.832,-0.061,0.947,2.290
3.090,0.190,-0.251,0.836,-0.122,1.328,2.137
3.100,0.183,-0.257,0.830,-0.092,0.504,2.214
3.100,0.178,-0.249,0.837,-0.550,-0.672,2.168
3.110,0.191,-0.245,0.833,-0.580,-2.046,2.031
3.110,0.192,-0.239,0.830,-0.870,-3.145,1.954
3.110,0.177,-0.243,0.825,-1.313,-4.214,1.863
3.120,0.179,-0.247,0.835,-1.542,-5.878,2.137
3.120,0.174,-0.246,0.841,-1.695,-7.573,1.878
3.130,0.181,-0.249,0.828,-1.939,-9.389,1.802
3.130,0.204,-0.248,0.838,-2.656,-10.046,1.878
3.130,0.208,-0.254,0.845,-2.748,-10.229,1.634
3.140,0.216,-0.255,0.849,-2.855,-10.046,1.634
3.140,0.213,-0.251,0.848,-3.038,-9.191,1.588
3.150,0.231,-0.259,0.852,-3.023,-7.588,1.450
3.150,0.232,-0.255,0.858,-2.947,-5.771,1.221
3.150,0.230,-0.252,0.870,-3.145,-3.893,0.992
3.160,0.233,-0.257,0.873,-2.702,-2.015,0.931
3.160,0.235,-0.260,0.874,-2.015,0.290,0.809
3.170,0.222,-0.260,0.881,-1.466,1.863,0.672
3.170,0.222,-0.266,0.856,-0.840,3.008,0.611
3.170,0.212,-0.258,0.859,-0.763,2.840,0.489
3.180,0.212,-0.260,0.857,-1.160,2.122,0.305
3.180,0.203,-0.259,0.855,-1.573,1.344,0.198
3.190,0.211,-0.262,0.856,-1.237,1.878,0.122
3.190,0.209,-0.261,0.866,-1.053,1.725,0.260
3.190,0.199,-0.258,0.854,-1.038,1.664,0.397
3.200,0.190,-0.260,0.842,-0.916,1.252,0.427
3.200,0.188,-0.260,0.841,-0.977,1.145,0.473
3.210,0.188,-0.263,0.852,-1.115,1.313,0.718
3.210,0.186,-0.261,0.838,-1.176,1.206,0.901
3.210,0.175,-0.257,0.848,-1.374,0.550,0.931
3.220,0.180,-0.260,0.852,-1.359,-0.244,1.008
3.220,0.181,-0.254,0.865,-1.298,-0.870,0.824
3.220,0.186,-0.261,0.866,-1.496,-0.840,0.763
3.230,0.190,-0.257,0.867,-1.588,-0.885,1.023
3.230,0.193,-0.263,0.871,-1.252,-0.565,1.099
3.240,0.181,-0.263,0.876,-1.267,-0.412,1.557
3.240,0.180,-0.264,0.884,-0.519,-0.107,1.832
3.240,0.181,-0.267,0.875,-0.153,-0.168,2.046
3.250,0.180,-0.259,0.881,0.137,-0.382,2.565
3.250,0.176,-0.261,0.873,0.336,-0.748,2.992
3.260,0.166,-0.262,0.863,0.718,-1.710,3.176
3.260,0.177,-0.254,0.860,0.351,-2.901,3.221
3.260,0.186,-0.253,0.859,-0.366,-4.183,2.702
3.270,0.191,-0.254,0.857,-0.443,-4.443,2.336
3.270,0.197,-0.258,0.863,-0.580,-4.275,2.519
3.280,0.182,-0.258,0.863,-0.550,-4.107,2.718
3.280,0.184,-0.256,0.854,-0.687,-3.756,3.084
3.280,0.199,-0.255,0.850,-1.115,-2.840,3.298
3.290,0.202,-0.258,0.853,-1.328,-2.061,3.206
3.290,0.205,-0.258,0.866,-1.237,-1.389,3.435
3.300,0.203,-0.262,0.875,-0.733,-1.084,3.282
3.300,0.208,-0.261,0.875,-0.565,-0.382,3.496
3.300,0.199,-0.255,0.867,-0.351,0.305,3.450
3.310,0.207,-0.263,0.858,-0.336,0.855,3.847
3.310,0.202,-0.251,0.862,-0.565,0.855,3.832
3.320,0.201,-0.254,0.866,-0.550,1.038,3.939
3.320,0.208,-0.257,0.867,-0.718,1.084,4.015
3.320,0.211,-0.254,0.865,-0.947,1.252,4.122
3.330,0.212,-0.253,0.871,-0.824,1.695,4.076
3.330,0.218,-0.262,0.875,-0.855,1.725,4.031
3.340,0.215,-0.261,0.877,-0.840,2.153,3.969
3.340,0.213,-0.261,0.872,-0.290,2.076,3.893
3.340,0.219,-0.265,0.870,-0.229,2.443,3.878
3.350,0.217,-0.259,0.876,0.427,2.412,3.893
3.350,0.205,-0.263,0.863,0.885,1.695,3.557
3.360,0.204,-0.263,0.871,0.687,1.252,3.588
3.360,0.197,-0.256,0.860,0.718,0.672,3.221
3.360,0.197,-0.262,0.866,0.412,-0.397,3.435
3.370,0.204,-0.256,0.870,0.275,-0.687,2.992
3.370,0.216,-0.263,0.892,1.053,-0.336,2.947
3.370,0.214,-0.262,0.882,1.450,-0.107,3.298
3.380,0.202,-0.257,0.879,1.313,0.168,3.298
3.380,0.206,-0.262,0.877,1.405,0.321,3.511
3.390,0.209,-0.263,0.875,1.725,0.382,3.359
3.390,0.218,-0.265,0.876,2.031,0.260,3.481
3.390,0.217,-0.258,0.882,2.504,0.229,3.359
3.400,0.221,-0.263,0.875,2.885,-0.061,2.885
3.400,0.221,-0.264,0.867,2.809,-0.595,2.427
3.410,0.224,-0.266,0.865,2.718,-1.328,1.740
3.410,0.220,-0.263,0.867,3.038,-0.901,1.756
3.410,0.214,-0.261,0.861,2.901,-0.931,1.603
3.420,0.208,-0.256,0.858,2.641,-0.916,1.679
3.420,0.210,-0.257,0.854,2.534,-0.870,1.924
3.420,0.199,-0.256,0.849,2.412,-0.336,2.214
3.430,0.213,-0.261,0.846,2.168,0.550,2.382
3.430,0.209,-0.259,0.842,1.924,1.069,2.382
3.440,0.206,-0.254,0.841,1.649,1.710,2.641
3.440,0.208,-0.253,0.828,1.435,2.305,2.626
3.440,0.204,-0.255,0.835,1.038,3.023,2.809
3.450,0.198,-0.258,0.838,0.702,3.435,2.855
3.450,0.191,-0.256,0.833,0.336,3.221,3.160
3.460,0.186,-0.260,0.842,-0.015,2.992,3.191
3.460,0.182,-0.255,0.837,-0.336,2.351,3.359
3.460,0.187,-0.264,0.840,-0.656,2.061,3.481
3.470,0.183,-0.250,0.829,-1.069,1.328,3.649
3.470,0.180,-0.258,0.843,-1.298,0.672,3.832
3.470,0.177,-0.255,0.850,-1.344,-0.076,4.336
3.480,0.178,-0.255,0.841,-1.420,-0.962,4.534
3.480,0.182,-0.250,0.842,-1.634,-2.061,4.794
3.490,0.192,-0.251,0.851,-1.817,-2.748,4.916
3.490,0.196,-0.260,0.863,-1.939,-3.420,4.962
3.490,0.198,-0.255,0.874,-1.389,-3.847,4.947
3.500,0.218,-0.261,0.881,-0.931,-3.954,4.763
3.500,0.212,-0.259,0.884,-0.214,-3.420,4.626
3.510,0.219,-0.259,0.874,0.137,-2.824,4.580
3.510,0.212,-0.250,0.872,0.489,-2.427,4.809
3.510,0.209,-0.254,0.868,0.733,-1.985,5.145
3.520,0.209,-0.257,0.863,1.344,-1.542,5.496
3.520,0.211,-0.258,0.866,2.183,-1.252,5.435
3.530,0.218,-0.251,0.858,2.351,-0.901,5.786
3.530,0.220,-0.253,0.869,2.198,-0.565,5.374
3.530,0.230,-0.255,0.873,2.809,-0.214,4.824
3.540,0.226,-0.254,0.867,3.450,0.427,4.412
3.540,0.226,-0.252,0.865,3.313,0.412,4.366
3.550,0.230,-0.247,0.839,3.252,0.565,3.985
3.550,0.228,-0.253,0.841,3.099,0.916,4.031
3.550,0.217,-0.251,0.829,3.069,1.221,4.076
3.560,0.212,-0.255,0.830,2.992,1.725,3.710
3.560,0.212,-0.253,0.823,3.252,2.198,4.000
3.560,0.210,-0.244,0.823,3.008,3.053,4.183
3.570,0.208,-0.241,0.813,3.511,3.954,4.473
3.570,0.196,-0.235,0.794,3.359,3.099,4.260
3.580,0.192,-0.235,0.786,1.542,1.267,4.153
3.580,0.195,-0.235,0.786,0.031,-0.489,4.015
3.580,0.202,-0.244,0.803,-0.336,-0.565,3.878
3.590,0.203,-0.240,0.815,-0.397,-0.672,3.847
3.590,0.195,-0.237,0.813,-1.099,-1.130,4.107
3.600,0.185,-0.231,0.809,-2.122,-1.542,4.305
3.600,0.185,-0.231,0.804,-2.794,-2.382,4.718
3.600,0.204,-0.237,0.822,-3.084,-2.779,4.656
3.610,0.208,-0.240,0.840,-3.206,-2.870,4.611
3.610,0.210,-0.245,0.844,-3.191,-2.672,4.672
3.620,0.216,-0.246,0.855,-3.084,-2.244,4.412
3.620,0.217,-0.252,0.851,-2.901,-2.061,4.458
3.620,0.216,-0.247,0.851,-2.656,-2.382,3.969
3.630,0.227,-0.252,0.844,-3.359,-3.160,3.695
3.630,0.224,-0.245,0.868,-3.679,-3.817,2.824
3.640,0.240,-0.248,0.885,-3.008,-4.061,2.321
3.640,0.234,-0.254,0.884,-2.519,-3.466,1.786
3.640,0.229,-0.258,0.885,-2.046,-2.824,1.618
3.650,0.224,-0.254,0.870,-1.313,-2.260,1.618
3.650,0.220,-0.251,0.864,-0.870,-1.969,1.511
3.660,0.225,-0.257,0.873,-0.412,-1.420,1.237
3.660,0.222,-0.256,0.869,0.031,-0.458,1.405
3.660,0.214,-0.257,0.854,0.366,0.580,1.481
3.670,0.207,-0.242,0.860,0.519,0.947,1.664
3.670,0.200,-0.249,0.844,0.489,1.618,1.634
3.680,0.197,-0.242,0.840,-0.260,1.939,1.634
3.680,0.193,-0.245,0.831,-1.084,2.153,1.710
3.680,0.199,-0.239,0.836,-1.603,2.534,2.000
3.690,0.193,-0.242,0.835,-2.031,2.687,2.229
3.690,0.195,-0.245,0.837,-2.641,2.656,2.336
3.690,0.196,-0.245,0.842,-2.641,2.244,2.504
3.700,0.195,-0.246,0.849,-2.687,2.260,2.260
3.700,0.200,-0.249,0.859,-2.580,2.015,2.092
3.710,0.208,-0.246,0.872,-2.427,1.588,1.969
3.710,0.209,-0.255,0.865,-2.092,0.687,1.603
3.710,0.200,-0.248,0.867,-1.695,0.000,1.374
3.720,0.201,-0.249,0.863,-1.389,-1.115,1.344
3.720,0.194,-0.254,0.869,-1.130,-1.924,1.252
3.730,0.193,-0.251,0.855,-0.916,-2.626,1.511
3.730,0.195,-0.251,0.855,-1.206,-3.420,1.389
3.730,0.192,-0.243,0.845,-1.252,-3.985,1.344
3.740,0.194,-0.259,0.840,-1.084,-4.473,0.962
3.740,0.193,-0.248,0.841,-1.756,-6.137,1.099
3.750,0.197,-0.248,0.838,-2.565,-7.053,0.962
3.750,0.210,-0.243,0.841,-2.611,-7.420,0.702
3.750,0.201,-0.248,0.839,-2.611,-8.718,0.244
3.760,0.196,-0.250,0.851,-2.550,-10.168,0.214
3.760,0.198,-0.253,0.844,-3.145,-11.221,0.214
3.770,0.205,-0.245,0.843,-2.977,-11.496,0.031
3.770,0.221,-0.250,0.859,-3.023,-11.420,0.153
3.770,0.219,-0.249,0.859,-2.534,-11.450,0.275
3.780,0.221,-0.257,0.870,-2.046,-10.443,0.290
3.780,0.228,-0.256,0.864,-1.969,-9.053,0.504
3.790,0.235,-0.252,0.876,-1.786,-7.481,0.672
3.790,0.230,-0.253,0.855,-1.786,-5.832,0.702
3.790,0.232,-0.254,0.861,-2.000,-3.817,0.718
3.800,0.239,-0.256,0.872,-1.939,-2.153,0.962
3.800,0.233,-0.255,0.865,-2.412,-0.290,0.901
3.810,0.240,-0.256,0.858,-2.427,1.008,1.038
3.810,0.231,-0.250,0.854,-2.672,1.832,1.038
3.810,0.223,-0.249,0.863,-2.916,2.305,0.733
3.820,0.217,-0.258,0.871,-3.069,2.229,0.809
3.820,0.215,-0.257,0.863,-2.931,2.076,0.763
3.830,0.217,-0.261,0.881,-2.366,1.924,0.779
3.830,0.218,-0.255,0.878,-1.908,1.924,0.794
3.830,0.220,-0.254,0.878,-1.359,1.908,0.840
3.840,0.211,-0.259,0.872,-0.840,1.863,1.008
3.840,0.211,-0.258,0.872,-0.198,1.573,0.916
3.850,0.212,-0.250,0.852,-0.061,0.885,1.145
3.850,0.217,-0.248,0.843,-0.260,-0.015,0.855
3.850,0.222,-0.251,0.855,-0.260,-0.137,0.672
3.860,0.229,-0.247,0.859,-0.412,-0.336,0.015
3.860,0.226,-0.247,0.856,-0.336,-0.397,-0.275
3.870,0.220,-0.244,0.838,-0.626,-0.626,-0.656
3.870,0.214,-0.241,0.831,-1.145,-0.870,-0.473
3.870,0.217,-0.246,0.831,-2.046,-1.130,-0.382
3.880,0.217,-0.241,0.836,-2.458,-0.565,-0.351
3.880,0.210,-0.244,0.839,-2.687,0.275,-0.168
3.890,0.216,-0.246,0.828,-3.145,0.626,0.107
3.890,0.222,-0.245,0.835,-3.221,0.718,0.046
3.890,0.222,-0.248,0.843,-3.573,0.733,-0.580
3.900,0.214,-0.242,0.839,-3.603,0.214,-0.748
3.900,0.220,-0.257,0.840,-3.802,-0.580,-0.779
3.910,0.214,-0.252,0.848,-3.847,-1.603,-1.008
3.910,0.210,-0.250,0.851,-3.832,-1.893,-1.115
3.910,0.204,-0.261,0.866,-3.344,-1.740,-0.763
3.920,0.206,-0.249,0.876,-2.977,-1.634,-0.534
3.920,0.213,-0.256,0.858,-2.641,-1.099,-0.214
3.930,0.220,-0.254,0.862,-2.748,-0.824,-0.489
3.930,0.223,-0.253,0.859,-2.687,0.015,-0.382
3.930,0.218,-0.256,0.866,-2.198,0.504,-0.412
3.940,0.213,-0.258,0.866,-2.076,0.947,-0.290
3.940,0.215,-0.259,0.866,-2.107,1.206,-0.214
3.950,0.220,-0.258,0.874,-2.061,1.832,-0.473
3.950,0.227,-0.247,0.874,-2.092,2.244,-0.473
3.950,0.222,-0.263,0.873,-1.832,2.321,-0.656
3.960,0.220,-0.260,0.882,-1.405,2.611,-0.794
3.960,0.217,-0.256,0.866,-1.099,3.053,-0.672
3.970,0.214,-0.262,0.873,-1.176,2.916,-0.473
3.970,0.206,-0.259,0.867,-0.992,2.595,-0.305
3.970,0.209,-0.256,0.879,-0.947,2.977,-0.137
3.980,0.219,-0.256,0.872,-0.901,3.420,-0.168
3.980,0.214,-0.256,0.853,-0.748,3.252,-0.458
3.990,0.214,-0.251,0.865,-0.885,2.595,-0.519
3.990,0.211,-0.251,0.863,-1.206,2.000,-0.779
3.990,0.212,-0.254,0.849,-1.298,2.214,-0.931
4.000,0.206,-0.256,0.864,-1.420,2.504,-0.916
4.000,0.206,-0.259,0.857,-1.481,2.489,-0.504
4.010,0.203,-0.255,0.862,-1.603,2.626,-0.702
4.010,0.215,-0.255,0.864,-1.588,2.473,-0.672
4.010,0.212,-0.254,0.861,-1.450,2.366,-0.809
4.020,0.209,-0.247,0.864,-1.389,2.244,-0.870
4.020,0.203,-0.255,0.864,-1.664,1.756,-0.840
4.030,0.202,-0.260,0.859,-1.695,1.115,-0.992
4.030,0.197,-0.251,0.866,-1.695,0.992,-0.885
4.030,0.193,-0.260,0.863,-1.542,0.916,-0.733
4.040,0.196,-0.253,0.863,-1.573,0.244,-0.626
4.040,0.188,-0.255,0.862,-1.359,-0.427,-0.397
4.050,0.194,-0.255,0.857,-1.573,-1.267,-0.046
4.050,0.195,-0.252,0.855,-1.450,-1.359,0.046
4.050,0.193,-0.255,0.860,-1.069,-2.000,0.015
4.060,0.198,-0.255,0.865,-1.389,-2.641,-0.061
4.060,0.210,-0.252,0.865,-1.282,-2.885,-0.275
4.070,0.213,-0.265,0.866,-1.130,-2.427,-0.397
4.070,0.211,-0.257,0.872,-0.779,-2.305,-0.183
