Time,acce_x,acce_y,acce_z,gyro_x,gyro_y,gyro_z
0.000,0.257,-0.187,0.833,-0.626,0.901,3.145
0.000,0.262,-0.186,0.841,-0.733,1.618,3.344
0.010,0.261,-0.187,0.841,-0.824,1.908,3.527
0.010,0.261,-0.179,0.830,-1.176,1.847,3.237
0.010,0.270,-0.177,0.823,-2.092,2.504,3.191
0.020,0.277,-0.178,0.818,-2.855,3.679,3.252
0.020,0.270,-0.175,0.822,-3.374,4.275,3.252
0.020,0.278,-0.178,0.824,-3.298,3.527,2.992
0.030,0.277,-0.183,0.835,-3.695,2.641,2.870
0.030,0.267,-0.179,0.819,-3.435,1.679,2.534
0.030,0.272,-0.180,0.831,-3.908,0.931,2.534
0.040,0.276,-0.180,0.835,-4.153,0.290,2.305
0.040,0.276,-0.187,0.849,-4.046,-0.229,2.031
0.040,0.285,-0.190,0.842,-3.802,-0.840,1.710
0.050,0.283,-0.191,0.853,-3.908,-1.389,1.496
0.050,0.286,-0.188,0.842,-4.061,-0.962,1.252
0.050,0.300,-0.184,0.841,-3.924,-0.275,1.084
0.060,0.303,-0.187,0.852,-3.939,1.038,0.885
0.060,0.302,-0.188,0.842,-3.786,2.840,0.672
0.070,0.297,-0.193,0.851,-3.267,3.450,0.794
0.070,0.303,-0.189,0.848,-2.244,4.504,0.687
0.070,0.287,-0.194,0.830,-1.756,5.771,0.779
0.080,0.282,-0.190,0.841,-1.191,6.473,0.748
0.080,0.287,-0.187,0.841,-1.878,7.695,0.641
0.090,0.287,-0.193,0.842,-2.534,8.885,0.473
0.090,0.288,-0.188,0.840,-2.595,11.389,0.718
0.090,0.279,-0.182,0.840,-2.794,12.809,0.458
0.100,0.276,-0.188,0.842,-3.176,12.718,0.214
0.100,0.269,-0.186,0.840,-3.725,10.901,-0.290
0.110,0.258,-0.180,0.834,-3.863,8.718,-0.565
0.110,0.255,-0.187,0.847,-4.046,5.924,-0.580
0.110,0.260,-0.189,0.844,-4.748,2.015,-1.023
0.120,0.240,-0.189,0.845,-5.160,-2.565,-1.420
0.120,0.250,-0.184,0.839,-5.771,-6.458,-1.863
0.130,0.257,-0.191,0.839,-5.771,-9.466,-2.519
0.130,0.261,-0.187,0.837,-6.107,-11.771,-2.855
0.130,0.264,-0.187,0.845,-6.076,-12.809,-2.901
0.140,0.265,-0.188,0.848,-5.099,-13.221,-3.176
0.140,0.266,-0.192,0.853,-5.130,-12.977,-3.344
0.150,0.268,-0.188,0.848,-4.916,-12.427,-3.130
0.150,0.270,-0.186,0.847,-4.733,-10.763,-2.779
0.150,0.255,-0.183,0.836,-4.733,-9.588,-2.534
0.160,0.248,-0.188,0.830,-5.267,-8.595,-1.924
0.160,0.258,-0.187,0.840,-5.908,-6.977,-1.313
0.170,0.253,-0.184,0.844,-5.832,-5.405,-0.489
0.170,0.261,-0.188,0.850,-6.244,-4.168,-0.031
0.180,0.270,-0.184,0.857,-6.595,-1.924,0.489
0.180,0.289,-0.189,0.847,-7.053,0.809,0.702
0.180,0.281,-0.193,0.860,-7.053,2.443,0.534
0.190,0.277,-0.189,0.851,-7.160,2.595,0.519
0.190,0.266,-0.198,0.866,-7.282,2.656,0.626
0.190,0.267,-0.195,0.875,-7.298,2.748,0.382
0.200,0.271,-0.197,0.881,-7.038,3.038,0.412
0.200,0.272,-0.203,0.868,-6.611,3.130,0.107
0.210,0.265,-0.205,0.885,-6.153,2.550,-0.046
0.210,0.267,-0.214,0.897,-5.908,2.412,-0.198
0.210,0.271,-0.210,0.894,-5.069,2.977,-0.458
0.220,0.271,-0.205,0.891,-4.229,1.985,-0.794
0.220,0.268,-0.213,0.898,-3.206,0.595,-1.435
0.230,0.264,-0.213,0.888,-2.748,-0.153,-1.542
0.230,0.252,-0.210,0.894,-2.489,0.107,-1.527
0.230,0.247,-0.211,0.899,-1.786,0.183,-1.191
0.240,0.249,-0.209,0.881,-1.542,0.168,-0.885
0.240,0.246,-0.208,0.881,-1.130,-0.321,-0.733
0.250,0.253,-0.202,0.868,-0.992,-0.397,-0.870
0.250,0.253,-0.201,0.870,-0.702,-0.137,-0.687
0.250,0.240,-0.202,0.880,-0.473,-0.107,-0.687
0.260,0.240,-0.206,0.880,-0.458,-0.916,-0.473
0.260,0.248,-0.208,0.873,-1.252,-0.779,-0.443
0.270,0.252,-0.207,0.884,-0.947,-0.229,-0.366
0.270,0.252,-0.200,0.873,-0.718,-0.595,-0.183
0.280,0.251,-0.203,0.870,-0.366,-1.053,0.107
0.280,0.240,-0.196,0.879,0.107,-2.015,0.504
0.280,0.234,-0.196,0.869,-0.290,-3.527,0.748
0.290,0.233,-0.200,0.873,0.168,-3.817,0.870
0.290,0.242,-0.198,0.883,0.275,-3.573,1.389
0.290,0.243,-0.201,0.881,0.519,-4.321,1.817
0.300,0.250,-0.200,0.870,0.534,-5.389,2.153
0.300,0.251,-0.195,0.867,0.092,-5.847,2.321
0.310,0.261,-0.194,0.866,-0.153,-5.771,2.214
0.310,0.268,-0.197,0.871,0.076,-6.000,1.969
0.310,0.274,-0.199,0.870,0.626,-5.908,1.756
0.320,0.271,-0.203,0.883,0.885,-6.061,1.817
0.320,0.270,-0.200,0.873,0.840,-5.786,1.863
0.330,0.279,-0.196,0.859,1.191,-5.771,1.802
0.330,0.278,-0.194,0.874,1.496,-4.840,2.015
0.330,0.287,-0.193,0.859,1.450,-3.344,2.031
0.340,0.283,-0.188,0.867,1.053,-1.893,2.031
0.340,0.281,-0.186,0.845,0.748,-0.656,1.878
0.350,0.281,-0.188,0.843,-0.290,-0.443,1.679
0.350,0.276,-0.190,0.840,-1.038,-0.901,1.786
0.350,0.280,-0.189,0.856,-0.901,-0.962,1.618
0.360,0.284,-0.198,0.849,-1.359,-0.855,1.634
0.360,0.277,-0.201,0.861,-1.160,-1.481,1.481
0.370,0.269,-0.201,0.869,-0.809,-2.550,1.435
0.370,0.260,-0.202,0.865,-0.046,-3.908,1.298
0.370,0.262,-0.203,0.876,0.473,-5.496,1.115
0.380,0.272,-0.204,0.875,0.611,-6.275,0.626
0.380,0.277,-0.207,0.874,0.947,-6.473,0.336
0.390,0.281,-0.204,0.864,1.176,-6.168,0.290
0.390,0.278,-0.207,0.854,1.496,-6.198,0.153
0.390,0.259,-0.197,0.861,1.649,-8.031,0.351
0.400,0.278,-0.197,0.861,2.031,-6.534,0.473
0.400,0.284,-0.189,0.848,1.374,-5.328,0.702
0.400,0.278,-0.197,0.858,1.374,-5.160,0.641
0.410,0.286,-0.192,0.852,1.328,-5.771,0.626
0.410,0.291,-0.186,0.851,0.809,-5.527,0.595
0.420,0.302,-0.196,0.847,0.382,-3.771,0.489
0.420,0.296,-0.191,0.831,-0.473,-2.290,0.305
0.420,0.296,-0.195,0.839,-0.947,-1.939,0.366
0.430,0.295,-0.192,0.852,-1.130,-1.359,0.198
0.430,0.288,-0.196,0.853,-0.855,-0.779,0.473
0.440,0.285,-0.198,0.853,-0.840,0.962,0.641
0.440,0.280,-0.198,0.857,-1.038,0.840,0.580
0.440,0.280,-0.200,0.869,-0.733,0.137,0.595
0.450,0.274,-0.202,0.874,0.153,-0.122,0.687
0.450,0.280,-0.204,0.871,0.947,-0.672,0.794
0.460,0.289,-0.197,0.868,0.550,-1.344,0.305
0.460,0.295,-0.189,0.854,0.351,-0.702,0.275
0.460,0.297,-0.198,0.847,0.626,-0.061,0.122
0.470,0.288,-0.189,0.856,0.550,0.916,-0.260
0.470,0.281,-0.180,0.855,0.107,-0.305,-0.443
0.480,0.283,-0.189,0.856,0.443,-1.389,-0.733
0.480,0.286,-0.192,0.859,0.534,-1.359,-0.947
0.480,0.283,-0.183,0.846,0.061,-0.321,-1.008
0.490,0.270,-0.184,0.861,-0.061,-1.466,-0.992
0.490,0.279,-0.181,0.854,0.107,-1.099,-0.931
0.500,0.289,-0.182,0.844,-0.260,-1.298,-1.038
0.500,0.296,-0.183,0.844,-0.565,-0.763,-0.550
0.500,0.304,-0.185,0.854,-0.061,0.534,-1.374
0.510,0.294,-0.176,0.858,-0.641,1.435,-0.901
0.510,0.290,-0.186,0.842,-0.595,3.145,-1.160
0.520,0.297,-0.182,0.851,-1.145,2.916,-1.450
0.520,0.285,-0.181,0.854,-1.115,3.252,-1.450
0.520,0.283,-0.186,0.863,-0.718,4.031,-0.947
0.530,0.262,-0.195,0.871,-0.198,3.466,-0.977
0.530,0.261,-0.188,0.867,0.244,3.450,-0.061
0.540,0.252,-0.181,0.827,0.000,4.550,-0.183
0.540,0.250,-0.177,0.819,-0.595,4.214,0.137
0.540,0.271,-0.181,0.826,-1.298,6.229,0.153
0.550,0.261,-0.176,0.846,-1.374,6.809,0.351
0.550,0.262,-0.180,0.835,-1.756,8.962,0.534
0.560,0.262,-0.175,0.811,-2.885,8.992,0.916
0.560,0.255,-0.173,0.824,-3.725,6.092,0.626
0.560,0.261,-0.185,0.824,-4.183,5.130,0.336
0.570,0.251,-0.175,0.823,-4.931,6.489,0.672
0.570,0.255,-0.184,0.843,-4.443,6.321,0.702
0.570,0.249,-0.188,0.834,-4.611,4.519,0.748
0.580,0.252,-0.194,0.850,-4.489,2.702,0.519
0.580,0.255,-0.195,0.865,-3.817,1.740,0.412
0.590,0.259,-0.198,0.878,-3.328,2.046,0.473
0.590,0.260,-0.197,0.884,-3.053,1.359,0.351
0.590,0.265,-0.201,0.883,-2.305,0.565,0.672
0.600,0.263,-0.205,0.896,-0.916,-0.733,0.519
0.600,0.251,-0.198,0.898,0.183,-1.863,0.641
0.610,0.253,-0.199,0.875,0.947,-1.863,0.947
0.610,0.252,-0.199,0.876,1.176,-2.321,1.176
0.610,0.257,-0.196,0.873,1.450,-2.656,1.481
0.620,0.267,-0.198,0.880,1.954,-2.611,1.573
0.620,0.270,-0.196,0.876,2.153,-1.771,1.939
0.630,0.272,-0.197,0.873,2.321,-0.992,2.046
0.630,0.265,-0.197,0.870,2.550,-0.763,1.969
0.630,0.266,-0.192,0.852,2.290,-0.855,2.107
0.640,0.263,-0.191,0.852,1.908,-0.382,2.489
0.640,0.262,-0.190,0.841,1.435,0.153,2.779
0.650,0.266,-0.194,0.849,1.237,0.412,3.008
0.650,0.271,-0.197,0.852,1.252,0.626,3.206
0.650,0.268,-0.191,0.852,0.794,0.656,3.023
0.660,0.269,-0.192,0.850,0.412,0.809,3.130
0.660,0.262,-0.191,0.839,0.275,0.870,3.008
0.660,0.270,-0.190,0.844,0.046,1.344,3.008
0.670,0.269,-0.193,0.851,-0.137,1.267,3.053
0.670,0.279,-0.192,0.851,-0.290,2.305,2.931
0.680,0.288,-0.183,0.845,-0.718,2.947,2.473
0.680,0.289,-0.192,0.833,-1.069,2.992,2.214
0.680,0.260,-0.191,0.850,-1.802,3.282,2.779
0.690,0.255,-0.186,0.845,-1.802,3.664,3.252
0.690,0.251,-0.187,0.841,-1.573,3.206,3.374
0.700,0.262,-0.190,0.841,-1.679,2.595,3.466
0.700,0.270,-0.187,0.857,-1.832,1.344,3.053
0.700,0.284,-0.196,0.859,-1.786,0.580,2.580
0.710,0.281,-0.197,0.873,-1.267,-0.229,2.290
0.710,0.271,-0.203,0.882,-0.214,-1.679,2.229
0.720,0.265,-0.197,0.873,0.534,-2.885,2.122
0.720,0.274,-0.190,0.866,1.130,-3.786,2.244
0.720,0.276,-0.191,0.854,1.588,-3.802,2.366
0.730,0.283,-0.188,0.849,1.069,-3.282,2.366
0.730,0.279,-0.181,0.850,0.595,-2.962,2.580
0.730,0.283,-0.187,0.867,0.595,-4.122,2.122
0.740,0.276,-0.176,0.844,-0.397,-4.794,2.122
0.740,0.292,-0.182,0.843,-1.008,-5.237,1.878
0.750,0.296,-0.182,0.834,-1.893,-4.977,1.496
0.750,0.295,-0.187,0.831,-2.244,-4.794,1.481
0.750,0.293,-0.180,0.826,-2.794,-3.832,1.206
0.760,0.292,-0.185,0.843,-3.053,-2.595,1.344
0.760,0.287,-0.188,0.841,-2.763,-1.756,1.618
0.770,0.280,-0.187,0.847,-2.641,-0.489,1.878
0.770,0.277,-0.190,0.835,-2.611,1.053,2.458
0.770,0.278,-0.196,0.835,-2.733,2.366,2.641
0.780,0.276,-0.187,0.837,-2.824,3.603,2.824
0.780,0.277,-0.187,0.838,-3.237,4.427,3.008
0.790,0.274,-0.181,0.828,-3.176,4.947,3.023
0.790,0.262,-0.183,0.837,-2.901,5.130,3.145
0.790,0.268,-0.184,0.828,-2.977,5.084,3.328
0.800,0.270,-0.178,0.837,-3.313,5.969,3.573
0.800,0.275,-0.181,0.832,-4.092,7.053,3.466
0.810,0.278,-0.175,0.838,-4.260,7.130,3.191
0.810,0.281,-0.188,0.851,-4.550,6.290,3.084
0.810,0.277,-0.182,0.858,-4.427,5.344,2.641
0.820,0.296,-0.183,0.866,-4.366,4.595,1.679
0.820,0.289,-0.176,0.841,-4.702,3.374,1.053
0.830,0.298,-0.182,0.836,-5.099,3.893,0.580
0.830,0.298,-0.180,0.860,-5.756,3.756,0.214
0.830,0.282,-0.186,0.871,-5.496,2.244,-0.412
0.840,0.287,-0.189,0.880,-4.550,0.779,-0.763
0.840,0.281,-0.188,0.864,-4.198,0.336,-1.053
0.840,0.278,-0.182,0.837,-4.260,1.649,-1.038
0.850,0.287,-0.188,0.842,-4.107,2.870,-1.344
0.850,0.281,-0.185,0.830,-4.031,4.611,-1.634
0.860,0.275,-0.179,0.831,-3.771,5.832,-1.634
0.860,0.261,-0.179,0.832,-4.076,6.824,-1.496
0.860,0.258,-0.181,0.833,-5.130,8.076,-1.008
0.870,0.271,-0.174,0.830,-6.412,10.611,-1.053
0.870,0.276,-0.177,0.842,-9.389,12.595,-0.412
0.880,0.240,-0.196,0.863,-10.550,10.855,-0.305
0.880,0.243,-0.187,0.875,-10.687,10.763,0.931
0.890,0.209,-0.212,0.877,-8.885,7.267,1.206
0.890,0.209,-0.203,0.922,-5.603,2.275,2.779
0.890,0.177,-0.204,0.931,1.481,-7.649,4.260
0.900,0.160,-0.230,0.908,7.344,-15.115,4.901
0.900,0.190,-0.221,0.855,4.733,-13.939,6.427
0.900,0.256,-0.193,0.773,2.412,-0.305,6.580
0.910,0.339,-0.186,0.818,4.336,21.924,4.412
0.910,0.310,-0.219,0.846,8.931,29.954,6.366
0.920,0.146,-0.216,0.887,7.023,10.137,5.664
0.920,0.140,-0.198,0.855,4.504,-3.817,6.779
0.920,0.227,-0.186,0.812,1.466,-3.969,7.649
0.930,0.281,-0.191,0.818,-1.649,0.092,7.634
0.930,0.289,-0.194,0.847,-4.046,1.267,7.557
0.940,0.278,-0.199,0.867,-5.496,0.366,6.809
0.940,0.253,-0.196,0.853,-6.763,-0.718,6.794
0.940,0.307,-0.196,0.899,-6.076,-0.809,6.290
0.950,0.279,-0.200,0.874,-5.084,-1.328,5.221
0.950,0.278,-0.198,0.884,-5.069,-2.824,4.702
0.960,0.257,-0.201,0.867,-4.519,-4.947,4.427
0.960,0.263,-0.197,0.868,-3.634,-5.237,4.427
0.960,0.280,-0.191,0.862,-3.252,-5.695,4.198
0.970,0.287,-0.200,0.854,-3.115,-5.084,3.496
0.970,0.285,-0.202,0.861,-3.527,-6.000,2.779
0.980,0.280,-0.202,0.879,-3.344,-8.015,2.061
0.980,0.280,-0.207,0.886,-3.023,-9.725,1.389
0.980,0.286,-0.205,0.883,-3.023,-8.931,1.084
0.990,0.293,-0.204,0.869,-3.221,-6.687,0.427
0.990,0.295,-0.193,0.861,-3.527,-4.107,0.718
1.000,0.277,-0.202,0.866,-2.962,-2.015,0.550
1.000,0.278,-0.195,0.858,-3.053,-0.244,0.748
1.000,0.272,-0.200,0.859,-2.855,0.992,0.840
1.010,0.267,-0.202,0.856,-2.840,1.618,1.206
1.010,0.269,-0.196,0.853,-2.870,2.183,1.344
1.020,0.264,-0.196,0.851,-2.962,2.611,1.328
1.020,0.258,-0.200,0.855,-3.313,3.084,1.496
1.020,0.252,-0.200,0.862,-3.374,2.565,1.664
1.030,0.247,-0.204,0.864,-3.023,1.099,1.374
1.030,0.251,-0.202,0.878,-2.595,-0.443,1.435
1.040,0.253,-0.209,0.872,-1.954,-1.359,1.542
1.040,0.254,-0.211,0.884,-1.435,-0.870,1.450
1.040,0.252,-0.205,0.877,-0.580,-0.962,1.725
1.050,0.258,-0.216,0.896,0.046,-0.870,1.863
1.050,0.256,-0.205,0.879,0.489,-1.069,2.351
1.060,0.267,-0.204,0.875,0.260,-1.511,2.122
1.060,0.277,-0.199,0.877,-0.107,-1.084,2.198
1.060,0.279,-0.195,0.866,-0.214,-0.687,2.107
1.070,0.267,-0.202,0.877,-0.305,-0.458,2.076
1.070,0.264,-0.203,0.874,-0.229,-0.748,2.137
1.070,0.279,-0.202,0.861,-0.565,-0.244,1.924
1.080,0.274,-0.206,0.875,-0.489,0.183,1.725
1.080,0.273,-0.212,0.876,-0.046,0.412,1.298
1.090,0.258,-0.207,0.883,0.473,0.107,1.145
1.090,0.255,-0.213,0.879,0.779,-0.076,1.344
1.090,0.245,-0.209,0.880,1.542,0.137,1.359
1.100,0.245,-0.208,0.883,2.092,0.382,2.137
1.100,0.251,-0.207,0.884,2.458,1.466,2.397
1.110,0.243,-0.214,0.880,3.099,1.481,2.580
1.110,0.248,-0.212,0.882,3.160,1.954,2.626
1.110,0.238,-0.200,0.883,2.748,2.366,2.595
1.120,0.243,-0.204,0.868,2.031,1.878,2.260
1.120,0.247,-0.198,0.885,1.954,0.916,2.046
1.130,0.227,-0.195,0.884,1.756,-0.198,2.397
1.130,0.229,-0.197,0.870,1.878,-1.206,2.794
1.130,0.231,-0.199,0.877,2.015,-1.527,3.008
1.140,0.225,-0.203,0.880,2.427,-1.145,3.481
1.140,0.217,-0.202,0.901,3.130,-1.954,3.756
1.140,0.225,-0.209,0.912,4.260,-3.267,3.908
1.150,0.246,-0.205,0.893,4.214,-1.740,3.939
1.150,0.245,-0.201,0.893,4.565,-0.733,4.061
1.160,0.254,-0.204,0.902,4.916,-0.321,3.954
1.160,0.244,-0.202,0.895,5.267,-0.412,4.046
1.160,0.250,-0.202,0.906,5.481,-0.366,4.153
1.170,0.234,-0.197,0.893,5.634,-0.183,4.397
1.170,0.246,-0.197,0.887,5.786,0.427,4.672
1.180,0.235,-0.189,0.899,5.725,0.626,4.870
1.180,0.241,-0.192,0.887,5.847,0.931,4.824
1.180,0.231,-0.192,0.900,6.015,0.641,5.206
1.190,0.238,-0.189,0.887,6.336,0.687,5.282
1.190,0.250,-0.193,0.898,6.611,0.565,5.389
1.190,0.244,-0.188,0.894,7.023,-0.321,5.053
1.200,0.240,-0.183,0.884,7.328,-1.008,5.328
1.200,0.254,-0.187,0.883,7.069,0.000,5.557
1.210,0.241,-0.180,0.884,7.573,-1.023,5.542
1.210,0.233,-0.177,0.881,7.802,-1.176,5.756
1.210,0.254,-0.177,0.858,6.550,1.740,5.954
1.220,0.236,-0.171,0.858,6.351,1.298,6.183
1.220,0.236,-0.185,0.879,6.092,0.351,6.046
1.230,0.228,-0.175,0.871,6.107,0.198,6.137
1.230,0.233,-0.177,0.874,5.832,0.595,6.611
1.230,0.233,-0.183,0.853,5.588,1.847,6.794
1.240,0.225,-0.174,0.856,5.603,2.076,7.252
1.240,0.232,-0.177,0.874,5.511,2.214,7.298
1.240,0.237,-0.180,0.868,5.344,2.412,7.237
1.250,0.245,-0.187,0.877,5.527,2.794,7.206
1.250,0.231,-0.183,0.878,5.725,1.878,7.206
1.260,0.226,-0.175,0.887,5.115,1.221,7.771
1.260,0.230,-0.190,0.892,5.160,0.427,7.344
1.260,0.215,-0.187,0.892,5.344,-1.145,7.939
1.270,0.214,-0.189,0.892,6.183,-0.290,8.733
1.270,0.217,-0.194,0.892,7.053,0.733,9.176
1.280,0.210,-0.200,0.903,8.153,0.427,9.603
1.280,0.216,-0.200,0.920,8.901,-0.244,9.664
1.280,0.222,-0.199,0.919,9.221,-1.038,9.405
1.290,0.206,-0.199,0.924,9.649,-0.824,9.618
1.290,0.188,-0.197,0.917,9.405,-1.069,10.489
1.300,0.174,-0.212,0.939,10.046,-2.351,10.473
1.300,0.152,-0.210,0.946,10.885,-3.099,11.863
1.300,0.133,-0.225,0.954,11.878,-3.252,13.450
1.310,0.098,-0.235,0.972,12.504,-3.359,15.664
1.310,0.066,-0.247,0.989,13.756,-3.267,19.069
1.320,0.025,-0.257,1.013,15.450,-2.962,22.992
1.320,-0.005,-0.263,1.032,17.710,-2.916,27.557
1.320,-0.021,-0.272,1.044,20.076,-1.786,32.229
1.330,-0.033,-0.287,1.071,22.916,-1.328,36.931
1.330,-0.051,-0.286,1.075,25.771,-1.359,41.695
1.340,-0.058,-0.283,1.065,28.397,-0.473,46.641
1.340,-0.056,-0.304,1.088,31.389,-0.458,50.489
1.340,-0.073,-0.285,1.065,33.496,-0.489,54.855
1.350,-0.073,-0.287,1.067,35.466,-0.504,58.794
1.350,-0.076,-0.284,1.064,37.160,-0.992,62.489
1.360,-0.092,-0.275,1.079,39.695,-4.229,66.931
1.360,-0.105,-0.263,1.078,42.107,-8.824,71.863
1.370,-0.121,-0.254,1.037,43.389,-12.595,76.763
1.370,-0.107,-0.246,1.047,45.115,-15.267,81.832
1.370,-0.082,-0.247,1.011,45.756,-15.008,86.305
1.380,-0.085,-0.241,1.007,46.366,-16.382,90.672
1.380,-0.073,-0.236,1.001,47.008,-17.664,94.855
1.390,-0.062,-0.228,0.972,46.336,-17.740,98.382
1.390,-0.056,-0.227,0.947,45.420,-17.618,101.115
1.400,-0.051,-0.220,0.933,43.634,-16.626,104.076
1.400,-0.035,-0.219,0.924,41.832,-15.145,106.382
1.400,-0.037,-0.221,0.917,40.229,-15.878,108.305
1.410,-0.030,-0.219,0.918,38.885,-17.573,109.450
1.410,0.005,-0.227,0.923,37.420,-21.084,108.718
1.420,0.032,-0.230,0.957,36.366,-27.634,106.885
1.420,0.066,-0.231,0.987,36.336,-35.496,103.908
1.430,0.076,-0.237,1.001,37.496,-42.336,101.130
1.430,0.089,-0.248,1.013,38.718,-46.534,99.145
1.430,0.075,-0.251,1.011,39.695,-49.481,96.992
1.440,0.051,-0.261,1.028,41.740,-52.061,96.901
1.440,0.031,-0.266,1.049,44.565,-53.618,98.809
1.450,0.020,-0.277,1.052,47.435,-53.847,101.466
1.450,0.024,-0.268,1.045,49.740,-50.565,104.000
1.450,0.035,-0.284,1.033,51.985,-46.061,106.901
1.460,0.045,-0.286,1.026,53.527,-40.626,109.282
1.460,0.062,-0.283,1.011,54.382,-34.473,111.603
1.470,0.068,-0.282,1.003,55.038,-28.336,113.145
1.470,0.064,-0.285,0.988,55.053,-22.748,115.145
1.480,0.060,-0.285,0.998,56.000,-18.916,116.885
1.480,0.043,-0.293,0.987,57.481,-16.702,118.321
1.480,0.047,-0.281,0.979,57.756,-14.229,119.878
1.490,0.051,-0.281,0.972,58.824,-13.420,120.687
1.490,0.049,-0.282,0.951,59.527,-13.374,120.885
1.500,0.047,-0.267,0.940,59.542,-14.702,121.344
1.500,0.061,-0.267,0.901,59.664,-15.618,121.389
1.510,0.047,-0.260,0.877,58.626,-16.870,120.718
1.510,0.023,-0.255,0.869,57.893,-21.298,119.969
1.510,0.012,-0.250,0.862,56.763,-25.771,119.786
1.520,0.000,-0.242,0.840,54.702,-30.290,119.969
1.520,-0.011,-0.249,0.827,52.733,-34.305,120.702
1.530,-0.030,-0.242,0.825,50.458,-37.756,122.473
1.530,-0.029,-0.243,0.823,48.840,-41.313,123.420
1.540,-0.018,-0.238,0.826,47.130,-44.504,124.840
1.540,-0.014,-0.240,0.807,45.573,-45.985,126.321
1.540,-0.011,-0.244,0.808,43.740,-46.214,128.534
1.550,-0.011,-0.248,0.818,42.260,-46.015,131.496
1.550,0.010,-0.246,0.800,39.466,-41.115,135.267
1.560,0.013,-0.259,0.832,38.214,-37.725,139.191
1.560,0.019,-0.257,0.838,36.656,-34.901,143.634
1.570,0.038,-0.264,0.842,35.481,-29.282,146.718
1.570,0.072,-0.274,0.846,33.740,-23.802,149.908
1.570,0.093,-0.280,0.856,32.260,-19.221,152.244
1.580,0.114,-0.297,0.880,31.908,-16.137,153.908
1.580,0.144,-0.304,0.899,32.336,-13.466,154.305
1.590,0.167,-0.303,0.910,33.282,-12.046,153.664
1.590,0.184,-0.314,0.914,34.718,-12.290,152.595
1.600,0.198,-0.312,0.924,36.290,-13.756,150.672
1.600,0.200,-0.320,0.921,37.985,-14.351,149.191
1.600,0.208,-0.288,0.850,38.519,-13.130,147.985
1.610,0.189,-0.326,0.887,40.275,-17.954,146.534
1.610,0.158,-0.316,0.881,42.321,-22.168,145.710
1.620,0.161,-0.318,0.868,43.405,-24.855,144.962
1.620,0.161,-0.310,0.839,43.786,-26.626,145.145
1.630,0.168,-0.317,0.831,43.344,-27.603,145.817
1.630,0.174,-0.314,0.824,43.405,-26.534,146.992
1.630,0.170,-0.328,0.831,43.618,-23.557,149.252
1.640,0.176,-0.335,0.828,43.618,-19.344,150.519
1.640,0.180,-0.332,0.828,43.176,-14.748,152.611
1.650,0.193,-0.337,0.834,42.275,-7.969,154.702
1.650,0.171,-0.348,0.831,42.733,-2.870,157.252
1.660,0.155,-0.367,0.841,44.122,0.962,160.168
1.660,0.160,-0.360,0.839,45.664,5.176,162.992
1.660,0.165,-0.364,0.828,46.687,8.550,165.145
1.670,0.171,-0.368,0.818,47.664,10.443,166.840
1.670,0.157,-0.365,0.799,48.122,9.847,168.015
1.680,0.144,-0.367,0.782,48.244,7.817,169.084
1.680,0.141,-0.371,0.778,48.794,3.237,170.504
1.680,0.144,-0.374,0.770,49.252,-1.954,171.298
1.690,0.178,-0.356,0.753,48.504,-3.420,172.519
1.690,0.189,-0.362,0.733,47.084,-6.962,172.718
1.700,0.234,-0.356,0.727,45.893,-13.374,173.435
1.700,0.256,-0.366,0.724,44.473,-15.695,172.885
1.700,0.252,-0.374,0.735,43.771,-19.252,173.328
1.710,0.261,-0.380,0.756,43.252,-23.863,173.679
1.710,0.288,-0.390,0.750,42.748,-27.053,173.618
1.720,0.321,-0.391,0.756,42.046,-28.382,172.809
1.720,0.340,-0.388,0.754,40.931,-28.809,172.244
1.730,0.380,-0.389,0.753,39.740,-27.832,171.420
1.730,0.406,-0.395,0.785,39.115,-25.069,170.595
1.730,0.413,-0.402,0.797,39.313,-21.817,169.359
1.740,0.413,-0.408,0.806,39.328,-20.153,167.817
1.740,0.398,-0.411,0.816,39.527,-18.611,166.931
1.750,0.391,-0.416,0.828,40.198,-17.725,166.550
1.750,0.365,-0.430,0.849,41.389,-17.710,167.557
1.760,0.337,-0.444,0.879,44.687,-20.183,169.008
1.760,0.319,-0.455,0.918,48.580,-23.023,170.733
1.760,0.332,-0.458,0.916,52.229,-24.000,172.733
1.770,0.343,-0.458,0.896,55.237,-25.374,174.626
1.770,0.372,-0.455,0.901,58.244,-26.885,175.710
1.780,0.422,-0.445,0.887,61.130,-27.939,176.443
1.780,0.475,-0.432,0.858,63.557,-28.168,176.061
1.790,0.527,-0.412,0.823,64.534,-27.145,174.626
1.790,0.583,-0.399,0.799,65.527,-25.496,172.580
1.790,0.606,-0.389,0.772,65.389,-23.450,170.137
1.800,0.631,-0.379,0.761,64.519,-21.466,167.374
1.800,0.644,-0.362,0.741,63.038,-19.786,163.313
1.810,0.660,-0.362,0.714,61.145,-19.466,159.115
1.810,0.646,-0.362,0.714,58.473,-20.427,154.321
1.820,0.610,-0.355,0.714,55.756,-22.275,150.870
1.820,0.576,-0.361,0.747,54.840,-26.366,148.427
1.820,0.545,-0.365,0.758,55.160,-31.847,146.718
1.830,0.532,-0.364,0.769,56.076,-36.947,145.863
1.830,0.553,-0.360,0.774,56.840,-41.450,144.702
1.840,0.579,-0.361,0.766,57.618,-44.031,143.008
1.840,0.604,-0.350,0.751,58.672,-45.160,141.298
1.850,0.596,-0.344,0.739,59.359,-47.038,139.328
1.850,0.591,-0.342,0.741,60.550,-48.794,138.595
1.850,0.589,-0.341,0.748,62.718,-50.183,138.183
1.860,0.606,-0.328,0.731,63.328,-50.855,137.389
1.860,0.638,-0.322,0.695,62.824,-48.794,136.122
1.870,0.668,-0.310,0.672,61.328,-44.153,134.763
1.870,0.674,-0.314,0.698,61.573,-41.924,132.214
1.870,0.679,-0.303,0.691,60.916,-39.466,129.679
1.880,0.689,-0.293,0.670,59.008,-34.718,126.901
1.880,0.672,-0.282,0.669,57.298,-31.786,124.870
1.890,0.653,-0.288,0.692,56.397,-30.198,123.405
1.890,0.639,-0.288,0.701,56.000,-27.618,122.443
1.900,0.636,-0.274,0.692,55.481,-24.580,121.908
1.900,0.635,-0.268,0.689,55.344,-22.122,121.206
1.900,0.637,-0.262,0.677,54.962,-20.779,119.634
1.910,0.632,-0.256,0.661,53.374,-20.305,117.618
1.910,0.626,-0.238,0.655,51.878,-20.290,115.969
1.920,0.630,-0.232,0.665,51.237,-21.328,113.985
1.920,0.639,-0.218,0.661,50.947,-22.397,111.588
1.930,0.642,-0.215,0.635,49.634,-21.954,109.008
1.930,0.646,-0.193,0.617,47.634,-20.779,106.351
1.930,0.641,-0.185,0.614,45.664,-20.336,103.908
1.940,0.631,-0.185,0.622,43.832,-20.076,101.053
1.940,0.614,-0.179,0.615,41.664,-19.145,98.947
1.950,0.591,-0.178,0.618,39.511,-18.687,97.985
1.950,0.566,-0.175,0.615,37.878,-19.130,96.916
1.960,0.561,-0.172,0.616,35.954,-19.771,96.901
1.960,0.568,-0.163,0.619,34.153,-18.809,96.733
1.960,0.564,-0.162,0.596,32.122,-18.260,96.214
1.970,0.570,-0.154,0.586,29.527,-20.290,95.740
1.970,0.565,-0.141,0.592,26.534,-22.641,93.817
1.980,0.575,-0.137,0.588,23.985,-22.595,92.718
1.980,0.592,-0.137,0.608,21.466,-22.901,91.511
1.980,0.650,-0.137,0.639,16.733,-19.450,91.023
1.990,0.751,-0.164,0.694,19.206,-17.832,87.206
1.990,0.664,-0.153,0.653,25.542,-31.527,81.298
2.000,0.679,-0.123,0.569,18.336,-40.076,79.237
2.000,0.718,-0.143,0.610,14.214,-38.534,76.656
2.010,0.698,-0.154,0.657,16.198,-41.786,73.176
2.010,0.638,-0.162,0.651,17.252,-56.015,71.160
2.010,0.685,-0.135,0.618,13.908,-64.153,69.191
2.020,0.717,-0.131,0.594,12.641,-66.855,66.702
2.020,0.788,-0.139,0.615,11.130,-67.771,62.962
2.030,0.781,-0.130,0.644,10.305,-73.282,57.954
2.030,0.799,-0.130,0.640,8.992,-76.366,53.710
2.030,0.821,-0.132,0.640,7.756,-75.130,50.198
2.040,0.821,-0.129,0.650,7.481,-73.695,47.221
2.040,0.832,-0.128,0.658,7.267,-70.885,45.466
2.050,0.837,-0.133,0.680,7.481,-66.870,43.557
2.050,0.874,-0.127,0.688,8.031,-59.145,42.824
2.050,0.897,-0.133,0.694,9.725,-51.634,41.603
2.060,0.888,-0.114,0.666,10.672,-44.901,40.015
2.060,0.881,-0.101,0.650,10.260,-40.870,39.450
2.070,0.905,-0.103,0.630,9.130,-34.015,37.954
2.070,0.916,-0.099,0.634,9.328,-26.794,35.679
2.080,0.912,-0.081,0.587,8.656,-22.824,31.588
2.080,0.887,-0.079,0.594,6.626,-21.893,29.405
2.080,0.874,-0.089,0.594,5.450,-19.328,26.824
2.090,0.856,-0.081,0.606,5.450,-18.183,25.023
2.090,0.857,-0.081,0.602,5.664,-15.221,22.794
2.100,0.856,-0.074,0.597,3.802,-11.756,20.122
2.100,0.826,-0.071,0.587,2.473,-9.282,17.344
2.100,0.820,-0.068,0.571,0.840,-7.069,14.916
2.110,0.814,-0.072,0.565,-0.443,-4.901,12.687
2.110,0.793,-0.069,0.569,-1.969,-2.015,10.595
2.120,0.757,-0.075,0.579,-3.176,0.305,9.557
2.120,0.726,-0.068,0.564,-5.374,1.527,9.328
2.120,0.699,-0.068,0.567,-7.603,2.794,9.053
2.130,0.705,-0.062,0.583,-10.137,5.496,8.519
2.130,0.710,-0.072,0.599,-11.832,9.237,8.046
2.140,0.689,-0.067,0.615,-12.977,11.756,7.237
2.140,0.690,-0.076,0.646,-14.275,14.824,6.550
2.140,0.689,-0.079,0.663,-15.328,19.664,6.336
2.150,0.698,-0.066,0.672,-15.847,25.634,5.588
2.150,0.683,-0.079,0.699,-15.878,29.496,4.748
2.160,0.671,-0.076,0.697,-16.107,32.840,4.260
2.160,0.663,-0.071,0.710,-16.015,36.229,4.351
2.160,0.651,-0.077,0.712,-15.832,40.015,4.336
2.170,0.635,-0.080,0.713,-15.710,42.351,4.198
2.170,0.610,-0.085,0.707,-16.198,42.870,3.557
2.180,0.603,-0.083,0.712,-16.656,42.763,2.901
2.180,0.578,-0.084,0.709,-16.137,40.626,1.985
2.180,0.561,-0.085,0.710,-17.878,38.183,1.282
2.190,0.552,-0.089,0.733,-19.573,37.145,0.687
2.190,0.577,-0.100,0.760,-20.076,38.840,-0.137
2.200,0.569,-0.115,0.778,-18.947,38.855,-1.176
2.200,0.561,-0.114,0.805,-17.725,37.130,-1.374
2.210,0.559,-0.131,0.811,-16.290,35.649,-2.656
2.210,0.568,-0.114,0.810,-15.832,35.359,-3.359
2.210,0.560,-0.117,0.807,-15.557,34.977,-4.015
2.220,0.559,-0.132,0.817,-14.794,35.817,-4.473
2.220,0.555,-0.131,0.835,-13.603,34.489,-5.588
2.230,0.559,-0.136,0.838,-11.847,32.168,-6.473
2.230,0.563,-0.135,0.838,-10.748,30.015,-7.496
2.230,0.567,-0.124,0.808,-10.733,28.519,-8.321
2.240,0.586,-0.133,0.817,-10.427,28.290,-8.870
2.240,0.587,-0.132,0.816,-9.542,29.603,-9.771
2.250,0.578,-0.138,0.802,-8.397,27.664,-10.885
2.250,0.571,-0.131,0.780,-8.412,23.160,-11.939
2.260,0.596,-0.130,0.771,-9.542,22.229,-12.992
2.260,0.629,-0.124,0.771,-9.969,24.000,-14.198
2.260,0.635,-0.121,0.761,-10.672,23.740,-15.695
2.270,0.635,-0.129,0.759,-11.481,22.107,-17.038
2.270,0.652,-0.125,0.739,-12.412,21.695,-18.809
2.280,0.664,-0.126,0.721,-13.405,21.557,-20.641
2.280,0.674,-0.125,0.716,-14.885,22.015,-22.031
2.280,0.676,-0.123,0.711,-15.634,20.824,-24.061
2.290,0.693,-0.130,0.707,-16.366,18.779,-26.321
2.290,0.708,-0.116,0.698,-18.000,17.069,-29.099
2.300,0.721,-0.130,0.687,-19.450,14.687,-32.550
2.300,0.736,-0.118,0.682,-21.420,12.275,-35.985
2.310,0.750,-0.128,0.685,-23.191,10.015,-39.511
2.310,0.767,-0.125,0.683,-24.031,8.443,-42.992
2.310,0.782,-0.123,0.670,-25.420,7.130,-46.244
2.320,0.801,-0.121,0.648,-27.038,5.496,-50.092
2.320,0.821,-0.124,0.634,-28.901,5.832,-53.557
2.330,0.831,-0.124,0.629,-31.282,7.282,-56.901
2.330,0.834,-0.128,0.619,-33.420,9.511,-60.519
2.340,0.842,-0.137,0.613,-35.130,11.267,-63.969
2.340,0.838,-0.134,0.613,-38.031,11.588,-67.328
2.340,0.850,-0.142,0.601,-40.947,12.901,-70.885
2.350,0.866,-0.148,0.592,-44.214,15.191,-74.412
2.350,0.868,-0.156,0.605,-46.916,15.679,-78.626
2.360,0.868,-0.158,0.621,-49.267,14.198,-82.718
2.360,0.861,-0.178,0.620,-51.634,12.046,-87.053
2.370,0.864,-0.178,0.618,-53.710,10.061,-91.176
2.370,0.858,-0.188,0.625,-55.863,7.939,-95.206
2.370,0.861,-0.194,0.625,-57.618,5.954,-98.641
2.380,0.862,-0.201,0.636,-59.511,4.290,-102.183
2.380,0.869,-0.209,0.636,-60.992,3.160,-105.924
2.390,0.880,-0.214,0.626,-62.931,2.611,-109.618
2.390,0.882,-0.215,0.635,-64.916,2.046,-113.710
2.390,0.878,-0.226,0.615,-66.885,2.763,-117.618
2.400,0.874,-0.224,0.608,-69.557,4.214,-121.420
2.400,0.876,-0.235,0.594,-71.634,5.542,-125.023
2.410,0.869,-0.249,0.605,-73.969,6.718,-128.947
2.410,0.860,-0.262,0.610,-75.863,7.634,-133.023
2.420,0.858,-0.272,0.614,-77.573,9.695,-136.061
2.420,0.845,-0.282,0.632,-79.328,12.809,-139.008
2.420,0.823,-0.299,0.645,-80.382,16.473,-141.267
2.430,0.801,-0.330,0.663,-80.137,22.031,-142.626
2.430,0.781,-0.344,0.699,-78.748,28.168,-143.420
2.440,0.727,-0.366,0.726,-74.626,31.679,-143.618
2.440,0.695,-0.370,0.754,-69.954,31.740,-143.237
2.450,0.692,-0.386,0.776,-66.962,33.206,-143.176
2.450,0.719,-0.386,0.782,-63.863,39.679,-143.649
2.460,0.719,-0.390,0.782,-60.733,48.840,-144.061
2.460,0.677,-0.401,0.778,-57.954,54.931,-143.969
2.460,0.645,-0.402,0.767,-55.695,59.084,-143.725
2.470,0.634,-0.400,0.753,-53.496,63.099,-144.275
2.470,0.621,-0.394,0.733,-52.458,66.260,-145.344
2.480,0.605,-0.389,0.726,-51.817,66.992,-146.855
2.480,0.592,-0.376,0.694,-51.908,65.008,-148.351
2.490,0.574,-0.381,0.664,-53.023,61.328,-150.718
2.490,0.560,-0.381,0.659,-55.023,56.580,-153.328
2.490,0.523,-0.384,0.650,-57.191,51.252,-155.557
2.500,0.497,-0.399,0.658,-59.924,46.290,-157.344
2.500,0.468,-0.401,0.672,-62.427,39.435,-158.275
2.510,0.443,-0.415,0.708,-63.053,30.962,-158.168
2.510,0.425,-0.427,0.728,-62.260,22.504,-158.015
2.520,0.429,-0.440,0.780,-61.298,15.481,-157.221
2.520,0.435,-0.444,0.794,-60.519,10.962,-156.672
2.520,0.459,-0.441,0.804,-59.450,7.588,-156.458
2.530,0.461,-0.444,0.799,-58.443,-2.412,-153.740
2.530,0.462,-0.441,0.829,-59.771,-11.496,-154.290
2.540,0.522,-0.435,0.832,-59.573,-6.641,-155.511
2.540,0.551,-0.445,0.841,-56.321,7.679,-156.076
2.550,0.517,-0.436,0.884,-50.824,14.947,-155.924
2.550,0.486,-0.460,0.893,-44.076,18.595,-155.328
2.550,0.476,-0.443,0.862,-39.130,24.595,-155.420
2.560,0.487,-0.441,0.848,-35.954,33.038,-155.649
2.560,0.479,-0.436,0.833,-33.679,40.840,-156.733
2.570,0.465,-0.441,0.827,-31.878,47.649,-157.969
2.570,0.452,-0.433,0.793,-31.221,52.061,-158.977
2.580,0.439,-0.421,0.772,-31.557,53.573,-160.366
2.580,0.417,-0.420,0.754,-32.840,52.336,-161.985
2.590,0.411,-0.407,0.738,-34.977,49.481,-163.832
2.590,0.413,-0.393,0.709,-37.389,45.282,-166.458
2.590,0.417,-0.393,0.696,-39.710,39.756,-169.573
2.600,0.424,-0.380,0.683,-42.183,32.305,-173.557
2.600,0.427,-0.383,0.674,-44.763,24.137,-177.511
2.610,0.427,-0.380,0.655,-47.115,15.725,-180.962
2.610,0.402,-0.372,0.644,-50.412,6.672,-183.282
2.620,0.381,-0.370,0.652,-53.191,-2.275,-184.061
2.620,0.371,-0.377,0.686,-55.267,-9.191,-183.969
2.620,0.377,-0.394,0.700,-56.290,-11.527,-182.809
2.630,0.378,-0.394,0.707,-58.046,-9.527,-180.733
2.630,0.385,-0.414,0.748,-60.382,-4.244,-178.351
2.640,0.387,-0.422,0.766,-61.496,3.527,-175.832
2.640,0.399,-0.433,0.788,-62.458,12.580,-173.405
2.650,0.419,-0.443,0.808,-62.321,23.176,-171.481
2.650,0.446,-0.452,0.806,-62.092,34.473,-170.473
2.650,0.457,-0.447,0.819,-61.771,44.763,-170.412
2.660,0.466,-0.452,0.812,-60.916,53.679,-171.282
2.660,0.454,-0.452,0.802,-59.664,58.916,-173.527
2.670,0.458,-0.458,0.790,-58.763,60.198,-176.244
2.670,0.456,-0.449,0.789,-57.679,58.992,-179.710
2.680,0.424,-0.448,0.776,-56.611,55.191,-183.145
2.680,0.381,-0.450,0.772,-55.863,47.802,-185.969
2.680,0.331,-0.444,0.753,-55.069,37.695,-187.802
2.690,0.307,-0.441,0.748,-54.137,25.634,-188.947
2.690,0.265,-0.435,0.736,-52.916,11.863,-189.481
2.700,0.221,-0.429,0.727,-52.229,-3.908,-188.550
2.700,0.226,-0.414,0.718,-52.565,-17.496,-187.634
2.710,0.253,-0.403,0.698,-54.015,-26.214,-186.550
2.710,0.275,-0.395,0.683,-56.504,-29.389,-185.267
2.720,0.311,-0.396,0.670,-59.740,-28.473,-184.412
2.720,0.329,-0.388,0.655,-64.489,-24.641,-184.702
2.720,0.355,-0.390,0.645,-70.427,-17.481,-185.527
2.730,0.371,-0.391,0.657,-75.679,-9.191,-186.611
2.730,0.357,-0.408,0.674,-80.244,0.092,-188.229
2.740,0.344,-0.419,0.701,-84.000,8.641,-189.496
2.740,0.333,-0.429,0.718,-87.405,16.046,-191.328
2.750,0.316,-0.446,0.748,-89.679,22.366,-193.160
2.750,0.289,-0.449,0.784,-90.305,26.916,-194.153
2.750,0.225,-0.456,0.790,-90.031,28.473,-193.939
2.760,0.162,-0.482,0.817,-89.542,27.130,-192.489
2.760,0.125,-0.476,0.828,-88.321,24.565,-190.076
2.770,0.080,-0.483,0.854,-87.344,20.763,-185.908
2.770,0.142,-0.486,0.900,-88.031,25.924,-177.954
2.780,-0.080,-0.492,0.915,-83.878,15.420,-172.122
2.780,-0.076,-0.484,0.938,-82.855,12.763,-160.397
2.790,-0.062,-0.470,0.972,-80.855,17.160,-149.221
2.790,-0.050,-0.451,0.993,-77.573,23.160,-137.649
2.790,-0.043,-0.458,1.003,-74.672,27.435,-128.183
2.800,0.037,-0.428,0.998,-72.366,36.473,-119.603
2.800,0.097,-0.421,0.994,-69.405,47.374,-113.191
2.810,0.176,-0.403,0.983,-67.435,58.153,-109.069
2.810,0.203,-0.384,0.955,-64.840,68.794,-106.687
2.820,0.206,-0.378,0.943,-62.534,76.611,-105.221
2.820,0.204,-0.373,0.917,-60.947,80.473,-105.145
2.820,0.189,-0.368,0.893,-59.481,81.023,-105.664
2.830,0.161,-0.366,0.864,-58.992,78.198,-106.885
2.830,0.140,-0.354,0.849,-59.237,71.786,-107.924
2.840,0.119,-0.346,0.825,-59.863,63.130,-109.405
2.840,0.101,-0.349,0.841,-60.153,53.863,-109.939
2.850,0.067,-0.357,0.858,-60.321,44.534,-109.160
2.850,0.031,-0.354,0.873,-59.954,36.336,-106.824
2.850,0.027,-0.351,0.887,-59.252,30.351,-103.389
2.860,0.029,-0.353,0.895,-57.450,27.252,-99.389
2.860,0.035,-0.353,0.917,-55.893,26.000,-95.435
2.870,0.054,-0.350,0.923,-54.122,28.015,-91.344
2.870,0.080,-0.340,0.916,-52.519,33.237,-87.405
2.880,0.086,-0.331,0.930,-50.992,39.466,-83.435
2.880,0.103,-0.329,0.931,-49.145,46.000,-79.924
2.880,0.132,-0.324,0.919,-48.031,52.092,-77.252
2.890,0.154,-0.312,0.930,-46.977,58.641,-75.481
2.890,0.158,-0.300,0.925,-45.802,63.573,-73.573
2.900,0.143,-0.294,0.916,-45.008,65.298,-71.466
2.900,0.139,-0.282,0.913,-44.962,64.901,-69.664
2.910,0.155,-0.271,0.894,-44.962,63.710,-67.893
2.910,0.159,-0.264,0.901,-44.962,61.298,-66.595
2.910,0.154,-0.264,0.901,-45.176,57.237,-64.824
2.920,0.164,-0.266,0.907,-44.962,52.794,-63.664
2.920,0.181,-0.271,0.915,-44.870,47.649,-62.718
2.930,0.198,-0.276,0.932,-45.069,43.695,-62.260
2.930,0.208,-0.280,0.939,-44.275,40.656,-62.183
2.940,0.206,-0.292,0.944,-43.328,38.305,-62.443
2.940,0.199,-0.302,0.974,-42.260,35.725,-62.473
2.940,0.199,-0.303,0.975,-40.244,34.901,-62.489
2.950,0.200,-0.309,0.966,-38.550,35.756,-61.893
2.950,0.175,-0.310,0.948,-36.504,36.733,-60.992
2.960,0.156,-0.309,0.943,-34.870,37.954,-59.573
2.960,0.136,-0.305,0.926,-33.099,39.221,-57.908
2.970,0.129,-0.301,0.918,-31.969,40.397,-56.763
2.970,0.130,-0.294,0.900,-31.191,41.710,-55.878
2.970,0.121,-0.295,0.890,-30.305,41.740,-55.573
2.980,0.117,-0.285,0.875,-30.153,40.779,-55.221
2.980,0.099,-0.269,0.856,-29.786,39.008,-54.611
2.990,0.087,-0.266,0.838,-29.969,37.450,-53.908
2.990,0.084,-0.267,0.836,-30.595,34.336,-52.641
3.000,0.074,-0.262,0.830,-31.176,31.740,-51.802
3.000,0.086,-0.266,0.829,-32.015,30.443,-50.718
3.000,0.090,-0.264,0.822,-32.824,28.748,-49.603
3.010,0.098,-0.258,0.818,-33.695,27.313,-48.718
3.010,0.112,-0.262,0.819,-35.160,26.137,-48.031
3.020,0.109,-0.271,0.824,-36.122,25.603,-48.305
3.020,0.098,-0.285,0.844,-37.389,25.374,-48.076
3.030,0.073,-0.299,0.858,-37.359,23.725,-47.481
3.030,0.042,-0.302,0.884,-36.794,21.420,-46.397
3.030,0.008,-0.316,0.905,-35.725,19.237,-44.244
3.040,0.001,-0.330,0.933,-33.847,17.893,-41.634
3.040,-0.004,-0.340,0.952,-31.374,17.924,-38.855
3.050,0.004,-0.338,0.964,-28.870,18.427,-36.168
3.050,0.012,-0.335,0.971,-26.168,18.779,-33.863
3.050,0.027,-0.337,0.982,-23.099,19.298,-32.504
3.060,0.030,-0.339,0.979,-20.336,19.664,-31.695
3.060,0.029,-0.333,0.956,-17.634,19.618,-30.763
3.070,0.021,-0.329,0.962,-15.740,18.351,-29.939
3.070,0.010,-0.326,0.939,-14.260,16.489,-29.008
3.080,0.003,-0.323,0.913,-13.008,14.748,-28.229
3.080,-0.007,-0.311,0.911,-11.924,12.443,-27.435
3.080,-0.007,-0.307,0.912,-11.130,9.160,-26.580
3.090,0.006,-0.308,0.890,-10.687,8.321,-25.878
3.090,0.006,-0.301,0.894,-10.504,8.809,-24.733
3.100,-0.004,-0.299,0.886,-10.458,8.168,-23.496
3.100,0.005,-0.289,0.871,-10.550,8.260,-22.489
3.110,0.012,-0.278,0.867,-11.069,8.931,-21.481
3.110,0.011,-0.276,0.857,-11.832,9.924,-20.779
3.110,0.004,-0.270,0.856,-12.427,10.321,-19.939
3.120,-0.004,-0.271,0.865,-13.542,10.092,-19.176
3.120,-0.018,-0.271,0.872,-13.542,8.351,-18.137
3.130,-0.029,-0.275,0.911,-12.260,5.099,-16.809
3.130,-0.043,-0.268,0.913,-11.496,1.985,-15.344
3.140,-0.034,-0.279,0.927,-10.550,-1.802,-13.527
3.140,-0.023,-0.278,0.949,-9.374,-3.542,-12.107
3.140,-0.004,-0.280,0.953,-7.603,-4.595,-10.519
3.150,-0.000,-0.278,0.956,-5.985,-6.321,-9.084
3.150,0.012,-0.274,0.968,-4.076,-7.221,-7.878
3.160,0.033,-0.282,0.969,-2.229,-7.344,-6.611
3.160,0.048,-0.272,0.971,-0.641,-6.840,-5.832
3.160,0.064,-0.276,0.969,1.588,-6.015,-5.069
3.170,0.049,-0.277,0.977,3.542,-5.450,-4.229
3.170,0.055,-0.269,0.972,5.130,-4.565,-3.328
3.180,0.064,-0.273,0.965,6.672,-3.328,-2.336
3.180,0.075,-0.272,0.954,8.595,-2.275,-1.603
3.180,0.076,-0.267,0.953,10.275,-2.748,-0.992
3.190,0.084,-0.271,0.958,12.107,-4.443,-0.687
3.190,0.099,-0.272,0.955,13.710,-4.015,-0.962
3.200,0.103,-0.269,0.945,15.573,-3.008,-0.260
3.200,0.083,-0.256,0.942,17.878,-3.374,0.443
3.210,0.076,-0.252,0.916,19.725,-4.458,1.405
3.210,0.086,-0.242,0.895,21.023,-4.916,2.214
3.210,0.089,-0.238,0.872,21.450,-4.565,3.206
3.220,0.089,-0.221,0.855,21.588,-4.718,4.382
3.220,0.098,-0.223,0.843,20.916,-5.008,5.924
3.230,0.119,-0.212,0.831,19.420,-4.672,6.901
3.230,0.138,-0.212,0.830,18.046,-3.756,7.481
3.230,0.162,-0.214,0.821,16.931,-2.748,7.740
3.240,0.166,-0.204,0.818,15.664,-1.649,7.649
3.240,0.174,-0.197,0.823,14.458,-1.298,7.664
3.240,0.178,-0.198,0.807,13.893,-0.870,7.969
3.250,0.194,-0.196,0.812,12.718,-0.840,8.489
3.250,0.202,-0.199,0.812,11.374,0.443,8.611
3.260,0.219,-0.191,0.807,10.565,1.878,8.962
3.260,0.229,-0.186,0.815,9.939,2.489,8.855
3.260,0.239,-0.193,0.813,9.405,3.954,8.504
3.270,0.238,-0.186,0.816,9.206,5.405,8.183
3.270,0.239,-0.189,0.803,8.489,6.840,8.137
3.280,0.230,-0.178,0.801,7.725,7.847,8.565
3.280,0.219,-0.181,0.776,6.947,9.038,9.115
3.280,0.217,-0.179,0.781,5.740,10.458,10.000
3.290,0.217,-0.173,0.771,4.519,12.092,11.099
3.290,0.215,-0.171,0.764,2.733,13.939,12.473
3.300,0.206,-0.177,0.755,1.008,15.313,14.092
3.300,0.194,-0.178,0.750,-1.298,16.397,15.786
3.300,0.195,-0.179,0.748,-4.168,17.542,17.588
3.310,0.214,-0.183,0.757,-7.176,20.076,19.756
3.310,0.226,-0.192,0.775,-9.405,23.237,21.740
3.320,0.230,-0.199,0.802,-11.115,25.832,23.588
3.320,0.236,-0.208,0.812,-12.427,28.870,25.450
3.320,0.250,-0.217,0.827,-13.374,32.550,27.282
3.330,0.252,-0.219,0.832,-14.412,37.038,29.511
3.330,0.267,-0.223,0.849,-15.313,40.840,31.282
3.340,0.284,-0.236,0.861,-15.695,43.679,31.618
3.340,0.298,-0.239,0.880,-15.740,44.336,30.794
3.350,0.314,-0.252,0.905,-15.420,42.092,28.962
3.350,0.326,-0.253,0.920,-14.473,37.695,26.290
3.350,0.340,-0.251,0.934,-12.885,31.725,22.947
3.360,0.344,-0.257,0.942,-11.328,23.389,19.359
3.360,0.327,-0.253,0.963,-9.374,12.458,15.038
3.370,0.327,-0.256,0.953,-6.550,1.160,11.359
3.370,0.325,-0.252,0.948,-4.580,-9.160,8.183
3.370,0.333,-0.248,0.939,-2.687,-17.634,5.924
3.380,0.348,-0.242,0.933,-1.527,-23.847,3.832
3.380,0.353,-0.241,0.920,-0.626,-27.802,2.153
3.390,0.364,-0.233,0.916,-0.137,-30.672,0.260
3.390,0.381,-0.238,0.908,-0.092,-30.641,-1.008
3.390,0.401,-0.228,0.893,-0.580,-27.649,-2.244
3.400,0.397,-0.226,0.894,-1.176,-22.977,-3.435
3.400,0.382,-0.229,0.886,-2.504,-18.763,-4.336
3.410,0.359,-0.225,0.878,-4.092,-14.504,-4.901
3.410,0.365,-0.235,0.873,-5.710,-9.954,-5.527
3.420,0.347,-0.239,0.887,-6.901,-4.779,-5.985
3.420,0.327,-0.256,0.893,-7.008,-1.023,-6.015
3.420,0.293,-0.258,0.893,-6.840,1.420,-5.924
3.430,0.274,-0.266,0.891,-6.229,2.275,-5.817
3.430,0.262,-0.276,0.890,-5.298,2.489,-6.092
3.440,0.256,-0.271,0.889,-4.397,1.588,-6.275
3.440,0.243,-0.274,0.880,-3.115,-0.107,-6.885
3.440,0.222,-0.281,0.868,-1.832,-2.809,-7.237
3.450,0.196,-0.284,0.868,-0.473,-6.779,-7.496
3.450,0.181,-0.277,0.852,0.580,-10.718,-7.618
3.460,0.176,-0.284,0.831,0.595,-14.351,-7.542
3.460,0.182,-0.275,0.827,0.504,-16.183,-7.008
3.460,0.183,-0.274,0.822,0.351,-16.397,-6.565
3.470,0.185,-0.266,0.828,-0.137,-16.015,-5.847
3.470,0.197,-0.262,0.825,-0.626,-14.580,-4.977
3.480,0.201,-0.260,0.809,-1.282,-12.244,-4.229
3.480,0.216,-0.252,0.812,-1.802,-9.542,-3.695
3.480,0.225,-0.253,0.811,-2.672,-6.229,-3.389
3.490,0.227,-0.248,0.803,-3.237,-3.206,-2.885
3.490,0.245,-0.247,0.804,-4.000,-0.885,-2.611
3.500,0.245,-0.242,0.802,-4.427,0.641,-2.733
3.500,0.231,-0.240,0.803,-5.374,1.557,-2.931
3.500,0.231,-0.238,0.794,-6.076,0.779,-3.389
3.510,0.236,-0.240,0.794,-7.267,-0.305,-4.153
3.510,0.235,-0.249,0.807,-8.168,-0.321,-5.115
3.520,0.222,-0.251,0.824,-8.275,-1.817,-5.496
3.520,0.201,-0.251,0.821,-7.786,-4.092,-5.847
3.520,0.186,-0.264,0.831,-7.603,-6.260,-5.679
3.530,0.186,-0.263,0.845,-7.603,-7.786,-5.573
3.530,0.182,-0.266,0.851,-7.160,-8.626,-5.206
3.540,0.185,-0.265,0.858,-6.351,-9.084,-4.931
3.540,0.190,-0.264,0.865,-5.695,-9.405,-4.504
3.550,0.189,-0.269,0.870,-4.931,-8.992,-3.832
3.550,0.180,-0.266,0.863,-4.519,-8.015,-2.916
3.550,0.188,-0.267,0.857,-3.985,-6.870,-1.878
3.560,0.194,-0.255,0.864,-3.710,-5.802,-1.221
3.560,0.201,-0.251,0.870,-3.740,-4.840,-1.115
3.570,0.205,-0.253,0.861,-3.267,-3.160,-0.763
3.570,0.213,-0.253,0.865,-2.885,-1.679,-0.382
3.570,0.198,-0.246,0.863,-2.351,-0.992,0.061
3.580,0.194,-0.247,0.857,-1.847,-0.672,0.458
3.580,0.199,-0.240,0.853,-1.405,-0.504,1.328
3.590,0.202,-0.231,0.861,-1.130,0.015,1.954
3.590,0.206,-0.240,0.852,-0.718,0.473,2.626
3.590,0.219,-0.233,0.848,-0.305,1.099,2.916
3.600,0.226,-0.229,0.858,0.137,1.847,3.191
3.600,0.230,-0.226,0.849,0.153,2.931,3.420
3.610,0.233,-0.226,0.850,0.458,3.160,3.573
3.610,0.240,-0.217,0.846,0.336,3.695,3.328
3.610,0.260,-0.215,0.848,-0.076,4.595,2.992
3.620,0.272,-0.218,0.837,-1.099,6.183,2.595
3.620,0.278,-0.211,0.844,-1.908,8.336,2.046
3.620,0.268,-0.213,0.833,-2.153,9.725,1.618
3.630,0.249,-0.213,0.838,-2.489,10.672,1.542
3.630,0.242,-0.212,0.831,-3.084,11.374,1.527
3.640,0.237,-0.219,0.824,-3.771,12.534,1.664
3.640,0.226,-0.215,0.832,-4.076,13.099,1.985
3.640,0.217,-0.219,0.834,-4.366,13.511,2.412
3.650,0.210,-0.218,0.834,-4.473,14.183,2.916
3.650,0.215,-0.225,0.826,-4.443,15.313,3.252
3.660,0.204,-0.222,0.830,-4.550,16.427,3.817
3.660,0.200,-0.225,0.845,-4.489,17.527,4.168
3.660,0.205,-0.233,0.857,-4.275,18.504,4.626
3.670,0.206,-0.235,0.858,-3.557,19.267,5.053
3.670,0.203,-0.249,0.871,-2.794,19.542,5.802
3.680,0.188,-0.247,0.888,-1.573,20.046,6.916
3.680,0.176,-0.252,0.899,0.168,20.565,8.351
3.680,0.165,-0.248,0.900,1.985,21.023,10.122
3.690,0.165,-0.243,0.909,3.649,22.061,11.557
3.690,0.173,-0.250,0.913,5.664,22.763,12.992
3.700,0.175,-0.239,0.896,7.481,23.359,14.656
3.700,0.169,-0.239,0.899,9.176,23.740,16.122
3.700,0.175,-0.229,0.886,10.672,23.771,17.176
3.710,0.194,-0.228,0.883,12.000,23.435,17.573
3.710,0.207,-0.222,0.862,12.840,22.000,17.267
3.720,0.229,-0.217,0.867,12.901,19.557,16.366
3.720,0.244,-0.210,0.852,13.115,17.710,14.809
3.720,0.249,-0.213,0.847,13.176,15.695,13.435
3.730,0.249,-0.207,0.850,12.992,14.183,11.695
3.730,0.251,-0.211,0.830,12.931,12.107,9.557
3.740,0.239,-0.204,0.818,12.595,9.282,7.725
3.740,0.224,-0.203,0.816,11.985,5.969,6.168
3.740,0.203,-0.207,0.800,11.252,2.198,4.870
3.750,0.184,-0.206,0.793,10.214,-1.939,3.817
3.750,0.161,-0.208,0.806,9.237,-6.611,3.435
3.760,0.147,-0.207,0.806,8.244,-10.397,3.298
3.760,0.149,-0.202,0.798,7.115,-13.450,3.618
3.760,0.151,-0.201,0.800,6.031,-15.466,4.061
3.770,0.160,-0.202,0.815,4.809,-16.870,4.580
3.770,0.171,-0.198,0.809,3.527,-16.733,4.947
3.780,0.194,-0.202,0.820,2.336,-15.740,5.221
3.780,0.211,-0.197,0.831,0.824,-12.870,5.191
3.780,0.223,-0.201,0.830,-0.641,-9.817,5.130
3.790,0.233,-0.204,0.840,-1.466,-6.443,4.947
3.790,0.239,-0.207,0.848,-2.916,-3.405,4.748
3.800,0.242,-0.206,0.859,-3.863,-0.031,4.672
3.800,0.249,-0.206,0.867,-4.901,2.870,4.641
3.800,0.245,-0.208,0.878,-5.649,5.405,4.489
3.810,0.242,-0.220,0.889,-5.954,6.748,4.168
3.810,0.233,-0.232,0.896,-6.000,8.015,4.000
3.820,0.235,-0.240,0.918,-5.389,8.870,3.817
3.820,0.229,-0.241,0.927,-4.321,9.511,3.618
3.820,0.222,-0.260,0.930,-3.252,10.198,3.206
3.830,0.216,-0.253,0.921,-1.985,10.183,2.565
3.830,0.212,-0.259,0.926,-1.053,9.466,2.076
3.840,0.210,-0.255,0.924,-0.565,8.519,1.466
3.840,0.211,-0.257,0.910,-0.031,7.664,0.977
3.840,0.208,-0.255,0.910,0.015,6.290,0.321
3.850,0.203,-0.257,0.901,0.076,4.794,-0.366
3.850,0.198,-0.252,0.895,-0.122,4.290,-0.855
3.860,0.183,-0.256,0.886,-0.626,3.649,-0.992
3.860,0.182,-0.252,0.882,-1.023,3.511,-1.176
3.860,0.176,-0.256,0.885,-1.389,3.435,-0.840
3.870,0.163,-0.264,0.893,-0.992,3.511,-0.504
3.870,0.156,-0.260,0.893,-0.901,3.435,0.305
3.880,0.147,-0.260,0.887,-0.901,3.221,1.130
3.880,0.147,-0.267,0.880,-0.947,2.977,1.969
3.880,0.157,-0.264,0.877,-0.809,2.626,2.656
3.890,0.152,-0.257,0.877,-1.023,2.626,3.389
3.890,0.156,-0.257,0.865,-1.344,2.412,3.878
3.890,0.158,-0.255,0.869,-1.771,1.527,4.321
3.900,0.169,-0.253,0.864,-2.244,0.137,4.977
3.900,0.179,-0.249,0.863,-3.130,-1.069,5.374
3.910,0.191,-0.248,0.861,-3.679,-1.588,5.618
3.910,0.205,-0.256,0.868,-4.244,-1.954,5.359
3.910,0.220,-0.249,0.877,-4.702,-2.763,5.267
3.920,0.231,-0.249,0.881,-4.901,-3.023,4.931
3.920,0.236,-0.255,0.888,-4.840,-3.084,4.504
3.930,0.241,-0.250,0.881,-4.672,-2.656,4.076
3.930,0.246,-0.253,0.885,-4.397,-2.168,3.847
3.930,0.246,-0.254,0.904,-4.092,-1.450,3.618
3.940,0.250,-0.248,0.902,-3.511,-0.992,3.389
3.940,0.261,-0.248,0.919,-3.237,-0.351,2.901
3.950,0.264,-0.244,0.907,-2.672,0.336,2.427
3.950,0.267,-0.238,0.900,-2.580,1.466,2.031
3.950,0.271,-0.242,0.906,-2.122,0.901,1.725
3.960,0.272,-0.241,0.887,-1.832,2.198,0.901
3.960,0.260,-0.237,0.876,-1.939,2.290,0.534
3.970,0.251,-0.236,0.874,-2.229,1.191,-0.122
3.970,0.257,-0.232,0.865,-2.458,0.550,-0.855
3.970,0.255,-0.230,0.857,-3.099,0.641,-1.313
3.980,0.251,-0.229,0.852,-3.740,0.397,-1.603
3.980,0.232,-0.233,0.852,-4.321,-0.916,-1.863
3.990,0.228,-0.236,0.857,-5.023,-2.031,-2.153
3.990,0.215,-0.234,0.857,-5.374,-2.473,-1.908
3.990,0.217,-0.240,0.871,-5.695,-2.977,-1.664
4.000,0.222,-0.243,0.865,-5.267,-3.084,-1.634
4.000,0.216,-0.244,0.871,-4.962,-2.641,-1.481
4.010,0.220,-0.242,0.884,-4.580,-2.183,-1.313
4.010,0.217,-0.241,0.874,-4.626,-1.740,-1.160
4.010,0.219,-0.240,0.880,-4.702,-1.344,-1.069
4.020,0.219,-0.237,0.868,-4.733,-0.824,-1.252
4.020,0.223,-0.236,0.870,-4.779,-0.290,-1.359
4.030,0.221,-0.231,0.877,-4.916,0.229,-1.466
4.030,0.221,-0.233,0.879,-4.977,-0.489,-1.405
4.030,0.217,-0.235,0.875,-4.489,-1.450,-1.618
4.040,0.209,-0.231,0.876,-4.397,-2.214,-1.832
4.040,0.204,-0.232,0.889,-4.107,-2.641,-2.061
4.050,0.209,-0.234,0.885,-3.817,-3.038,-2.122
4.050,0.212,-0.231,0.882,-3.359,-3.130,-2.214
4.060,0.204,-0.238,0.885,-3.038,-2.916,-2.244
4.060,0.207,-0.231,0.885,-2.672,-2.214,-2.366
4.060,0.197,-0.236,0.881,-2.275,-1.435,-2.214
4.070,0.196,-0.241,0.877,-1.771,-0.656,-2.015
4.070,0.183,-0.235,0.884,-1.267,-0.061,-1.969
4.080,0.185,-0.240,0.889,-0.412,0.473,-1.634
