Time,acce_x,acce_y,acce_z,gyro_x,gyro_y,gyro_z
0.000,0.252,-0.270,0.856,-3.008,-1.038,-1.435
0.000,0.251,-0.279,0.856,-2.824,-1.863,-1.267
0.010,0.240,-0.277,0.863,-3.084,-2.534,-1.221
0.010,0.240,-0.280,0.857,-3.008,-3.466,-0.870
0.010,0.238,-0.274,0.867,-2.947,-3.924,-0.275
0.020,0.238,-0.277,0.869,-2.626,-4.122,0.168
0.020,0.239,-0.274,0.866,-2.275,-3.954,0.702
0.020,0.256,-0.276,0.875,-2.107,-3.740,0.626
0.030,0.256,-0.276,0.859,-2.046,-3.069,0.855
0.030,0.261,-0.276,0.866,-1.847,-2.611,0.901
0.030,0.273,-0.277,0.861,-1.893,-1.603,1.130
0.040,0.277,-0.273,0.876,-1.771,-0.443,1.221
0.040,0.274,-0.269,0.881,-1.496,0.153,1.176
0.040,0.273,-0.272,0.886,-0.992,0.779,1.450
0.050,0.288,-0.276,0.881,-0.656,1.634,1.710
0.050,0.280,-0.274,0.874,-0.214,2.244,1.695
0.060,0.282,-0.275,0.884,0.580,2.336,1.466
0.060,0.277,-0.267,0.876,1.115,2.122,1.588
0.060,0.278,-0.264,0.870,1.420,1.847,1.542
0.070,0.281,-0.265,0.868,1.481,1.771,1.496
0.070,0.278,-0.267,0.860,1.740,1.374,1.420
0.070,0.280,-0.265,0.851,2.031,0.840,1.344
0.080,0.276,-0.264,0.841,2.046,0.244,1.252
0.080,0.271,-0.255,0.836,2.168,0.153,1.206
0.090,0.274,-0.259,0.834,2.275,-0.107,1.267
0.090,0.277,-0.257,0.832,2.183,-0.550,1.237
0.090,0.281,-0.250,0.828,1.969,-0.550,1.160
0.100,0.276,-0.258,0.823,1.359,-0.687,1.084
0.100,0.285,-0.254,0.812,0.962,-0.718,1.099
0.110,0.283,-0.249,0.819,0.519,-1.374,0.870
0.110,0.285,-0.247,0.819,-0.031,-1.634,0.641
0.110,0.289,-0.249,0.827,-0.473,-2.290,0.458
0.120,0.288,-0.246,0.826,-0.855,-3.435,0.076
0.120,0.298,-0.249,0.819,-0.870,-4.137,-0.092
0.130,0.295,-0.251,0.812,-1.221,-4.794,-0.443
0.130,0.293,-0.253,0.824,-1.405,-5.359,-0.794
0.130,0.300,-0.247,0.813,-1.740,-6.031,-1.023
0.140,0.301,-0.241,0.813,-2.015,-6.000,-1.496
0.140,0.310,-0.249,0.820,-2.336,-5.893,-1.847
0.150,0.301,-0.251,0.820,-2.656,-6.336,-2.092
0.150,0.305,-0.252,0.822,-2.702,-6.305,-2.473
0.150,0.307,-0.253,0.812,-3.237,-5.802,-2.870
0.160,0.295,-0.261,0.817,-3.649,-5.725,-2.962
0.160,0.293,-0.259,0.809,-3.710,-5.420,-3.435
0.170,0.287,-0.266,0.819,-3.969,-5.313,-2.992
0.170,0.285,-0.265,0.828,-4.046,-4.779,-3.053
0.170,0.282,-0.272,0.817,-4.015,-4.076,-2.687
0.180,0.292,-0.275,0.828,-3.969,-3.267,-2.550
0.180,0.283,-0.265,0.829,-4.061,-2.351,-2.321
0.190,0.276,-0.267,0.831,-4.092,-1.450,-2.031
0.190,0.276,-0.277,0.823,-4.198,-0.779,-1.802
0.190,0.281,-0.269,0.842,-4.351,0.092,-1.664
0.200,0.293,-0.278,0.837,-4.412,1.237,-1.939
0.200,0.288,-0.284,0.846,-3.802,1.832,-2.260
0.210,0.273,-0.284,0.853,-3.267,1.740,-2.275
0.210,0.274,-0.281,0.854,-3.130,2.015,-1.893
0.210,0.274,-0.282,0.847,-2.611,2.443,-1.695
0.220,0.263,-0.281,0.840,-2.229,2.137,-1.603
0.220,0.257,-0.277,0.844,-1.847,1.802,-1.374
0.230,0.253,-0.282,0.837,-1.786,1.695,-1.237
0.230,0.263,-0.280,0.839,-1.908,1.359,-1.038
0.230,0.252,-0.280,0.833,-1.817,1.084,-0.977
0.240,0.253,-0.278,0.830,-2.107,0.718,-0.672
0.240,0.257,-0.281,0.827,-2.229,0.504,-0.550
0.250,0.256,-0.276,0.829,-2.412,-0.031,-0.183
0.250,0.261,-0.287,0.822,-2.504,-0.489,-0.198
0.250,0.255,-0.283,0.838,-2.351,-0.733,0.000
0.260,0.253,-0.282,0.828,-2.489,-0.809,0.153
0.260,0.260,-0.277,0.834,-2.366,-0.656,0.504
0.270,0.261,-0.282,0.826,-2.061,-0.489,0.748
0.270,0.258,-0.280,0.836,-1.985,-0.489,1.374
0.270,0.266,-0.278,0.834,-1.756,-0.031,1.496
0.280,0.281,-0.272,0.830,-1.740,0.336,1.649
0.280,0.282,-0.272,0.830,-1.908,0.687,1.786
0.290,0.279,-0.267,0.831,-2.061,0.427,1.481
0.290,0.279,-0.263,0.829,-2.229,0.198,1.435
0.290,0.290,-0.268,0.830,-2.458,-0.137,1.008
0.300,0.301,-0.266,0.842,-2.489,0.366,0.840
0.300,0.291,-0.267,0.840,-2.443,0.550,1.053
0.310,0.289,-0.271,0.848,-2.519,0.504,0.977
0.310,0.292,-0.267,0.848,-2.504,1.237,1.115
0.310,0.290,-0.264,0.847,-2.412,1.511,1.252
0.320,0.293,-0.264,0.844,-2.290,1.435,1.191
0.320,0.296,-0.262,0.847,-2.076,1.298,0.901
0.330,0.299,-0.263,0.851,-1.679,1.084,0.580
0.330,0.294,-0.262,0.856,-1.481,0.473,0.458
0.330,0.297,-0.260,0.854,-1.313,-0.183,0.260
0.340,0.306,-0.260,0.840,-1.038,-0.733,-0.092
0.340,0.306,-0.260,0.851,-1.084,-0.672,-0.229
0.350,0.304,-0.258,0.840,-0.992,-0.733,-0.305
0.350,0.302,-0.252,0.843,-0.931,-0.962,-0.519
0.350,0.307,-0.255,0.853,-1.130,-0.809,-0.824
0.360,0.309,-0.255,0.839,-1.481,-0.443,-0.992
0.360,0.312,-0.264,0.841,-1.771,-0.351,-1.191
0.370,0.303,-0.261,0.843,-2.305,-1.267,-1.710
0.370,0.306,-0.259,0.845,-2.321,-1.282,-1.954
0.370,0.300,-0.261,0.844,-2.427,-0.947,-1.939
0.380,0.297,-0.258,0.841,-2.519,-1.099,-2.092
0.380,0.293,-0.260,0.837,-2.489,-1.405,-2.168
0.390,0.294,-0.258,0.848,-2.672,-0.595,-2.031
0.390,0.307,-0.252,0.840,-2.855,0.366,-2.000
0.390,0.301,-0.264,0.833,-2.626,1.252,-1.878
0.400,0.295,-0.251,0.829,-2.977,1.908,-1.893
0.400,0.296,-0.257,0.834,-3.191,2.748,-1.847
0.410,0.281,-0.253,0.843,-3.069,2.534,-1.832
0.410,0.287,-0.256,0.852,-3.221,1.725,-2.092
0.410,0.289,-0.250,0.853,-3.053,1.450,-2.321
0.420,0.284,-0.260,0.853,-2.947,1.420,-2.382
0.420,0.281,-0.252,0.856,-2.870,0.702,-2.458
0.430,0.276,-0.260,0.852,-2.824,0.214,-2.595
0.430,0.273,-0.263,0.844,-2.443,-0.153,-2.504
0.430,0.274,-0.264,0.846,-2.611,-0.290,-2.351
0.440,0.271,-0.270,0.840,-2.443,-0.519,-2.473
0.440,0.266,-0.268,0.843,-2.504,-0.611,-2.351
0.450,0.256,-0.264,0.848,-2.366,-0.519,-2.458
0.450,0.263,-0.267,0.850,-2.595,-0.840,-2.412
0.450,0.257,-0.268,0.844,-2.641,-0.885,-2.183
0.460,0.264,-0.267,0.855,-2.763,-0.076,-2.031
0.460,0.261,-0.271,0.854,-3.023,0.107,-1.786
0.470,0.259,-0.267,0.849,-2.870,0.351,-1.786
0.470,0.262,-0.270,0.839,-2.779,0.122,-1.527
0.480,0.260,-0.267,0.844,-2.870,0.656,-1.389
0.480,0.264,-0.267,0.844,-2.748,1.405,-1.344
0.480,0.266,-0.273,0.845,-3.130,2.076,-0.916
0.490,0.262,-0.273,0.846,-2.824,2.427,-0.748
0.490,0.265,-0.271,0.849,-3.099,2.519,-0.290
0.500,0.271,-0.272,0.854,-3.069,2.931,-0.489
0.500,0.269,-0.276,0.861,-2.458,2.916,-0.824
0.500,0.265,-0.277,0.859,-2.305,2.137,-0.763
0.510,0.254,-0.279,0.854,-1.893,1.267,-0.718
0.510,0.247,-0.279,0.851,-1.481,0.550,-0.824
0.520,0.255,-0.284,0.844,-1.405,-0.550,-0.901
0.520,0.253,-0.281,0.845,-1.573,-1.817,-0.901
0.520,0.253,-0.281,0.845,-1.282,-2.550,-0.855
0.530,0.249,-0.280,0.853,-1.221,-2.992,-0.656
0.530,0.250,-0.280,0.859,-1.221,-3.237,-0.214
0.540,0.253,-0.282,0.860,-0.901,-3.008,0.122
0.540,0.259,-0.283,0.863,-0.229,-2.366,0.382
0.540,0.268,-0.280,0.854,0.214,-2.168,0.366
0.550,0.272,-0.279,0.852,0.504,-1.817,0.504
0.550,0.274,-0.279,0.856,0.458,-1.695,0.214
0.560,0.281,-0.279,0.842,0.229,-1.252,0.366
0.560,0.275,-0.276,0.841,0.214,-0.977,0.305
0.560,0.272,-0.270,0.830,0.031,-0.992,0.519
0.570,0.275,-0.266,0.826,-0.473,-1.038,0.672
0.570,0.276,-0.269,0.841,-0.534,-0.962,1.069
0.570,0.274,-0.275,0.835,-0.550,-0.718,1.023
0.580,0.281,-0.270,0.832,-0.641,-0.458,1.298
0.580,0.284,-0.266,0.837,-0.779,-0.183,1.206
0.590,0.277,-0.275,0.835,-0.672,-0.076,1.252
0.590,0.284,-0.278,0.827,-0.427,0.061,0.962
0.590,0.281,-0.270,0.831,-0.382,0.107,1.023
0.600,0.288,-0.264,0.831,-0.336,-0.092,1.237
0.600,0.295,-0.261,0.827,-0.702,0.580,0.977
0.610,0.301,-0.260,0.830,-1.053,0.855,0.885
0.610,0.307,-0.258,0.833,-1.206,1.511,0.748
0.610,0.307,-0.262,0.816,-1.481,2.107,0.412
0.620,0.303,-0.262,0.810,-1.771,2.183,0.092
0.620,0.298,-0.260,0.827,-2.137,2.489,-0.122
0.630,0.287,-0.265,0.831,-2.092,2.092,-0.473
0.630,0.281,-0.269,0.835,-2.260,1.069,-0.656
0.630,0.273,-0.271,0.847,-2.336,0.000,-0.794
0.640,0.274,-0.271,0.843,-2.244,-0.901,-0.443
0.640,0.277,-0.271,0.847,-2.000,-1.603,-0.412
0.650,0.279,-0.274,0.847,-1.786,-2.153,-0.244
0.650,0.278,-0.270,0.843,-1.802,-2.580,-0.168
0.650,0.284,-0.270,0.842,-1.710,-2.611,-0.275
0.660,0.292,-0.269,0.847,-1.511,-2.321,-0.046
0.660,0.294,-0.270,0.844,-1.634,-1.282,-0.244
0.670,0.293,-0.270,0.843,-1.527,-0.718,-0.046
0.670,0.286,-0.272,0.844,-1.389,-0.382,-0.015
0.670,0.288,-0.265,0.848,-1.191,-0.076,-0.153
0.680,0.298,-0.264,0.847,-0.962,0.214,-0.260
0.680,0.295,-0.262,0.849,-0.916,0.519,-0.565
0.690,0.297,-0.266,0.839,-0.855,0.885,-0.702
0.690,0.303,-0.257,0.841,-1.099,1.603,-0.947
0.690,0.294,-0.262,0.833,-1.282,2.092,-1.038
0.700,0.289,-0.264,0.833,-1.481,2.351,-1.099
0.700,0.288,-0.264,0.843,-1.603,2.626,-1.145
0.710,0.285,-0.268,0.842,-1.649,3.282,-0.947
0.710,0.275,-0.271,0.840,-1.832,3.435,-1.115
0.710,0.269,-0.271,0.843,-1.756,3.191,-1.008
0.720,0.264,-0.271,0.842,-1.817,2.809,-0.977
0.720,0.258,-0.274,0.843,-1.939,2.427,-0.794
0.730,0.260,-0.282,0.844,-1.985,2.031,-0.718
0.730,0.260,-0.275,0.852,-1.817,1.832,-0.748
0.730,0.258,-0.277,0.850,-1.557,1.389,-0.687
0.740,0.257,-0.273,0.853,-1.069,0.840,-0.366
0.740,0.250,-0.272,0.859,-0.519,0.870,0.000
0.750,0.243,-0.276,0.851,-0.382,0.550,0.443
0.750,0.239,-0.279,0.856,0.061,0.305,0.977
0.750,0.243,-0.279,0.854,0.321,-0.550,1.359
0.760,0.249,-0.272,0.856,0.351,-0.626,1.527
0.760,0.260,-0.275,0.859,0.519,-1.053,1.557
0.770,0.258,-0.274,0.854,0.595,-1.435,1.740
0.770,0.255,-0.269,0.857,0.580,-1.588,1.863
0.770,0.253,-0.271,0.849,0.779,-1.588,2.122
0.780,0.251,-0.268,0.849,1.115,-1.344,2.366
0.780,0.255,-0.260,0.849,1.115,-0.733,3.084
0.790,0.257,-0.263,0.846,0.992,-0.107,3.496
0.790,0.262,-0.267,0.850,0.794,0.198,3.496
0.790,0.264,-0.266,0.844,0.931,0.855,3.466
0.800,0.258,-0.271,0.849,0.779,0.947,3.496
0.800,0.259,-0.273,0.851,0.779,1.176,3.649
0.800,0.247,-0.278,0.857,1.053,0.779,3.771
0.810,0.247,-0.271,0.859,1.252,0.565,3.954
0.810,0.240,-0.272,0.863,1.740,0.214,4.336
0.820,0.245,-0.276,0.873,2.076,-0.611,4.458
0.820,0.245,-0.272,0.865,2.580,-0.702,4.687
0.820,0.242,-0.274,0.862,2.916,-0.947,5.069
0.830,0.237,-0.273,0.854,3.374,-1.176,5.282
0.830,0.234,-0.268,0.852,3.466,-1.450,5.618
0.840,0.233,-0.268,0.853,3.328,-1.160,6.000
0.840,0.229,-0.266,0.846,3.252,-1.511,6.824
0.840,0.228,-0.264,0.861,3.237,-2.031,7.282
0.850,0.231,-0.267,0.861,3.130,-1.603,7.847
0.850,0.221,-0.269,0.854,3.084,-1.420,8.702
0.860,0.209,-0.266,0.857,3.282,-1.557,9.588
0.860,0.204,-0.275,0.863,3.252,-1.328,10.733
0.860,0.193,-0.278,0.872,3.374,-1.038,11.893
0.870,0.193,-0.282,0.877,3.725,-1.237,13.069
0.870,0.191,-0.280,0.875,4.214,-1.405,14.489
0.880,0.188,-0.282,0.901,4.626,-0.779,15.863
0.880,0.189,-0.284,0.899,5.466,-0.519,17.267
0.880,0.196,-0.285,0.894,5.756,-0.687,18.122
0.890,0.194,-0.291,0.897,6.305,-1.298,18.550
0.890,0.193,-0.291,0.895,6.672,-1.313,19.466
0.900,0.187,-0.287,0.895,7.053,-1.710,20.122
0.900,0.176,-0.294,0.904,7.496,-2.641,20.855
0.900,0.180,-0.299,0.907,8.122,-3.664,21.282
0.910,0.174,-0.299,0.914,8.580,-5.237,21.863
0.910,0.176,-0.295,0.930,9.328,-6.916,21.924
0.920,0.180,-0.305,0.927,9.557,-8.153,21.756
0.920,0.174,-0.307,0.942,10.015,-10.351,21.267
0.920,0.167,-0.308,0.953,11.038,-12.824,20.519
0.930,0.151,-0.310,0.964,12.168,-15.084,20.260
0.930,0.135,-0.326,0.978,13.756,-17.634,20.137
0.940,0.131,-0.336,0.990,15.725,-19.756,20.336
0.940,0.116,-0.340,1.000,17.542,-20.214,20.824
0.940,0.107,-0.339,1.015,19.130,-20.229,22.198
0.950,0.101,-0.345,1.017,20.672,-19.954,23.618
0.950,0.097,-0.342,1.037,22.305,-18.550,25.573
0.960,0.093,-0.347,1.042,23.649,-16.931,27.786
0.960,0.097,-0.344,1.041,25.084,-14.611,30.031
0.960,0.103,-0.345,1.055,26.260,-11.374,32.183
0.970,0.098,-0.344,1.062,27.740,-8.137,34.489
0.970,0.098,-0.347,1.069,29.557,-5.405,36.718
0.980,0.094,-0.340,1.070,31.237,-2.779,39.053
0.980,0.090,-0.346,1.071,33.237,-0.046,41.450
0.990,0.084,-0.348,1.082,35.160,2.550,44.351
0.990,0.058,-0.362,1.084,37.359,4.000,47.405
0.990,0.029,-0.363,1.085,40.015,5.069,51.069
1.000,0.001,-0.363,1.078,42.412,5.649,55.145
1.000,-0.020,-0.368,1.076,45.160,4.595,58.931
1.010,-0.046,-0.359,1.050,47.740,2.260,62.916
1.010,-0.058,-0.355,1.034,49.435,-0.153,66.962
1.010,-0.071,-0.350,1.011,50.931,-3.282,70.901
1.020,-0.082,-0.346,0.994,51.924,-7.481,74.534
1.020,-0.086,-0.342,0.985,52.641,-12.412,77.786
1.030,-0.087,-0.345,0.970,53.389,-17.481,80.992
1.030,-0.074,-0.334,0.959,53.817,-22.290,84.336
1.030,-0.067,-0.328,0.945,53.802,-26.427,87.115
1.040,-0.058,-0.327,0.933,53.695,-30.198,89.969
1.040,-0.032,-0.321,0.931,53.863,-33.405,92.321
1.050,-0.014,-0.329,0.937,53.908,-36.290,93.863
1.050,0.017,-0.325,0.933,54.321,-38.901,95.374
1.060,0.043,-0.319,0.944,54.565,-40.885,96.687
1.060,0.055,-0.313,0.950,54.901,-42.290,97.298
1.060,0.068,-0.317,0.940,54.718,-43.374,97.573
1.070,0.083,-0.324,0.936,54.718,-43.802,99.588
1.070,0.083,-0.321,0.937,54.733,-43.725,100.702
1.080,0.088,-0.320,0.938,54.870,-42.458,102.534
1.080,0.096,-0.327,0.950,55.298,-39.786,104.198
1.090,0.077,-0.335,0.938,56.611,-36.672,106.824
1.090,0.064,-0.334,0.950,57.527,-32.565,109.221
1.090,0.049,-0.342,0.935,58.336,-28.229,112.656
1.100,0.034,-0.325,0.917,59.160,-23.450,116.748
1.100,0.030,-0.331,0.898,59.527,-17.695,121.038
1.110,0.002,-0.321,0.873,59.191,-12.931,125.176
1.110,-0.014,-0.325,0.848,58.611,-9.542,129.160
1.120,-0.031,-0.318,0.840,57.481,-7.679,133.115
1.120,-0.036,-0.314,0.824,55.863,-8.275,136.595
1.120,-0.046,-0.313,0.818,54.122,-9.863,139.695
1.130,-0.041,-0.315,0.817,52.260,-12.504,142.901
1.130,-0.037,-0.305,0.806,50.565,-17.557,145.802
1.140,-0.011,-0.308,0.815,49.221,-24.061,147.084
1.140,0.034,-0.306,0.830,48.519,-30.824,147.634
1.150,0.075,-0.307,0.870,48.885,-38.427,147.053
1.150,0.094,-0.324,0.915,50.504,-48.244,145.771
1.150,0.174,-0.323,0.908,50.733,-51.420,142.687
1.160,0.249,-0.318,0.890,50.489,-50.137,139.008
1.160,0.280,-0.318,0.897,50.443,-49.099,135.130
1.170,0.288,-0.320,0.927,52.015,-46.840,131.618
1.170,0.296,-0.317,0.934,54.015,-44.244,128.611
1.180,0.302,-0.319,0.924,55.496,-40.015,125.878
1.180,0.312,-0.309,0.915,56.443,-33.954,124.015
1.180,0.295,-0.310,0.905,56.779,-27.573,122.366
1.190,0.280,-0.312,0.904,57.435,-22.763,120.824
1.190,0.265,-0.311,0.907,57.618,-18.901,119.405
1.200,0.276,-0.338,0.902,56.489,-10.092,119.557
1.200,0.306,-0.305,0.943,57.802,4.458,120.992
1.200,0.202,-0.320,0.938,61.557,3.832,120.977
1.210,0.188,-0.303,0.854,59.756,1.191,121.786
1.210,0.188,-0.292,0.836,56.718,5.435,122.931
1.220,0.195,-0.306,0.852,57.817,11.099,124.794
1.220,0.122,-0.309,0.859,58.656,5.588,125.634
1.230,0.109,-0.302,0.823,57.466,-2.321,126.901
1.230,0.144,-0.292,0.800,55.435,-4.824,128.214
1.230,0.163,-0.290,0.803,53.908,-6.153,129.588
1.240,0.167,-0.298,0.826,53.496,-9.634,130.229
1.240,0.170,-0.300,0.835,53.191,-13.847,130.824
1.250,0.181,-0.308,0.844,53.267,-18.214,130.840
1.250,0.209,-0.313,0.833,53.069,-20.382,130.977
1.250,0.227,-0.313,0.841,53.954,-23.328,130.565
1.260,0.230,-0.320,0.830,54.198,-26.351,129.863
1.260,0.247,-0.309,0.810,54.046,-29.344,129.344
1.270,0.250,-0.303,0.782,53.282,-31.176,128.687
1.270,0.256,-0.306,0.792,52.321,-31.282,128.443
1.280,0.254,-0.310,0.811,51.298,-29.344,129.252
1.280,0.275,-0.309,0.814,51.206,-25.389,130.779
1.280,0.281,-0.308,0.802,50.198,-18.931,133.237
1.290,0.286,-0.311,0.795,48.947,-11.252,135.664
1.290,0.298,-0.310,0.798,47.878,-2.916,137.710
1.300,0.312,-0.315,0.809,46.901,4.214,138.840
1.300,0.312,-0.320,0.812,45.542,9.573,139.115
1.310,0.306,-0.331,0.814,44.519,12.962,138.794
1.310,0.302,-0.332,0.833,43.649,14.977,138.733
1.310,0.288,-0.342,0.861,43.786,15.282,138.718
1.320,0.265,-0.337,0.878,44.855,12.656,138.840
1.320,0.281,-0.342,0.885,46.000,9.817,138.702
1.330,0.265,-0.352,0.865,46.977,6.595,138.244
1.330,0.267,-0.355,0.879,48.168,2.351,137.435
1.330,0.260,-0.360,0.867,49.252,-1.374,136.504
1.340,0.245,-0.359,0.869,50.611,-6.458,136.122
1.340,0.235,-0.350,0.875,51.832,-10.992,136.153
1.350,0.235,-0.355,0.858,53.298,-14.168,136.153
1.350,0.240,-0.346,0.853,53.542,-16.351,136.519
1.360,0.251,-0.338,0.845,53.924,-16.473,136.702
1.360,0.262,-0.331,0.835,53.710,-14.153,137.008
1.360,0.264,-0.330,0.831,53.389,-10.244,137.252
1.370,0.262,-0.327,0.814,52.962,-6.656,137.557
1.370,0.246,-0.322,0.820,51.664,-3.527,138.183
1.380,0.232,-0.319,0.816,50.595,-0.641,138.916
1.380,0.240,-0.317,0.807,49.634,2.015,139.542
1.380,0.230,-0.323,0.811,48.824,3.908,140.275
1.390,0.226,-0.328,0.815,47.939,5.481,140.702
1.390,0.214,-0.330,0.807,46.901,7.252,140.763
1.400,0.208,-0.332,0.813,45.985,6.534,140.473
1.400,0.182,-0.337,0.818,44.931,4.687,140.366
1.400,0.167,-0.341,0.825,44.351,1.053,140.031
1.410,0.139,-0.349,0.841,44.397,-3.160,140.153
1.410,0.115,-0.352,0.845,44.641,-8.595,140.489
1.420,0.104,-0.353,0.852,45.527,-15.267,141.435
1.420,0.109,-0.356,0.863,46.763,-21.069,142.763
1.430,0.121,-0.363,0.878,48.137,-25.023,144.015
1.430,0.122,-0.364,0.886,50.092,-28.015,145.496
1.430,0.125,-0.371,0.886,52.473,-31.282,147.267
1.440,0.131,-0.364,0.884,54.290,-33.863,149.130
1.440,0.146,-0.358,0.890,56.489,-35.267,151.282
1.450,0.164,-0.367,0.883,58.672,-35.725,153.099
1.450,0.203,-0.370,0.868,60.382,-36.137,154.122
1.460,0.224,-0.360,0.845,61.405,-37.160,154.366
1.460,0.247,-0.353,0.841,62.015,-38.321,154.244
1.460,0.266,-0.341,0.834,62.855,-38.931,154.076
1.470,0.286,-0.341,0.822,63.374,-39.069,153.802
1.470,0.297,-0.328,0.802,63.573,-39.588,153.237
1.480,0.318,-0.321,0.779,63.237,-40.153,152.718
1.480,0.344,-0.307,0.753,62.733,-40.641,151.618
1.490,0.350,-0.310,0.732,62.214,-41.878,150.122
1.490,0.361,-0.310,0.708,60.824,-43.435,148.855
1.490,0.364,-0.300,0.697,59.496,-44.427,148.214
1.500,0.384,-0.295,0.693,57.939,-44.214,147.573
1.500,0.395,-0.301,0.683,56.168,-44.855,146.031
1.510,0.402,-0.300,0.675,54.168,-45.969,144.550
1.510,0.392,-0.301,0.663,52.214,-47.420,143.328
1.520,0.391,-0.312,0.678,50.733,-48.183,142.550
1.520,0.383,-0.314,0.690,49.939,-49.511,142.672
1.520,0.375,-0.320,0.713,50.183,-51.573,142.550
1.530,0.384,-0.331,0.728,51.008,-54.153,142.443
1.530,0.398,-0.327,0.737,51.969,-56.931,142.473
1.540,0.410,-0.320,0.739,53.496,-58.718,142.275
1.540,0.424,-0.320,0.741,55.115,-59.695,143.038
1.540,0.463,-0.309,0.716,56.748,-59.802,142.641
1.550,0.487,-0.299,0.695,57.573,-58.870,142.031
1.550,0.501,-0.281,0.667,57.756,-56.992,141.450
1.560,0.521,-0.272,0.642,57.450,-54.611,141.588
1.560,0.549,-0.265,0.629,56.580,-50.382,141.542
1.570,0.571,-0.268,0.610,55.038,-45.573,140.870
1.570,0.574,-0.257,0.583,52.366,-40.992,140.168
1.570,0.574,-0.255,0.584,50.275,-35.740,139.908
1.580,0.565,-0.255,0.578,48.107,-31.985,139.893
1.580,0.591,-0.260,0.588,45.573,-28.244,139.176
1.590,0.615,-0.261,0.575,42.885,-23.588,137.557
1.590,0.611,-0.265,0.584,40.519,-22.076,135.313
1.600,0.595,-0.262,0.610,38.916,-23.435,134.336
1.600,0.594,-0.274,0.625,38.489,-25.328,132.550
1.600,0.607,-0.273,0.622,37.466,-26.748,129.344
1.610,0.616,-0.267,0.611,36.000,-28.611,125.832
1.610,0.607,-0.253,0.612,34.687,-29.130,123.328
1.620,0.585,-0.249,0.617,34.092,-30.198,121.771
1.620,0.578,-0.242,0.615,33.267,-31.695,120.092
1.630,0.574,-0.242,0.597,32.061,-32.031,118.427
1.630,0.580,-0.229,0.586,29.985,-30.229,117.542
1.630,0.575,-0.223,0.596,27.786,-27.924,117.573
1.640,0.560,-0.223,0.615,26.336,-25.740,118.794
1.640,0.555,-0.226,0.626,25.588,-22.992,120.855
1.650,0.574,-0.227,0.625,25.710,-19.924,122.550
1.650,0.605,-0.222,0.620,24.870,-16.031,123.771
1.660,0.627,-0.217,0.603,23.634,-12.534,124.061
1.660,0.653,-0.217,0.608,22.244,-8.687,124.443
1.660,0.675,-0.215,0.603,21.847,-5.832,124.153
1.670,0.761,-0.204,0.620,17.466,0.580,122.947
1.670,0.930,-0.235,0.697,14.229,13.573,116.916
1.680,0.859,-0.220,0.678,22.336,5.908,109.282
1.680,0.810,-0.180,0.597,16.290,-5.557,104.183
1.680,0.819,-0.192,0.683,13.710,-11.267,100.733
1.690,0.836,-0.187,0.692,17.542,-15.145,95.176
1.690,0.791,-0.176,0.672,17.649,-32.901,90.351
1.700,0.791,-0.152,0.648,16.107,-49.115,86.718
1.700,0.899,-0.155,0.657,17.099,-47.939,83.710
1.710,0.971,-0.139,0.681,16.885,-40.076,80.153
1.710,0.874,-0.126,0.667,20.504,-51.863,76.214
1.710,0.828,-0.121,0.631,18.916,-64.321,73.191
1.720,0.942,-0.099,0.598,15.573,-55.588,71.038
1.720,0.992,-0.120,0.643,17.405,-44.641,67.893
1.730,0.939,-0.115,0.640,19.313,-49.221,63.924
1.730,0.970,-0.100,0.607,16.962,-50.229,60.992
1.730,1.049,-0.093,0.585,14.809,-38.351,57.908
1.740,1.072,-0.099,0.585,13.985,-28.427,54.351
1.740,1.052,-0.091,0.579,12.046,-26.947,50.794
1.750,1.042,-0.083,0.559,8.397,-24.260,47.756
1.750,1.029,-0.085,0.558,5.740,-18.656,45.221
1.760,1.038,-0.097,0.585,3.344,-13.282,43.038
1.760,1.026,-0.086,0.582,1.817,-11.130,40.305
1.760,1.035,-0.081,0.582,-0.763,-9.084,37.221
1.770,1.038,-0.081,0.582,-3.191,-6.550,33.802
1.770,1.035,-0.092,0.597,-4.962,-4.260,29.725
1.780,1.015,-0.078,0.614,-5.328,-3.832,25.405
1.780,1.017,-0.081,0.631,-6.947,-3.176,20.366
1.780,0.989,-0.081,0.639,-7.740,-3.160,15.756
1.790,0.961,-0.088,0.657,-8.183,-2.580,11.878
1.790,0.932,-0.092,0.662,-8.611,-2.046,8.305
1.800,0.896,-0.092,0.682,-9.160,-1.466,4.962
1.800,0.871,-0.085,0.670,-9.786,0.321,1.985
1.800,0.842,-0.081,0.691,-10.473,1.969,-0.489
1.810,0.801,-0.080,0.692,-10.718,3.450,-2.748
1.810,0.775,-0.085,0.703,-11.206,5.664,-4.412
1.820,0.733,-0.085,0.710,-10.824,8.031,-5.282
1.820,0.692,-0.089,0.730,-10.015,10.275,-5.832
1.820,0.639,-0.094,0.733,-9.511,12.092,-6.382
1.830,0.606,-0.093,0.752,-9.206,13.786,-6.733
1.830,0.565,-0.097,0.745,-9.359,15.313,-6.672
1.840,0.527,-0.102,0.755,-8.809,17.053,-6.153
1.840,0.513,-0.099,0.774,-7.817,18.534,-5.954
1.840,0.493,-0.111,0.779,-7.313,19.695,-5.634
1.850,0.451,-0.101,0.793,-6.702,20.763,-5.374
1.850,0.426,-0.096,0.801,-6.290,21.527,-4.534
1.860,0.405,-0.102,0.806,-5.786,22.656,-3.771
1.860,0.375,-0.100,0.803,-5.420,23.221,-2.519
1.870,0.369,-0.092,0.804,-5.023,23.679,-1.008
1.870,0.362,-0.094,0.797,-4.931,24.336,0.092
1.870,0.365,-0.090,0.805,-4.626,24.321,1.328
1.880,0.357,-0.091,0.788,-4.824,24.580,1.908
1.880,0.357,-0.083,0.785,-5.237,24.443,2.443
1.890,0.345,-0.088,0.787,-5.695,24.565,3.282
1.890,0.349,-0.092,0.794,-6.092,24.244,3.939
1.890,0.351,-0.094,0.817,-6.122,23.511,4.626
1.900,0.365,-0.094,0.808,-5.939,22.458,4.947
1.900,0.384,-0.103,0.817,-5.679,20.916,5.374
1.910,0.400,-0.101,0.832,-5.176,19.740,5.267
1.910,0.428,-0.114,0.833,-4.809,19.069,5.237
1.910,0.442,-0.106,0.842,-4.076,17.573,5.221
1.920,0.473,-0.118,0.842,-3.466,16.336,5.038
1.920,0.488,-0.115,0.846,-1.939,14.153,4.458
1.930,0.490,-0.113,0.832,-1.344,9.099,3.832
1.930,0.531,-0.110,0.827,-2.092,7.725,3.511
1.930,0.594,-0.125,0.842,-1.511,11.893,2.809
1.940,0.606,-0.127,0.850,0.443,11.725,1.832
1.940,0.624,-0.127,0.847,1.771,8.748,0.595
1.940,0.655,-0.122,0.831,2.260,8.321,-0.718
1.950,0.683,-0.116,0.813,2.748,10.015,-2.305
1.950,0.686,-0.121,0.797,3.038,7.511,-4.031
1.960,0.712,-0.111,0.772,2.153,7.573,-5.725
1.960,0.760,-0.106,0.775,1.832,10.595,-7.176
1.960,0.795,-0.109,0.771,1.832,13.282,-9.130
1.970,0.803,-0.114,0.762,1.954,13.008,-11.298
1.970,0.820,-0.102,0.744,1.115,12.870,-14.122
1.980,0.863,-0.104,0.728,0.076,13.969,-16.824
1.980,0.893,-0.104,0.729,-0.687,15.069,-20.336
1.980,0.921,-0.099,0.718,-1.267,15.405,-24.580
1.990,0.930,-0.093,0.701,-2.351,14.992,-28.992
1.990,0.961,-0.098,0.709,-3.084,15.771,-33.771
2.000,0.962,-0.105,0.679,-4.061,15.313,-38.458
2.000,0.953,-0.094,0.656,-5.878,12.977,-42.931
2.010,0.945,-0.088,0.638,-7.924,11.954,-46.977
2.010,0.952,-0.096,0.633,-10.702,11.405,-52.489
2.010,0.941,-0.090,0.624,-13.313,8.885,-56.336
2.020,0.930,-0.098,0.627,-16.229,6.931,-60.901
2.020,0.925,-0.098,0.597,-19.679,5.832,-65.023
2.030,0.926,-0.105,0.591,-22.947,5.221,-69.695
2.030,0.916,-0.103,0.588,-26.550,4.901,-74.183
2.030,0.907,-0.107,0.591,-30.015,3.847,-78.504
2.040,0.892,-0.119,0.607,-32.260,2.565,-83.115
2.040,0.880,-0.126,0.606,-34.641,2.122,-86.962
2.050,0.867,-0.125,0.590,-37.298,1.740,-90.779
2.050,0.839,-0.135,0.606,-39.771,1.511,-93.664
2.060,0.818,-0.149,0.604,-41.511,1.679,-95.985
2.060,0.806,-0.158,0.616,-42.718,2.229,-97.893
2.060,0.801,-0.167,0.631,-44.305,4.122,-99.496
2.070,0.809,-0.173,0.629,-45.206,6.137,-101.527
2.070,0.803,-0.176,0.635,-46.260,7.603,-103.878
2.080,0.802,-0.183,0.630,-47.160,8.397,-106.229
2.080,0.804,-0.178,0.624,-48.260,8.931,-108.580
2.090,0.804,-0.177,0.623,-49.649,8.779,-111.069
2.090,0.799,-0.173,0.601,-50.824,8.229,-114.122
2.090,0.801,-0.173,0.582,-53.252,6.382,-117.466
2.100,0.786,-0.166,0.543,-56.641,4.275,-120.656
2.100,0.781,-0.166,0.502,-60.397,1.908,-123.969
2.110,0.771,-0.155,0.475,-64.626,-0.931,-127.267
2.110,0.754,-0.152,0.432,-70.718,-4.473,-130.870
2.120,0.751,-0.159,0.400,-77.496,-7.176,-134.092
2.120,0.755,-0.157,0.374,-85.252,-8.626,-137.237
2.120,0.735,-0.161,0.349,-93.313,-10.763,-140.122
2.130,0.709,-0.178,0.340,-102.687,-13.221,-142.382
2.130,0.678,-0.200,0.343,-111.756,-15.695,-144.168
2.140,0.643,-0.229,0.362,-119.954,-19.847,-145.359
2.140,0.602,-0.252,0.400,-125.725,-25.084,-145.786
2.150,0.563,-0.288,0.451,-129.435,-30.611,-145.679
2.150,0.515,-0.307,0.491,-131.511,-38.046,-144.366
2.160,0.486,-0.340,0.531,-131.847,-43.786,-141.664
2.160,0.459,-0.367,0.599,-129.969,-47.679,-138.489
2.160,0.433,-0.390,0.652,-125.084,-52.809,-134.489
2.170,0.429,-0.401,0.696,-119.145,-55.908,-129.863
2.170,0.457,-0.402,0.704,-112.214,-55.771,-124.305
2.180,0.475,-0.401,0.715,-106.031,-54.015,-119.359
2.180,0.527,-0.397,0.726,-99.969,-50.458,-115.405
2.190,0.607,-0.394,0.718,-95.771,-43.481,-113.450
2.190,0.671,-0.381,0.714,-92.198,-32.947,-113.573
2.200,0.721,-0.391,0.722,-86.977,-23.985,-114.382
2.200,0.722,-0.391,0.681,-82.870,-16.351,-115.634
2.200,0.721,-0.372,0.603,-81.252,-8.687,-117.099
2.210,0.716,-0.364,0.553,-81.038,-0.855,-117.969
2.210,0.712,-0.356,0.516,-81.664,5.969,-118.382
2.220,0.728,-0.360,0.472,-83.084,12.870,-118.794
2.220,0.745,-0.356,0.437,-86.260,22.061,-120.855
2.230,0.742,-0.386,0.439,-91.053,30.687,-123.802
2.230,0.760,-0.379,0.424,-97.542,43.328,-126.397
2.230,0.750,-0.407,0.404,-102.656,56.458,-131.069
2.240,0.681,-0.414,0.439,-108.107,60.015,-133.802
2.240,0.636,-0.420,0.453,-115.603,65.282,-135.924
2.250,0.618,-0.450,0.482,-121.481,71.359,-138.046
2.250,0.539,-0.497,0.566,-123.725,72.046,-139.679
2.260,0.471,-0.543,0.664,-121.344,68.916,-139.985
2.260,0.426,-0.563,0.766,-116.229,65.863,-139.878
2.270,0.405,-0.573,0.812,-112.321,62.458,-138.504
2.270,0.376,-0.577,0.868,-108.580,54.870,-136.183
2.270,0.398,-0.584,0.892,-102.504,52.672,-134.290
2.280,0.423,-0.594,0.904,-96.000,53.282,-133.435
2.280,0.431,-0.590,0.892,-88.840,52.168,-132.321
2.290,0.464,-0.581,0.858,-83.771,53.038,-132.336
2.290,0.479,-0.573,0.828,-80.733,54.840,-132.397
2.300,0.500,-0.565,0.810,-78.519,59.573,-132.443
2.300,0.526,-0.585,0.842,-75.405,60.763,-134.015
2.310,0.536,-0.564,0.794,-73.664,64.794,-136.779
2.310,0.500,-0.555,0.739,-73.282,64.840,-138.321
2.310,0.484,-0.540,0.700,-75.511,65.863,-140.244
2.320,0.485,-0.540,0.670,-78.702,65.664,-142.214
2.320,0.473,-0.525,0.652,-83.008,64.351,-144.275
2.330,0.474,-0.534,0.644,-87.420,62.397,-147.206
2.330,0.489,-0.538,0.660,-90.733,59.618,-150.931
2.340,0.493,-0.540,0.677,-92.702,55.023,-154.962
2.340,0.495,-0.557,0.685,-91.084,49.832,-159.344
2.340,0.512,-0.541,0.722,-92.977,51.282,-163.374
2.350,0.404,-0.562,0.724,-95.695,36.412,-165.985
2.350,0.420,-0.578,0.757,-95.466,29.527,-167.771
2.360,0.401,-0.594,0.832,-91.954,25.924,-168.153
2.360,0.320,-0.618,0.920,-86.473,18.229,-166.351
2.370,0.298,-0.627,0.968,-79.924,12.382,-162.748
2.370,0.306,-0.623,0.990,-73.679,10.718,-158.351
2.370,0.322,-0.633,1.034,-66.916,12.443,-152.916
2.380,0.336,-0.640,1.043,-60.229,19.664,-147.389
2.380,0.366,-0.637,1.071,-52.809,29.252,-142.321
2.390,0.374,-0.636,1.060,-45.542,41.634,-137.435
2.390,0.388,-0.621,1.036,-40.183,55.740,-132.809
2.400,0.394,-0.616,0.996,-35.191,69.786,-128.962
2.400,0.368,-0.602,0.961,-31.145,81.618,-125.695
2.400,0.334,-0.563,0.850,-29.985,91.313,-121.588
2.410,0.331,-0.540,0.777,-32.748,98.336,-118.244
2.410,0.331,-0.519,0.704,-37.450,101.023,-115.817
2.420,0.327,-0.484,0.670,-45.802,100.153,-117.160
2.420,0.399,-0.481,0.678,-48.351,108.061,-118.763
2.430,0.345,-0.475,0.718,-49.893,98.595,-123.313
2.430,0.383,-0.461,0.673,-52.794,88.947,-128.748
2.440,0.416,-0.453,0.638,-56.595,80.641,-135.282
2.440,0.403,-0.453,0.639,-60.137,67.802,-142.382
2.440,0.388,-0.452,0.632,-64.076,52.473,-149.115
2.450,0.371,-0.448,0.640,-71.756,41.023,-154.244
2.450,0.431,-0.534,0.733,-68.122,26.092,-160.733
2.460,0.205,-0.382,0.560,-72.550,0.641,-164.290
2.460,0.316,-0.468,0.683,-80.504,-2.489,-161.695
2.470,0.281,-0.463,0.654,-80.076,-5.710,-166.336
2.470,0.196,-0.444,0.631,-89.847,-29.985,-164.046
2.470,0.196,-0.458,0.663,-98.092,-35.634,-163.130
2.480,0.297,-0.479,0.693,-104.153,-16.992,-158.504
2.480,0.230,-0.513,0.790,-106.000,-7.252,-153.130
2.490,0.222,-0.540,0.831,-107.313,4.947,-146.519
2.490,0.230,-0.535,0.861,-107.389,20.031,-139.389
2.500,0.255,-0.562,0.893,-106.962,36.977,-132.260
2.500,0.249,-0.564,0.930,-105.786,52.229,-126.366
2.510,0.247,-0.575,0.980,-101.649,64.351,-121.099
2.510,0.275,-0.584,1.017,-94.901,74.290,-117.695
2.510,0.279,-0.608,1.055,-86.733,79.176,-116.718
2.520,0.284,-0.601,1.058,-78.122,81.679,-117.145
2.520,0.301,-0.585,1.029,-71.863,84.427,-117.618
2.530,0.274,-0.581,1.008,-66.733,83.527,-118.595
2.530,0.249,-0.575,0.994,-60.916,80.107,-119.695
2.540,0.225,-0.559,0.951,-55.771,75.328,-120.733
2.540,0.214,-0.554,0.979,-51.008,70.107,-120.840
2.540,0.182,-0.546,0.938,-45.160,59.817,-122.107
2.550,0.188,-0.516,0.921,-43.252,51.649,-122.443
2.550,0.185,-0.522,0.894,-40.840,45.496,-124.183
2.560,0.208,-0.496,0.852,-41.695,40.473,-125.405
2.560,0.169,-0.497,0.838,-42.718,34.107,-126.382
2.570,0.143,-0.482,0.815,-44.504,28.153,-127.130
2.570,0.133,-0.482,0.819,-47.099,24.214,-126.779
2.580,0.124,-0.470,0.825,-49.344,21.298,-126.061
2.580,0.127,-0.464,0.837,-52.031,18.794,-124.763
2.580,0.123,-0.464,0.831,-53.527,17.802,-122.901
2.590,0.124,-0.460,0.829,-54.626,17.832,-120.550
2.590,0.125,-0.457,0.844,-54.763,19.053,-117.893
2.600,0.129,-0.448,0.837,-54.565,20.489,-115.023
2.600,0.134,-0.437,0.839,-53.710,22.183,-112.168
2.610,0.151,-0.443,0.861,-52.214,24.305,-109.786
2.610,0.161,-0.433,0.868,-50.244,26.916,-106.992
2.610,0.161,-0.429,0.854,-48.336,29.450,-104.153
2.620,0.168,-0.423,0.843,-46.031,30.702,-101.252
2.620,0.168,-0.416,0.842,-44.107,31.359,-98.687
2.630,0.166,-0.406,0.833,-42.397,30.962,-96.321
2.630,0.177,-0.392,0.805,-40.992,29.389,-94.031
2.640,0.185,-0.392,0.789,-39.237,28.046,-92.153
2.640,0.182,-0.388,0.776,-38.565,25.740,-90.061
2.640,0.166,-0.370,0.750,-38.992,23.328,-87.725
2.650,0.166,-0.373,0.734,-40.656,20.580,-85.573
2.650,0.187,-0.371,0.734,-42.260,18.687,-84.336
2.660,0.203,-0.372,0.749,-43.725,16.397,-83.145
2.660,0.201,-0.372,0.759,-45.435,14.458,-82.290
2.670,0.193,-0.380,0.784,-46.504,13.191,-81.328
2.670,0.191,-0.382,0.808,-46.931,12.702,-80.168
2.670,0.198,-0.393,0.822,-46.870,12.656,-78.992
2.680,0.202,-0.396,0.847,-46.427,12.901,-77.817
2.680,0.206,-0.400,0.881,-45.069,14.427,-76.122
2.690,0.187,-0.405,0.884,-43.176,16.534,-74.061
2.690,0.166,-0.407,0.900,-41.130,17.481,-71.313
2.700,0.159,-0.401,0.900,-38.885,17.969,-68.366
2.700,0.160,-0.392,0.910,-36.412,18.580,-65.344
2.700,0.166,-0.388,0.906,-33.710,19.344,-62.718
2.710,0.184,-0.385,0.921,-30.519,20.031,-60.137
2.710,0.193,-0.382,0.919,-27.374,21.023,-57.832
2.720,0.200,-0.381,0.923,-24.412,21.313,-55.511
2.720,0.210,-0.366,0.893,-21.771,21.298,-53.588
2.720,0.225,-0.366,0.877,-19.954,20.824,-52.183
2.730,0.230,-0.359,0.860,-18.809,19.664,-51.374
2.730,0.235,-0.359,0.852,-17.985,18.351,-50.824
2.740,0.235,-0.348,0.836,-17.878,16.901,-50.076
2.740,0.231,-0.345,0.818,-18.473,14.794,-49.893
2.750,0.237,-0.344,0.820,-19.053,12.763,-49.450
2.750,0.229,-0.335,0.823,-19.573,10.809,-49.023
2.750,0.226,-0.346,0.820,-20.275,8.672,-47.939
2.760,0.229,-0.342,0.831,-20.794,7.985,-47.176
2.760,0.243,-0.340,0.822,-21.084,9.206,-46.137
2.770,0.244,-0.343,0.843,-21.328,10.901,-45.145
2.770,0.251,-0.348,0.844,-21.725,12.992,-44.137
2.780,0.255,-0.350,0.861,-21.481,15.954,-43.176
2.780,0.254,-0.350,0.878,-20.855,18.916,-42.214
2.780,0.247,-0.347,0.882,-19.939,21.847,-40.870
2.790,0.242,-0.359,0.899,-18.779,24.855,-39.237
2.790,0.241,-0.355,0.903,-17.099,27.099,-37.756
2.800,0.247,-0.354,0.911,-15.374,27.954,-36.855
2.800,0.253,-0.355,0.908,-13.466,28.519,-36.336
2.810,0.254,-0.345,0.903,-11.863,28.458,-35.679
2.810,0.256,-0.336,0.896,-10.260,27.756,-35.344
2.810,0.259,-0.327,0.888,-8.702,25.893,-34.641
2.820,0.274,-0.330,0.896,-7.084,23.771,-34.580
2.820,0.272,-0.323,0.888,-5.359,21.344,-34.244
2.830,0.269,-0.314,0.877,-3.817,18.595,-33.863
2.830,0.261,-0.312,0.867,-2.947,15.405,-33.191
2.830,0.263,-0.306,0.859,-2.489,13.328,-32.122
2.840,0.272,-0.309,0.850,-2.290,12.489,-31.038
2.840,0.280,-0.304,0.852,-2.168,12.443,-29.511
2.850,0.283,-0.305,0.840,-2.122,12.809,-28.198
2.850,0.287,-0.299,0.842,-2.305,13.542,-27.130
2.860,0.294,-0.306,0.834,-2.687,13.649,-25.924
2.860,0.286,-0.288,0.810,-4.641,14.611,-24.885
2.860,0.302,-0.296,0.834,-5.191,16.046,-23.557
2.870,0.323,-0.283,0.813,-5.817,20.015,-23.053
2.870,0.289,-0.292,0.820,-6.076,19.679,-22.168
2.880,0.273,-0.287,0.814,-7.557,18.809,-20.931
2.880,0.280,-0.288,0.819,-8.153,19.527,-19.588
2.880,0.279,-0.287,0.818,-8.397,19.695,-18.122
2.890,0.272,-0.283,0.830,-8.672,18.534,-16.870
2.890,0.286,-0.287,0.826,-8.550,17.023,-16.000
2.900,0.301,-0.278,0.835,-8.458,16.840,-15.176
2.900,0.292,-0.284,0.842,-7.908,16.656,-14.290
2.910,0.289,-0.286,0.844,-7.267,15.710,-13.344
2.910,0.288,-0.292,0.842,-6.794,14.458,-12.198
2.910,0.288,-0.288,0.837,-6.504,14.046,-10.550
2.920,0.289,-0.290,0.832,-6.489,14.198,-8.977
2.920,0.287,-0.289,0.830,-6.748,14.504,-7.344
2.930,0.290,-0.290,0.825,-7.344,14.687,-5.649
2.930,0.289,-0.285,0.820,-8.290,15.267,-4.168
2.930,0.299,-0.286,0.825,-9.420,15.771,-2.840
2.940,0.303,-0.290,0.817,-10.046,16.412,-1.985
2.940,0.314,-0.289,0.832,-10.824,16.794,-1.344
2.950,0.320,-0.294,0.831,-11.481,17.405,-1.450
2.950,0.314,-0.305,0.835,-11.832,15.710,-2.061
2.960,0.320,-0.311,0.842,-12.168,13.634,-4.168
2.960,0.317,-0.310,0.840,-11.863,11.313,-3.878
2.960,0.312,-0.314,0.848,-11.802,8.137,-4.733
2.970,0.303,-0.316,0.846,-11.038,4.626,-5.130
2.970,0.296,-0.319,0.856,-10.061,1.389,-5.160
2.980,0.283,-0.315,0.869,-9.344,-1.405,-4.977
2.980,0.280,-0.320,0.876,-8.031,-3.466,-4.702
2.980,0.274,-0.323,0.876,-7.008,-4.656,-3.863
2.990,0.280,-0.318,0.876,-5.710,-4.672,-3.008
2.990,0.277,-0.320,0.876,-4.275,-4.275,-1.985
3.000,0.290,-0.323,0.869,-3.115,-3.679,-0.870
3.000,0.301,-0.323,0.874,-2.183,-1.985,-0.076
3.000,0.313,-0.314,0.852,-1.649,-0.260,0.412
3.010,0.331,-0.315,0.864,-1.099,0.672,0.702
3.010,0.340,-0.308,0.856,-0.870,3.099,1.023
3.020,0.339,-0.310,0.855,-0.229,5.282,1.588
3.020,0.327,-0.308,0.831,-0.397,6.809,2.244
3.020,0.331,-0.308,0.838,-0.076,8.427,2.519
3.030,0.346,-0.305,0.837,-0.214,10.290,2.855
3.030,0.345,-0.300,0.827,-0.107,11.954,2.977
3.040,0.331,-0.302,0.812,0.092,11.985,3.099
3.040,0.329,-0.294,0.825,0.168,11.786,3.191
3.040,0.328,-0.303,0.819,0.321,11.267,3.084
3.050,0.318,-0.295,0.808,0.198,9.863,3.191
3.050,0.305,-0.298,0.802,-0.046,8.595,3.206
3.060,0.298,-0.296,0.798,-0.397,5.695,3.267
3.060,0.306,-0.291,0.784,-0.977,3.603,3.252
3.060,0.317,-0.290,0.800,-1.588,2.076,3.252
3.070,0.330,-0.288,0.808,-1.939,1.237,3.206
3.070,0.333,-0.294,0.812,-2.290,1.023,3.588
3.070,0.333,-0.291,0.822,-2.519,0.992,4.000
3.080,0.342,-0.301,0.820,-2.458,1.664,4.275
3.080,0.348,-0.294,0.817,-2.321,2.809,4.916
3.090,0.350,-0.295,0.829,-2.076,4.153,5.389
3.090,0.359,-0.295,0.833,-1.832,5.725,6.183
3.090,0.366,-0.301,0.839,-1.313,7.298,6.321
3.100,0.379,-0.299,0.833,-0.977,8.748,6.351
3.100,0.387,-0.305,0.839,-0.672,10.321,5.588
3.110,0.377,-0.290,0.839,-0.198,10.687,5.603
3.110,0.378,-0.291,0.836,0.305,10.092,5.191
3.110,0.381,-0.295,0.841,0.992,8.733,4.656
3.120,0.382,-0.302,0.837,1.084,8.321,4.000
3.120,0.390,-0.287,0.817,0.061,9.130,3.695
3.130,0.389,-0.292,0.812,-0.183,10.473,3.313
3.130,0.367,-0.295,0.814,-0.489,10.519,3.160
3.130,0.362,-0.300,0.823,-0.137,10.382,3.099
3.140,0.358,-0.305,0.816,-0.214,9.985,2.779
3.140,0.353,-0.296,0.812,-0.244,9.618,2.626
3.150,0.350,-0.298,0.818,-0.183,9.557,2.504
3.150,0.341,-0.302,0.802,-0.443,8.565,2.656
3.150,0.344,-0.297,0.824,-0.305,7.893,2.473
3.160,0.342,-0.301,0.807,0.092,6.947,2.260
3.160,0.331,-0.301,0.820,0.031,5.130,2.244
3.160,0.339,-0.294,0.824,-0.031,3.053,2.260
3.170,0.341,-0.294,0.826,0.198,1.725,1.908
3.170,0.345,-0.293,0.819,0.290,0.718,1.679
3.180,0.343,-0.297,0.811,0.489,-0.733,1.588
3.180,0.340,-0.301,0.817,0.794,-2.061,1.573
3.180,0.347,-0.294,0.810,0.809,-2.687,1.496
3.190,0.349,-0.294,0.808,0.977,-2.656,1.725
3.190,0.349,-0.296,0.811,1.496,-1.985,2.000
3.200,0.347,-0.298,0.812,1.496,-1.496,2.168
3.200,0.345,-0.291,0.806,1.328,-1.008,2.458
3.200,0.348,-0.285,0.809,1.145,-0.809,2.763
3.210,0.354,-0.282,0.793,0.595,0.229,3.023
3.210,0.361,-0.274,0.792,0.031,1.740,3.328
3.220,0.373,-0.281,0.792,-0.809,2.809,3.328
3.220,0.371,-0.279,0.790,-1.450,4.153,3.237
3.220,0.378,-0.286,0.796,-2.122,4.870,2.840
3.230,0.368,-0.279,0.799,-2.840,5.206,2.427
3.230,0.367,-0.285,0.795,-3.008,5.130,1.771
3.230,0.349,-0.286,0.801,-3.435,4.366,1.542
3.240,0.341,-0.286,0.815,-3.588,3.145,1.695
3.240,0.348,-0.295,0.808,-3.237,1.802,1.221
3.250,0.344,-0.288,0.817,-2.656,0.260,1.298
3.250,0.344,-0.293,0.820,-2.214,-1.405,1.053
3.250,0.342,-0.290,0.823,-2.061,-2.534,0.626
3.260,0.345,-0.294,0.819,-1.374,-3.420,0.412
3.260,0.342,-0.294,0.826,-1.435,-4.031,0.076
3.270,0.353,-0.294,0.815,-1.573,-4.000,0.092
3.270,0.349,-0.294,0.807,-1.786,-3.420,0.305
3.270,0.342,-0.296,0.807,-2.153,-2.885,0.718
3.280,0.337,-0.291,0.805,-2.229,-1.985,1.237
3.280,0.336,-0.292,0.809,-2.580,-0.916,1.496
3.290,0.345,-0.294,0.813,-3.344,0.198,2.153
3.290,0.355,-0.298,0.813,-3.832,1.573,2.351
3.290,0.355,-0.294,0.823,-4.076,2.534,2.473
3.300,0.350,-0.292,0.812,-3.878,2.794,2.168
3.300,0.355,-0.303,0.821,-4.092,3.115,2.137
3.310,0.351,-0.297,0.824,-3.878,2.687,2.153
3.310,0.345,-0.301,0.830,-3.542,1.954,2.183
3.310,0.345,-0.297,0.826,-3.420,1.344,2.321
3.320,0.347,-0.303,0.830,-2.855,0.947,2.122
3.320,0.346,-0.304,0.825,-2.504,0.565,2.122
3.330,0.344,-0.299,0.830,-1.969,0.244,2.168
3.330,0.343,-0.306,0.830,-1.725,-0.519,2.107
3.330,0.352,-0.298,0.819,-1.634,-1.176,1.634
3.340,0.355,-0.298,0.820,-1.557,-1.481,1.649
3.340,0.361,-0.302,0.828,-1.511,-1.405,1.359
3.350,0.350,-0.295,0.830,-0.916,-0.809,1.374
3.350,0.356,-0.300,0.832,-0.611,-0.214,0.870
3.350,0.360,-0.299,0.827,0.137,0.595,0.458
3.360,0.364,-0.300,0.838,0.473,0.992,0.290
3.360,0.364,-0.295,0.840,0.763,1.389,0.153
3.360,0.353,-0.298,0.822,0.779,1.466,-0.153
3.370,0.352,-0.284,0.818,1.008,1.756,0.107
3.370,0.335,-0.290,0.814,1.145,0.992,0.092
3.380,0.340,-0.289,0.821,0.855,-0.366,-0.183
3.380,0.351,-0.292,0.804,0.626,-2.107,-0.519
3.380,0.347,-0.288,0.809,0.107,-2.641,-0.947
3.390,0.368,-0.290,0.808,0.015,-2.763,-1.511
3.390,0.376,-0.288,0.812,-1.084,-2.473,-2.015
3.400,0.377,-0.290,0.809,-1.908,-1.542,-2.290
3.400,0.380,-0.293,0.806,-2.305,-0.031,-2.687
3.400,0.380,-0.292,0.801,-3.008,2.153,-2.611
3.410,0.379,-0.292,0.804,-3.298,3.771,-2.412
3.410,0.375,-0.293,0.812,-4.137,5.267,-2.168
3.420,0.358,-0.298,0.820,-4.321,5.817,-1.908
3.420,0.355,-0.297,0.837,-4.382,5.863,-1.939
3.420,0.353,-0.303,0.849,-3.710,5.954,-2.412
3.430,0.349,-0.303,0.844,-3.084,5.679,-2.641
3.430,0.356,-0.301,0.842,-3.252,4.290,-2.931
3.440,0.348,-0.302,0.832,-2.443,3.710,-3.389
3.440,0.333,-0.310,0.845,-1.908,1.817,-3.374
3.440,0.304,-0.308,0.832,-1.115,0.137,-3.038
3.450,0.311,-0.296,0.821,-0.809,-1.130,-2.840
3.450,0.304,-0.304,0.827,-0.519,-2.565,-2.473
3.460,0.295,-0.298,0.819,-0.351,-3.969,-1.817
3.460,0.291,-0.295,0.818,0.076,-5.435,-0.901
3.460,0.297,-0.298,0.827,0.031,-6.031,-0.198
3.470,0.310,-0.293,0.824,0.076,-5.053,0.687
3.470,0.312,-0.297,0.815,0.336,-4.519,1.450
3.480,0.312,-0.299,0.820,0.595,-3.786,2.183
3.480,0.323,-0.300,0.831,1.160,-2.901,2.504
3.480,0.329,-0.300,0.831,1.893,-1.695,3.084
3.490,0.341,-0.300,0.841,2.244,0.366,3.603
3.490,0.355,-0.300,0.843,2.641,1.756,3.695
3.500,0.362,-0.296,0.825,3.099,3.282,3.802
3.500,0.366,-0.300,0.841,3.313,4.763,3.557
3.500,0.366,-0.297,0.832,3.603,5.557,3.588
3.510,0.362,-0.293,0.823,3.832,5.450,3.084
3.510,0.361,-0.295,0.826,3.466,5.206,2.656
3.510,0.360,-0.288,0.824,3.359,4.962,1.939
3.520,0.367,-0.297,0.824,3.496,4.641,1.145
3.520,0.374,-0.285,0.818,3.374,4.840,0.595
3.530,0.379,-0.283,0.814,2.473,5.313,0.458
3.530,0.376,-0.280,0.800,1.939,5.557,-0.137
3.530,0.363,-0.285,0.801,1.679,5.985,-0.626
3.540,0.342,-0.285,0.807,1.557,5.374,-0.885
3.540,0.349,-0.286,0.795,1.481,5.191,-0.672
3.550,0.363,-0.281,0.801,0.107,6.061,-0.443
3.550,0.356,-0.281,0.799,-0.351,8.046,-0.595
3.550,0.322,-0.290,0.812,-0.214,8.290,-0.427
3.560,0.301,-0.287,0.818,-0.015,6.672,-0.015
3.560,0.297,-0.292,0.807,0.260,5.084,0.153
3.570,0.298,-0.285,0.805,0.412,4.336,0.382
3.570,0.305,-0.285,0.810,0.412,3.786,0.916
3.570,0.304,-0.289,0.798,0.733,2.962,1.191
3.580,0.317,-0.282,0.804,0.901,2.382,1.359
3.580,0.314,-0.282,0.798,0.687,1.282,1.069
3.580,0.321,-0.285,0.794,0.779,0.046,1.176
3.590,0.319,-0.280,0.802,0.519,-1.191,0.977
3.590,0.323,-0.286,0.812,0.641,-2.137,0.977
3.600,0.327,-0.284,0.809,0.595,-3.145,0.855
3.600,0.335,-0.289,0.815,0.611,-3.618,0.840
3.600,0.352,-0.281,0.792,0.489,-2.992,0.809
3.610,0.362,-0.287,0.806,0.229,-1.344,0.473
3.610,0.363,-0.292,0.818,0.427,0.656,0.137
3.620,0.359,-0.280,0.816,0.504,2.351,-0.015
3.620,0.347,-0.285,0.812,0.519,3.573,-0.031
3.620,0.339,-0.288,0.814,0.855,4.290,0.076
3.630,0.335,-0.286,0.828,0.870,4.580,-0.031
3.630,0.346,-0.287,0.820,1.130,5.496,-0.031
3.630,0.344,-0.291,0.818,1.206,6.534,-0.122
3.640,0.342,-0.288,0.815,1.298,6.855,-0.061
3.640,0.338,-0.289,0.821,1.389,7.221,-0.473
3.650,0.330,-0.287,0.828,2.168,7.359,-0.595
3.650,0.316,-0.290,0.819,2.626,6.412,-0.565
3.650,0.314,-0.285,0.807,2.641,5.603,-0.626
3.660,0.322,-0.278,0.808,2.687,4.656,-0.763
3.660,0.308,-0.280,0.819,2.809,3.313,-0.916
3.670,0.301,-0.277,0.810,2.916,1.588,-0.901
3.670,0.302,-0.280,0.797,2.641,0.580,-0.672
3.670,0.303,-0.273,0.789,2.290,-0.305,-0.473
3.680,0.305,-0.283,0.791,1.603,-1.160,-0.275
3.680,0.316,-0.276,0.773,0.916,-1.328,-0.107
3.690,0.321,-0.277,0.781,-0.122,-1.084,0.397
3.690,0.316,-0.276,0.790,-0.473,-1.115,0.748
3.690,0.307,-0.280,0.809,-1.008,-1.466,1.511
3.700,0.317,-0.279,0.812,-1.206,-0.748,1.786
3.700,0.331,-0.281,0.807,-1.603,-0.046,2.153
3.710,0.339,-0.286,0.812,-2.137,0.534,2.000
3.710,0.339,-0.286,0.827,-2.031,1.191,2.031
3.710,0.344,-0.288,0.828,-1.725,1.588,2.122
3.720,0.338,-0.282,0.834,-1.740,1.924,2.244
3.720,0.337,-0.286,0.836,-1.450,2.168,2.336
3.730,0.330,-0.288,0.823,-0.870,2.092,2.244
3.730,0.329,-0.292,0.828,-0.504,2.092,2.366
3.730,0.331,-0.287,0.841,-0.382,2.015,2.229
3.740,0.333,-0.287,0.821,-0.198,1.435,2.366
3.740,0.333,-0.298,0.819,-0.031,1.679,2.336
3.750,0.334,-0.284,0.809,-0.275,1.969,2.092
3.750,0.335,-0.288,0.820,0.015,1.832,2.122
3.750,0.331,-0.281,0.815,-0.366,1.786,1.771
3.760,0.332,-0.286,0.817,-0.427,2.137,1.771
3.760,0.333,-0.286,0.822,-0.031,2.046,1.450
3.760,0.324,-0.284,0.817,-0.137,1.221,1.450
3.770,0.323,-0.286,0.822,-0.046,0.427,1.267
3.770,0.327,-0.283,0.823,-0.336,0.046,1.328
3.780,0.322,-0.287,0.818,-0.412,0.290,1.405
3.780,0.323,-0.282,0.812,-0.336,0.153,1.695
3.780,0.330,-0.283,0.811,-1.023,-0.244,1.939
3.790,0.349,-0.285,0.818,-1.206,0.351,2.000
3.790,0.345,-0.289,0.828,-0.763,0.962,1.893
3.800,0.346,-0.283,0.838,-0.931,1.008,1.802
3.800,0.344,-0.292,0.823,-0.901,1.145,1.786
3.800,0.343,-0.287,0.832,-1.130,0.977,1.786
3.810,0.338,-0.286,0.825,-0.580,1.069,1.710
3.810,0.326,-0.292,0.824,-0.244,0.641,1.893
3.820,0.327,-0.288,0.828,-0.366,0.718,2.046
3.820,0.322,-0.283,0.816,-0.382,0.489,2.122
3.820,0.321,-0.284,0.819,-0.427,0.382,2.321
3.830,0.323,-0.287,0.824,-0.122,0.351,2.366
3.830,0.314,-0.284,0.820,-0.168,-0.336,2.611
3.830,0.320,-0.282,0.819,-0.260,-0.534,2.916
3.840,0.326,-0.292,0.823,-0.290,-0.672,3.053
3.840,0.322,-0.291,0.829,-0.015,-0.534,3.008
3.850,0.330,-0.291,0.820,0.427,-0.702,2.977
3.850,0.335,-0.292,0.824,0.534,-0.534,3.023
3.850,0.334,-0.286,0.818,0.473,-0.168,2.840
3.860,0.336,-0.281,0.821,0.397,-0.153,2.794
3.860,0.333,-0.285,0.821,0.229,-0.168,2.916
3.870,0.335,-0.285,0.826,0.290,0.107,3.145
3.870,0.337,-0.284,0.823,0.275,0.137,3.206
3.870,0.333,-0.282,0.835,0.092,-0.031,3.237
3.880,0.342,-0.276,0.831,0.076,0.504,3.435
3.880,0.349,-0.272,0.827,0.198,1.450,3.435
3.890,0.346,-0.275,0.814,0.458,1.435,3.115
3.890,0.331,-0.278,0.826,0.107,0.458,3.099
3.890,0.330,-0.275,0.828,0.244,0.458,3.237
3.900,0.335,-0.273,0.823,0.656,0.061,2.977
3.900,0.339,-0.276,0.825,0.366,0.321,2.595
3.900,0.339,-0.274,0.815,0.137,0.687,2.351
3.910,0.342,-0.275,0.816,0.061,0.733,2.153
3.910,0.347,-0.278,0.809,0.275,0.061,1.511
3.920,0.345,-0.282,0.812,0.244,0.122,0.885
3.920,0.331,-0.275,0.819,0.015,-0.168,0.290
3.920,0.320,-0.285,0.817,-0.260,-2.061,0.183
3.930,0.312,-0.279,0.818,-0.412,-4.000,0.290
3.930,0.320,-0.287,0.822,-0.229,-4.107,0.305
3.940,0.324,-0.283,0.825,0.061,-3.695,0.626
3.940,0.311,-0.281,0.819,0.076,-4.092,1.053
3.940,0.304,-0.280,0.813,0.107,-3.939,1.420
3.950,0.315,-0.277,0.814,-0.244,-3.802,1.832
3.950,0.322,-0.277,0.818,-0.382,-3.176,2.107
3.960,0.320,-0.281,0.828,-0.260,-2.458,2.168
3.960,0.326,-0.275,0.819,-0.534,-2.137,2.397
3.960,0.326,-0.275,0.812,-0.641,-1.725,2.550
3.970,0.336,-0.272,0.816,-0.687,-1.099,2.489
3.970,0.338,-0.271,0.815,-1.267,-0.901,2.489
3.980,0.335,-0.274,0.817,-0.885,-0.427,2.489
3.980,0.329,-0.272,0.820,-0.702,0.000,2.794
3.980,0.319,-0.275,0.817,-0.779,0.397,2.916
3.990,0.324,-0.280,0.821,-0.672,0.305,3.023
3.990,0.324,-0.281,0.828,-0.427,0.183,3.176
4.000,0.324,-0.276,0.821,-0.656,-0.580,3.084
4.000,0.325,-0.283,0.814,-0.809,-1.237,2.824
4.000,0.320,-0.277,0.809,-1.008,-1.359,2.290
4.010,0.336,-0.278,0.807,-1.450,-2.031,1.939
4.010,0.335,-0.276,0.812,-1.802,-2.031,1.466
4.020,0.349,-0.272,0.814,-2.214,-1.527,1.130
4.020,0.342,-0.275,0.815,-2.427,-1.557,0.534
4.020,0.335,-0.275,0.814,-2.748,-1.710,0.198
4.030,0.337,-0.274,0.818,-2.412,-1.450,0.260
4.030,0.332,-0.271,0.803,-2.382,0.061,0.031
4.030,0.329,-0.264,0.806,-2.458,0.489,0.137
4.040,0.321,-0.269,0.795,-2.672,0.519,0.336
4.040,0.316,-0.273,0.788,-3.359,0.534,0.321
4.050,0.321,-0.278,0.806,-3.573,-0.061,0.229
4.050,0.314,-0.273,0.814,-3.664,-0.443,0.382
4.050,0.314,-0.276,0.823,-3.588,-1.939,0.244
4.060,0.315,-0.279,0.813,-4.061,-3.237,0.305
4.060,0.322,-0.283,0.819,-4.305,-3.756,0.336
4.070,0.333,-0.279,0.816,-4.321,-2.855,0.305
4.070,0.331,-0.279,0.827,-4.061,-1.832,0.504
