Time,acce_x,acce_y,acce_z,gyro_x,gyro_y,gyro_z
0.000010,0.12,0.10,1.08,-2.66,1.44,1.77
0.000020,0.11,0.11,1.06,-2.33,-0.44,1.21
0.000030,0.12,0.12,1.07,-4.08,-1.52,1.37
0.000050,0.12,0.10,1.06,-2.90,2.14,1.12
0.000060,0.12,0.10,1.04,-2.92,-0.19,0.82
0.000070,0.14,0.11,1.05,-2.34,2.68,1.53
0.000080,0.11,0.09,1.05,-1.90,3.69,2.17
0.000100,0.09,0.10,1.06,-1.76,-1.44,2.89
0.000110,0.09,0.10,1.08,-3.82,-1.67,2.11
0.000120,0.07,0.09,1.05,-3.30,1.52,-0.46
0.000140,0.08,0.08,1.01,-0.90,-1.66,-2.02
0.000150,0.09,0.07,1.00,1.50,-2.44,-2.43
0.000160,0.09,0.08,1.02,4.06,-0.67,-2.84
0.000180,0.10,0.09,1.05,4.37,-2.91,-2.59
0.000190,0.10,0.11,1.06,2.27,-4.80,-2.47
0.000200,0.10,0.11,1.08,0.56,-3.27,-3.26
0.000220,0.09,0.10,1.07,-0.45,-3.60,-2.79
0.000230,0.12,0.11,1.07,1.31,0.89,-2.66
0.000240,0.11,0.12,1.08,1.55,-0.47,-2.71
0.000260,0.12,0.11,1.08,1.51,-1.90,-2.53
0.000270,0.12,0.11,1.09,1.90,1.75,-2.55
0.000280,0.11,0.10,1.09,0.91,-1.11,-2.96
0.000300,0.13,0.11,1.09,0.76,-0.39,-2.40
0.000310,0.11,0.11,1.10,-0.18,0.37,-1.27
0.000320,0.09,0.11,1.10,-2.21,-1.34,-2.31
0.000340,0.10,0.10,1.09,-2.80,-1.00,-3.83
0.000350,0.10,0.09,1.08,-2.15,2.36,-4.44
0.000360,0.10,0.09,1.08,-1.61,1.37,-4.87
0.000380,0.10,0.09,1.07,0.44,-0.50,-5.15
0.000390,0.10,0.09,1.08,1.69,3.15,-5.58
0.000400,0.10,0.09,1.08,1.81,3.44,-5.90
0.000410,0.09,0.11,1.09,-0.01,1.44,-5.53
0.000430,0.13,0.11,1.07,-0.47,1.19,-4.73
0.000440,0.15,0.12,1.08,-1.99,0.13,-3.07
0.000450,0.16,0.11,1.07,-1.93,1.02,-0.40
0.000470,0.15,0.10,1.07,-1.37,2.76,0.06
0.000480,0.15,0.09,1.06,-0.02,2.73,0.37
0.000490,0.14,0.10,1.07,1.18,1.40,0.73
0.000510,0.16,0.11,1.07,0.95,0.07,0.56
0.000520,0.17,0.12,1.07,0.41,-0.65,1.10
0.000530,0.20,0.12,1.07,0.11,1.67,2.40
0.000550,0.20,0.13,1.08,-1.31,4.57,5.22
0.000560,0.20,0.12,1.09,-2.31,5.40,7.21
0.000570,0.18,0.12,1.07,-2.13,4.13,8.98
0.000590,0.19,0.11,1.09,-2.08,3.63,10.47
0.000600,0.18,0.11,1.07,-2.02,3.95,11.50
0.000610,0.18,0.12,1.06,-1.77,4.85,11.68
0.000620,0.19,0.11,1.06,-2.48,3.29,13.77
0.000640,0.19,0.11,1.07,-2.97,3.72,15.35
0.000650,0.20,0.11,1.06,-2.51,5.82,17.04
0.000660,0.20,0.11,1.05,-2.18,5.36,19.11
0.000680,0.20,0.11,1.04,-0.89,2.15,21.30
0.000690,0.23,0.11,1.05,0.53,2.13,24.18
0.000700,0.22,0.11,1.05,0.67,3.35,27.82
0.000720,0.22,0.12,1.08,0.44,7.15,30.08
0.000730,0.21,0.13,1.08,-0.56,8.66,31.32
0.000740,0.22,0.14,1.10,-2.81,7.17,33.18
0.000760,0.23,0.14,1.06,-1.96,5.82,34.98
0.000770,0.22,0.13,1.06,0.28,5.56,35.11
0.000780,0.22,0.14,1.06,0.44,5.63,36.37
0.000800,0.19,0.14,1.05,1.15,7.20,38.02
0.000810,0.18,0.15,1.07,0.50,6.50,38.94
0.000820,0.17,0.15,1.07,-1.26,4.95,40.53
0.000840,0.17,0.14,1.09,-2.70,5.37,42.72
0.000850,0.17,0.14,1.08,-3.08,5.98,44.63
0.000860,0.14,0.15,1.07,-3.40,2.30,45.27
0.000880,0.13,0.15,1.06,-2.92,-1.37,44.35
0.000890,0.14,0.15,1.05,-3.44,-4.66,42.78
0.000900,0.12,0.13,1.05,-2.79,-9.98,38.31
0.000920,0.11,0.12,1.06,-0.18,-11.95,32.00
0.000930,0.14,0.14,1.09,-0.81,-12.77,34.21
0.000940,0.15,0.14,1.07,-2.17,-9.34,38.28
0.000960,0.20,0.14,1.06,-3.20,-3.32,44.51
0.000970,0.19,0.14,1.05,-2.51,3.32,50.42
0.000980,0.19,0.15,1.06,-0.87,6.52,55.08
0.001000,0.17,0.14,1.05,1.78,10.23,56.79
0.001010,0.17,0.15,1.08,2.24,7.65,58.51
0.001020,0.16,0.15,1.07,2.24,5.25,60.33
0.001040,0.16,0.15,1.07,2.35,3.68,60.93
0.001050,0.18,0.17,1.07,2.10,6.96,61.04
0.001060,0.17,0.18,1.07,0.85,7.26,62.67
0.001080,0.18,0.18,1.07,-0.73,8.31,66.50
0.001090,0.16,0.17,1.06,-0.69,9.22,69.65
0.001100,0.16,0.16,1.04,0.14,13.51,72.11
0.001120,0.13,0.16,1.03,1.15,12.52,71.85
0.001130,0.14,0.16,1.04,2.39,12.36,71.91
0.001140,0.14,0.16,1.08,1.86,11.60,72.34
0.001160,0.14,0.17,1.06,1.01,10.98,72.85
0.001170,0.15,0.16,1.05,0.06,12.29,74.38
0.001180,0.15,0.15,1.04,0.56,13.11,75.57
0.001200,0.15,0.15,1.02,2.16,12.51,75.83
0.001210,0.15,0.17,1.02,3.57,8.65,76.21
0.001220,0.15,0.18,1.02,5.39,6.57,75.98
0.001230,0.17,0.19,1.04,7.06,3.97,76.75
0.001250,0.20,0.21,1.04,8.20,6.76,79.11
0.001260,0.23,0.22,1.05,7.52,12.32,81.56
0.001270,0.22,0.24,1.11,3.81,11.22,85.94
0.001290,0.21,0.25,1.10,-0.15,12.95,89.94
0.001300,0.17,0.23,1.09,-1.39,14.21,91.31
0.001310,0.14,0.23,1.07,-0.85,14.66,91.26
0.001330,0.12,0.24,1.07,-1.16,15.91,91.00
0.001340,0.09,0.23,1.06,-1.63,15.79,90.18
0.001350,0.10,0.23,1.05,-2.27,16.69,90.13
0.001370,0.08,0.23,1.04,-2.14,18.63,91.70
0.001380,0.06,0.23,1.04,-2.56,19.17,93.18
0.001390,0.05,0.22,1.05,-3.39,19.42,95.34
0.001410,0.04,0.22,1.04,-2.82,17.34,95.44
0.001420,0.02,0.21,1.02,-0.90,14.35,93.40
0.001430,0.05,0.22,1.02,0.18,12.58,89.30
0.001450,0.09,0.25,1.08,-0.28,10.83,90.32
0.001460,0.12,0.27,1.16,-4.54,15.99,94.89
0.001470,0.12,0.23,1.11,-8.28,25.24,98.38
0.001490,0.10,0.20,1.08,-8.44,32.81,101.82
0.001500,0.06,0.18,1.05,-6.11,29.78,102.39
0.001520,0.03,0.19,1.03,-3.48,23.48,101.07
0.001530,0.04,0.21,1.06,-1.33,21.88,101.15
0.001540,0.03,0.25,1.10,-1.21,23.20,102.78
0.001560,0.01,0.26,1.11,-4.15,17.96,103.92
0.001570,0.03,0.25,1.09,-6.48,20.15,104.46
0.001580,0.02,0.25,1.05,-6.73,23.22,104.59
0.001600,-0.00,0.24,1.05,-5.34,24.79,105.04
0.001610,0.00,0.31,1.08,-6.66,19.02,106.08
0.001620,0.05,0.34,1.11,-10.34,25.15,109.54
0.001640,-0.01,0.30,1.10,-16.31,28.57,113.98
0.001650,-0.09,0.25,1.05,-20.06,24.65,111.44
0.001660,-0.13,0.20,1.00,-16.05,19.40,107.53
0.001680,-0.14,0.21,0.99,-15.17,14.49,103.55
0.001690,-0.12,0.22,0.98,-14.31,13.90,100.07
0.001700,-0.13,0.21,0.99,-15.44,18.85,97.40
0.001720,-0.14,0.18,0.96,-16.23,23.57,91.67
0.001730,-0.14,0.17,0.97,-12.21,13.16,89.48
0.001750,-0.11,0.17,1.00,-10.43,4.85,86.62
0.001760,-0.10,0.15,1.03,-4.49,0.14,83.89
0.001770,-0.03,0.17,1.11,-7.85,-5.02,82.75
0.001790,0.03,0.20,1.16,-16.72,0.47,88.05
0.001800,0.07,0.15,1.13,-27.82,4.84,93.61
0.001810,0.09,0.10,1.04,-23.08,1.95,102.93
0.001830,0.13,0.08,0.95,-12.28,4.20,110.10
0.001840,0.07,0.09,0.95,-2.35,5.92,107.76
0.001850,0.07,0.12,0.98,7.44,1.40,103.93
0.001870,0.10,0.17,1.02,12.24,-1.00,102.98
0.001880,0.16,0.25,1.06,14.25,7.40,108.73
0.001890,0.04,0.34,1.21,-0.56,3.02,115.35
0.001910,-0.04,0.30,1.20,-12.15,4.02,114.21
0.001920,-0.10,0.25,1.11,-10.37,4.15,105.02
0.001930,-0.08,0.23,1.03,-3.88,4.78,98.89
0.001950,-0.10,0.22,0.98,0.63,2.16,95.54
0.001960,-0.10,0.18,0.94,9.11,1.79,92.77
0.001970,-0.13,0.16,0.92,15.81,0.88,87.63
0.001990,-0.11,0.17,0.97,17.44,-3.42,85.02
0.002000,-0.09,0.20,1.09,12.16,-3.02,87.69
0.002010,-0.10,0.17,1.12,7.44,-1.77,85.45
0.002030,-0.14,0.17,1.14,2.22,-4.24,80.63
0.002040,-0.10,0.11,1.12,1.58,-6.44,76.96
0.002050,-0.14,0.15,1.10,1.17,-11.98,69.85
0.002070,-0.11,0.17,1.09,0.73,-12.05,65.89
0.002080,-0.08,0.15,1.04,5.11,-11.27,67.37
0.002090,-0.10,0.17,1.04,8.20,-8.22,67.12
0.002110,-0.09,0.18,1.06,9.63,0.40,66.94
0.002120,-0.12,0.19,1.10,9.11,6.26,66.88
0.002130,-0.18,0.18,1.12,7.79,12.92,64.28
0.002150,-0.22,0.20,1.14,2.78,11.73,59.79
0.002160,-0.25,0.20,1.15,-1.30,13.33,53.53
0.002170,-0.25,0.18,1.15,-5.82,12.76,45.95
0.002190,-0.25,0.16,1.11,-7.49,8.71,40.50
0.002200,-0.23,0.14,1.05,-4.95,8.67,35.82
0.002210,-0.25,0.13,1.01,-2.31,8.45,31.11
0.002230,-0.23,0.12,1.02,-1.10,13.45,29.53
0.002240,-0.24,0.11,1.02,0.44,21.73,25.81
0.002250,-0.26,0.13,1.08,-1.21,25.37,23.87
0.002270,-0.26,0.13,1.09,-2.99,18.96,20.81
0.002280,-0.24,0.12,1.07,-1.71,14.44,17.83
0.002290,-0.24,0.12,1.06,0.47,10.84,14.66
0.002310,-0.25,0.13,1.07,2.95,5.83,12.38
0.002320,-0.23,0.14,1.06,3.75,2.82,9.63
0.002330,-0.21,0.16,1.05,2.70,2.82,9.17
0.002350,-0.17,0.17,1.07,1.51,5.91,10.42
0.002360,-0.20,0.17,1.06,-1.69,9.85,8.79
0.002370,-0.22,0.15,1.06,-2.99,17.43,6.51
0.002390,-0.28,0.13,1.07,-2.89,9.62,0.40
0.002400,-0.26,0.14,1.09,-1.50,10.33,-6.47
0.002410,-0.25,0.15,1.07,-2.02,4.80,-11.60
0.002430,-0.21,0.14,1.05,-0.46,4.40,-14.76
0.002440,-0.21,0.16,1.03,0.03,3.56,-17.37
0.002450,-0.19,0.17,1.02,-0.02,2.79,-18.18
0.002470,-0.20,0.18,1.06,-1.29,0.87,-17.98
0.002480,-0.22,0.17,1.07,-3.69,-3.48,-20.47
0.002490,-0.20,0.15,1.05,-2.95,-5.89,-23.11
0.002510,-0.21,0.14,1.04,-2.70,-9.45,-26.74
0.002520,-0.21,0.15,1.03,-0.74,-8.64,-29.52
0.002540,-0.22,0.15,1.03,0.86,-9.82,-32.81
0.002550,-0.24,0.16,0.99,2.99,-14.94,-37.94
0.002560,-0.22,0.17,0.95,7.88,-17.60,-43.90
0.002580,-0.14,0.21,0.97,11.41,-16.67,-47.56
0.002590,-0.10,0.24,1.05,7.43,-14.11,-46.62
0.002600,-0.09,0.21,1.14,4.59,-6.06,-46.85
0.002620,-0.12,0.20,1.15,8.13,-11.54,-49.63
0.002630,-0.08,0.21,1.17,7.01,-13.06,-50.23
0.002640,-0.03,0.22,1.16,6.69,-11.92,-47.35
0.002660,-0.03,0.20,1.10,6.08,3.02,-44.35
0.002670,-0.06,0.22,1.12,1.94,6.35,-41.92
0.002680,-0.15,0.22,1.11,-5.80,7.66,-42.50
0.002700,-0.17,0.20,1.09,-6.03,-2.09,-46.08
0.002710,-0.15,0.24,1.08,-4.94,-6.87,-49.47
0.002720,-0.17,0.24,1.03,-6.99,-9.49,-50.04
0.002740,-0.15,0.21,1.01,-9.15,-10.12,-54.40
0.002750,-0.13,0.20,0.98,-3.15,-8.56,-56.53
0.002770,-0.10,0.19,1.00,-1.77,-10.71,-57.89
0.002780,-0.07,0.18,1.02,4.17,-8.87,-54.59
0.002790,-0.10,0.17,1.04,7.47,-16.75,-54.00
0.002810,-0.10,0.21,1.12,1.75,-20.35,-50.96
0.002820,-0.15,0.19,1.11,-9.21,-22.79,-51.66
0.002830,-0.14,0.18,1.04,-11.40,-23.47,-54.34
0.002850,-0.12,0.19,1.01,-8.94,-19.98,-58.14
0.002860,-0.15,0.24,1.07,-11.18,-23.11,-63.91
0.002870,-0.11,0.19,1.05,-14.24,-33.79,-71.94
0.002890,-0.03,0.17,0.98,-9.00,-29.02,-74.99
0.002900,-0.01,0.16,0.96,-5.85,-20.34,-75.37
0.002920,-0.05,0.14,0.92,0.71,-12.33,-76.45
0.002930,-0.14,0.14,0.97,5.65,-7.00,-78.32
0.002940,-0.17,0.16,1.05,4.96,-6.85,-82.78
0.002960,-0.21,0.17,1.08,0.28,-11.06,-88.39
0.002970,-0.21,0.16,1.05,0.56,-16.50,-96.73
0.002980,-0.18,0.17,1.04,2.34,-20.56,-103.92
0.003000,-0.19,0.18,1.04,-3.05,-26.71,-109.05
0.003010,-0.16,0.16,1.03,1.76,-32.40,-115.55
0.003020,-0.04,0.23,1.08,4.37,-33.51,-116.56
0.003040,0.02,0.28,1.14,1.20,-21.81,-113.14
0.003050,0.04,0.26,1.17,8.25,0.04,-105.66
0.003060,-0.14,0.29,1.04,-1.30,1.35,-106.60
0.003080,-0.04,0.22,1.08,3.26,-6.93,-105.89
0.003090,-0.08,0.22,1.09,1.04,-2.27,-106.85
0.003100,-0.08,0.23,1.09,-0.71,-7.70,-109.64
0.003120,-0.08,0.23,1.07,0.24,-14.87,-113.41
0.003130,-0.02,0.26,1.10,0.90,-18.52,-110.59
0.003150,0.02,0.27,1.11,-0.05,-9.66,-106.79
0.003160,-0.00,0.27,1.10,-3.82,-5.56,-104.68
0.003170,-0.04,0.23,1.07,-5.57,-6.26,-104.52
0.003190,-0.05,0.22,1.06,-5.08,-6.07,-105.85
0.003200,-0.05,0.21,1.05,-2.16,-2.13,-108.96
0.003210,-0.06,0.23,1.04,-0.60,-6.50,-113.21
0.003230,-0.03,0.26,1.09,-1.50,-10.44,-115.50
0.003240,-0.02,0.26,1.07,-2.04,-10.95,-115.11
0.003250,0.02,0.26,1.06,-1.53,-16.24,-114.13
0.003270,0.03,0.28,1.07,-4.80,-16.29,-110.95
0.003280,0.03,0.24,1.06,-3.59,-13.26,-110.00
0.003300,0.05,0.24,1.07,-3.29,-10.47,-109.11
0.003310,0.01,0.21,1.04,-0.77,-5.33,-109.77
0.003320,0.02,0.23,1.06,-1.11,-4.11,-112.50
0.003340,-0.01,0.22,1.07,-2.68,-0.37,-119.00
0.003350,-0.03,0.25,1.10,-5.83,0.02,-124.63
0.003360,-0.00,0.23,1.06,-5.23,-6.15,-126.66
0.003380,0.04,0.22,1.00,-1.56,-13.37,-123.21
0.003390,0.06,0.24,0.99,-1.68,-18.23,-118.12
0.003400,0.05,0.23,1.02,1.09,-20.32,-115.49
0.003420,0.08,0.25,1.08,1.53,-14.93,-112.44
0.003430,0.09,0.25,1.07,-0.41,-12.88,-110.02
0.003450,0.10,0.23,1.07,-0.07,-16.69,-107.04
0.003460,0.10,0.23,1.05,-0.33,-16.29,-105.22
0.003470,0.12,0.23,1.04,-0.21,-17.40,-104.05
0.003490,0.14,0.22,1.05,1.11,-9.35,-100.88
0.003500,0.13,0.21,1.07,0.82,-8.69,-99.25
0.003510,0.12,0.22,1.09,-1.76,-8.53,-97.61
0.003530,0.10,0.21,1.10,-4.41,-7.48,-96.57
0.003540,0.10,0.20,1.08,-6.25,-6.21,-93.80
0.003550,0.08,0.18,1.02,-5.56,-2.60,-92.35
0.003570,0.09,0.16,0.98,-1.51,1.42,-92.60
0.003580,0.08,0.15,0.99,3.07,-0.94,-92.28
0.003590,0.08,0.16,1.03,6.82,-1.93,-90.47
0.003610,0.09,0.17,1.04,6.58,-0.79,-88.82
0.003620,0.05,0.19,1.10,0.78,-9.00,-87.04
0.003630,0.07,0.19,1.07,-1.72,-7.26,-86.16
0.003650,0.10,0.17,1.05,-1.86,-7.50,-85.31
0.003660,0.13,0.16,1.02,0.96,-6.56,-83.27
0.003670,0.15,0.17,1.04,1.16,-7.21,-80.79
0.003690,0.13,0.17,1.07,1.73,-10.34,-76.38
0.003700,0.11,0.17,1.09,-0.59,-12.35,-73.79
0.003710,0.09,0.14,1.08,-1.72,-12.77,-73.41
0.003730,0.11,0.14,1.08,-0.54,-11.03,-71.36
0.003740,0.10,0.14,1.06,-0.60,-8.63,-70.23
0.003750,0.12,0.13,1.05,0.58,-9.45,-69.73
0.003770,0.14,0.14,1.05,0.69,-7.41,-67.85
0.003780,0.14,0.13,1.04,1.66,-4.66,-65.73
0.003790,0.14,0.13,1.07,0.47,-7.35,-63.06
0.003810,0.11,0.13,1.10,-1.76,-5.40,-60.05
0.003820,0.10,0.10,1.08,-1.82,-4.23,-60.08
0.003830,0.10,0.09,1.08,-1.46,-7.39,-60.11
0.003850,0.11,0.11,1.08,-0.79,-9.31,-58.30
0.003860,0.12,0.10,1.06,-1.02,-8.37,-55.79
0.003880,0.10,0.08,1.04,0.26,-7.40,-53.28
0.003890,0.08,0.08,1.04,2.44,-8.50,-52.40
0.003900,0.08,0.10,1.07,2.82,-11.54,-52.83
0.003920,0.13,0.10,1.10,3.21,-11.44,-52.52
0.003930,0.17,0.10,1.10,2.53,-12.63,-50.47
0.003940,0.22,0.10,1.10,1.73,-7.07,-46.55
0.003960,0.23,0.10,1.08,-0.07,-4.33,-41.27
0.003970,0.24,0.07,1.05,0.92,-3.08,-36.23
0.003980,0.21,0.08,1.06,0.84,-4.76,-30.50
0.004000,0.20,0.07,1.07,2.49,-2.91,-26.82
0.004010,0.17,0.06,1.06,2.92,-1.90,-24.50
0.004020,0.13,0.07,1.07,1.46,-3.12,-24.48
0.004040,0.13,0.08,1.08,-0.89,-4.90,-23.97
0.004050,0.15,0.06,1.05,-1.10,-7.78,-21.79
0.004060,0.16,0.07,1.05,-1.43,-8.63,-17.79
0.004080,0.15,0.06,1.04,0.85,-5.17,-14.88
0.004090,0.13,0.07,1.07,-0.28,-7.15,-11.32
0.004100,0.11,0.08,1.07,-1.21,-1.54,-8.06
0.004120,0.08,0.05,1.03,-2.22,-4.09,-9.03
0.004130,0.08,0.03,1.02,1.44,-3.80,-8.94
0.004140,0.11,0.05,1.07,2.91,-7.18,-8.60
0.004160,0.14,0.06,1.09,2.60,-6.57,-3.72
0.004170,0.15,0.06,1.09,1.08,-8.11,0.08
0.004180,0.13,0.08,1.10,-0.27,-10.73,2.02
0.004200,0.12,0.07,1.11,-2.91,-12.47,3.88
0.004210,0.09,0.06,1.08,-4.81,-12.07,4.47
0.004220,0.08,0.03,1.05,-2.52,-2.02,3.47
0.004240,0.07,0.02,1.02,0.52,0.51,1.76
0.004250,0.07,0.01,1.03,2.87,2.36,0.98
0.004260,0.08,0.02,1.06,4.23,-4.06,2.50
0.004280,0.10,0.05,1.09,2.11,-7.79,5.25
0.004290,0.12,0.07,1.13,-0.61,-6.17,8.42
0.004300,0.12,0.08,1.14,-5.73,-5.24,11.69
0.004320,0.09,0.06,1.10,-6.45,-3.54,13.15
0.004330,0.07,0.02,1.06,-5.02,-4.45,12.64
0.004340,0.07,0.02,1.03,-1.47,-5.01,12.11
0.004360,0.06,0.02,1.03,2.47,-2.95,13.00
0.004370,0.05,0.05,1.07,2.73,-8.79,13.11
0.004380,0.06,0.04,1.10,2.25,-10.23,13.48
0.004400,0.06,0.07,1.13,-1.03,-9.05,13.53
0.004410,0.08,0.06,1.10,-2.69,-6.76,13.44
0.004420,0.08,0.06,1.08,-3.72,-7.35,13.12
0.004440,0.10,0.06,1.07,-1.88,-4.29,13.95
0.004450,0.07,0.07,1.08,-1.92,-6.01,13.71
0.004460,0.06,0.06,1.08,-0.92,-4.98,12.98
0.004480,0.05,0.08,1.11,-2.66,-3.18,12.81
0.004490,0.05,0.08,1.11,-7.12,-2.19,13.00
0.004500,0.04,0.05,1.08,-8.53,-3.20,12.82
0.004520,0.05,0.05,1.07,-8.00,-4.62,13.14
0.004530,0.06,0.04,1.05,-6.53,2.07,13.66
0.004540,0.00,0.04,1.03,-5.05,-2.27,12.21
0.004560,0.02,0.04,1.03,-3.92,-4.87,11.44
0.004570,0.00,0.04,1.04,-0.34,-4.51,10.32
0.004580,0.04,0.05,1.07,-0.55,-7.27,9.21
0.004600,0.05,0.05,1.09,-0.24,-7.40,9.60
0.004610,0.07,0.07,1.10,-1.08,-8.44,10.08
0.004620,0.07,0.07,1.09,-1.66,-9.00,11.59
0.004640,0.07,0.07,1.09,-2.56,-4.55,13.20
0.004650,0.04,0.06,1.11,-3.40,-0.63,13.11
0.004660,0.02,0.06,1.09,-3.48,-1.13,12.22
0.004680,0.03,0.05,1.08,-2.85,-2.11,11.91
0.004690,0.03,0.05,1.06,-1.76,-1.46,12.04
0.004700,0.03,0.05,1.09,-1.70,-2.09,11.42
0.004720,0.01,0.06,1.08,-2.12,-0.92,10.48
0.004730,0.02,0.05,1.07,-1.52,-0.87,9.74
0.004740,0.02,0.06,1.08,-3.84,-0.83,9.80
0.004760,0.01,0.05,1.05,-3.23,2.18,9.21
0.004770,0.01,0.05,1.07,-2.56,-0.71,8.15
0.004780,0.01,0.04,1.09,-3.70,-1.73,6.97
0.004800,0.03,0.04,1.08,-3.15,-2.42,6.38
0.004810,0.04,0.04,1.07,-1.40,-2.87,5.60
0.004820,0.03,0.05,1.07,-0.35,-0.44,4.76
0.004840,0.05,0.04,1.06,0.49,-1.71,4.56
0.004850,0.05,0.05,1.08,0.35,-1.95,5.27
0.004860,0.05,0.05,1.09,-0.56,1.11,5.10
0.004880,0.04,0.05,1.10,-0.32,-1.46,4.58
0.004890,0.04,0.07,1.10,-1.69,-5.61,4.89
0.004900,0.05,0.07,1.10,-4.60,2.38,5.58
0.004920,0.04,0.04,1.07,-4.80,-1.59,3.92
0.004930,0.05,0.04,1.04,-2.88,-2.36,4.12
0.004940,0.06,0.04,1.03,-1.13,-3.55,3.50
0.004950,0.06,0.05,1.05,0.85,1.12,3.55
0.004970,0.06,0.06,1.07,0.62,-0.60,3.15
0.004980,0.06,0.06,1.06,0.48,-1.98,3.65
0.004990,0.07,0.07,1.09,-0.48,0.40,3.95
0.005010,0.06,0.06,1.08,-1.94,1.13,3.89
0.005020,0.06,0.05,1.07,-1.94,-1.53,3.96
0.005030,0.05,0.05,1.05,-0.90,-1.97,4.50
0.005050,0.05,0.05,1.05,-0.68,-1.77,4.57
0.005060,0.04,0.05,1.07,-1.15,-5.31,4.54
0.005070,0.03,0.05,1.07,-1.42,-7.39,4.71
0.005090,0.02,0.05,1.09,-2.53,-7.65,4.91
0.005100,0.02,0.04,1.07,-3.38,-9.30,3.83
0.005110,0.04,0.04,1.06,-2.48,-9.50,2.64
0.005130,0.04,0.05,1.05,-1.36,-9.71,1.07
0.005140,0.05,0.04,1.04,0.22,-7.45,-0.60
0.005150,0.09,0.05,1.05,1.84,-2.95,-1.26
0.005170,0.09,0.06,1.07,2.15,-3.46,-0.69
0.005180,0.10,0.07,1.09,2.22,-2.82,0.11
0.005190,0.10,0.07,1.10,1.61,-3.53,0.85
0.005210,0.12,0.07,1.12,-0.22,-1.82,1.34
0.005220,0.11,0.07,1.11,-2.76,-0.50,2.37
0.005230,0.10,0.05,1.10,-3.81,-0.17,2.21
0.005250,0.09,0.05,1.09,-3.51,-1.50,2.40
0.005260,0.09,0.05,1.08,-2.41,-0.25,3.07
0.005270,0.07,0.04,1.08,-1.64,1.71,3.05
0.005290,0.06,0.04,1.09,-0.66,1.00,2.89
0.005300,0.07,0.05,1.09,-0.78,1.10,3.47
0.005310,0.06,0.06,1.12,-3.76,-3.16,4.85
0.005330,0.03,0.06,1.13,-6.96,-5.59,5.53
0.005340,0.02,0.07,1.11,-10.86,-11.75,5.83
0.005350,0.02,0.05,1.09,-12.89,-11.07,4.57
0.005370,0.01,0.02,1.06,-11.25,-5.40,1.60
0.005380,0.01,0.02,1.03,-6.50,-4.93,-2.28
0.005390,0.04,0.02,1.02,-3.23,-5.99,-4.18
0.005410,0.05,0.02,1.00,1.01,-5.11,-5.69
0.005420,0.08,0.02,1.01,3.95,-7.89,-7.11
0.005430,0.11,0.05,1.04,4.31,-4.99,-6.31
0.005450,0.13,0.08,1.08,0.78,-4.10,-4.15
0.005460,0.15,0.08,1.08,-1.05,3.13,-2.04
0.005470,0.17,0.07,1.07,-1.01,7.97,-0.16
0.005490,0.13,0.07,1.09,-1.85,3.02,2.63
0.005500,0.10,0.07,1.08,-1.89,2.55,3.95
0.005510,0.09,0.07,1.08,-2.25,4.76,3.66
0.005530,0.16,0.09,1.07,-3.91,14.07,4.47
0.005540,0.18,0.10,1.08,-7.24,24.23,11.63
0.005550,0.13,0.09,1.12,-10.51,28.11,18.09
0.005570,0.04,0.06,1.15,-14.56,25.76,20.20
0.005580,-0.02,0.03,1.11,-15.82,22.97,18.34
0.005590,-0.04,-0.01,1.05,-13.06,19.44,14.08
0.005610,-0.09,-0.03,1.03,-7.11,12.88,8.27
0.005620,-0.10,-0.04,1.04,-1.08,4.05,1.19
0.005630,-0.05,-0.02,1.04,2.72,-4.84,-4.50
0.005650,-0.01,0.01,1.06,3.67,-10.35,-6.40
0.005660,0.03,0.04,1.09,2.34,-13.04,-6.36
0.005670,0.05,0.04,1.09,0.52,-14.36,-5.89
0.005690,0.11,0.06,1.09,-1.65,-6.08,-4.26
0.005700,0.10,0.05,1.08,-2.88,0.07,-1.04
0.005710,0.08,0.05,1.08,-2.89,-1.73,0.24
0.005730,0.09,0.05,1.09,-2.26,0.63,0.48
0.005740,0.12,0.07,1.08,-3.80,4.65,0.79
0.005750,0.18,0.09,1.07,-7.22,15.83,4.63
0.005770,0.18,0.08,1.08,-8.67,25.18,12.02
0.005780,0.11,0.08,1.09,-11.11,32.34,17.82
0.005790,0.03,0.05,1.09,-12.53,33.89,19.63
0.005810,-0.04,0.03,1.10,-12.81,30.60,18.02
0.005820,-0.10,-0.00,1.08,-12.37,23.74,15.20
0.005830,-0.13,-0.02,1.05,-9.94,14.05,9.62
0.005850,-0.12,-0.04,1.02,-4.94,4.54,3.28
0.005860,-0.10,-0.02,1.02,-0.14,-1.03,-1.34
0.005870,-0.06,-0.01,1.03,2.01,-2.18,-4.53
0.005890,-0.03,0.01,1.04,2.51,-4.40,-6.34
0.005900,-0.01,0.03,1.07,1.40,-6.26,-6.38
0.005910,0.02,0.03,1.08,0.24,-5.96,-5.44
0.005930,0.02,0.03,1.08,0.22,-3.06,-4.05
0.005940,0.02,0.03,1.08,0.11,-2.01,-3.09
0.005950,0.00,0.03,1.09,-0.24,-3.79,-2.99
0.005970,0.02,0.03,1.10,-1.48,-4.47,-1.52
0.005980,0.02,0.03,1.10,-1.82,-1.66,-1.18
0.005990,0.01,0.03,1.09,-1.99,-1.30,-0.27
0.006010,0.01,0.02,1.07,-0.81,1.08,0.99
0.006020,-0.01,0.02,1.09,-1.63,-2.56,0.75
0.006030,-0.02,0.02,1.10,-1.80,-4.05,0.04
0.006050,-0.02,0.02,1.08,-2.58,-3.95,-0.67
0.006060,-0.01,0.01,1.05,-0.93,-2.21,-2.07
0.006070,-0.01,0.02,1.07,0.17,-4.39,-2.96
0.006090,0.01,0.03,1.09,-0.56,-4.06,-2.63
0.006100,0.03,0.02,1.07,-1.08,-2.42,-1.51
0.006110,0.02,0.02,1.08,-0.24,-1.29,-0.93
0.006130,0.01,0.04,1.09,-0.38,-0.60,0.15
0.006140,0.00,0.03,1.08,-2.03,-2.40,0.81
0.006150,-0.00,0.02,1.07,-0.95,-1.25,0.69
0.006170,-0.01,0.02,1.08,-0.64,-2.55,-0.36
0.006180,-0.02,0.03,1.07,-0.91,-4.83,-0.77
0.006190,-0.01,0.02,1.05,-0.32,-6.10,-1.07
0.006210,0.01,0.04,1.08,-1.01,-4.44,-0.65
0.006220,0.01,0.03,1.08,-1.92,-2.96,-0.20
0.006230,0.00,0.02,1.05,-2.47,-3.70,0.06
0.006250,0.02,0.02,1.05,-1.29,-2.05,-0.48
0.006260,0.01,0.02,1.06,0.92,0.73,-0.03
0.006270,0.00,0.03,1.06,1.73,-1.50,0.01
0.006290,0.00,0.03,1.06,2.63,-3.92,0.41
0.006300,0.01,0.04,1.09,1.98,-2.26,-0.08
0.006310,-0.01,0.04,1.10,0.79,-2.28,-0.53
0.006330,0.00,0.03,1.06,0.70,-3.60,-0.95
0.006340,0.01,0.03,1.06,-0.27,-5.12,-0.27
0.006350,-0.00,0.03,1.08,-0.62,-3.47,-0.22
0.006370,-0.00,0.02,1.07,0.13,-7.04,-0.82
0.006380,0.01,0.03,1.07,0.85,-8.57,-1.18
0.006390,0.04,0.03,1.08,0.55,-4.30,-0.73
0.006410,0.03,0.04,1.08,-0.47,-3.11,-0.36
0.006420,0.02,0.03,1.09,-0.47,-4.56,-0.09
0.006430,0.02,0.04,1.06,0.08,-3.80,-0.78
0.006450,0.03,0.03,1.07,1.03,1.50,-0.37
0.006460,0.02,0.03,1.08,0.61,-1.73,-0.04
0.006470,0.02,0.03,1.07,0.83,-3.11,0.51
0.006490,0.02,0.04,1.08,-0.69,-3.35,0.30
0.006500,0.01,0.02,1.07,-0.10,-0.71,-0.02
0.006510,0.01,0.02,1.06,1.23,-2.92,-0.36
0.006530,0.02,0.04,1.08,1.31,-5.31,-0.85
0.006540,0.03,0.04,1.10,-0.07,-0.34,-0.23
0.006550,0.03,0.03,1.09,-0.50,-2.43,-0.18
0.006570,0.04,0.05,1.10,-1.56,-1.82,0.71
0.006580,0.04,0.05,1.10,-2.27,3.15,2.15
0.006590,0.02,0.03,1.08,-2.09,1.87,2.26
0.006610,0.01,0.03,1.07,-0.70,1.59,2.17
0.006620,0.01,0.04,1.09,-0.65,3.18,1.62
0.006630,-0.00,0.03,1.08,-0.43,1.42,0.66
0.006650,0.01,0.03,1.08,-0.17,-0.41,0.49
0.006660,0.02,0.04,1.08,-0.69,0.05,1.04
0.006670,0.01,0.05,1.10,-1.90,1.27,0.73
