Time,acce_x,acce_y,acce_z,gyro_x,gyro_y, gyro_z
0.000,0.268,-0.211,0.840,-14.443,-2.534,-5.053
0.000,0.255,-0.202,0.834,-14.290,-2.290,-4.992
0.010,0.250,-0.201,0.868,-14.336,-1.450,-4.824
0.010,0.247,-0.205,0.874,-13.802,-0.351,-4.351
0.010,0.226,-0.204,0.882,-12.824,0.763,-3.542
0.020,0.217,-0.197,0.893,-12.366,0.992,-2.595
0.020,0.215,-0.200,0.909,-11.130,1.740,-1.511
0.020,0.212,-0.204,0.902,-9.878,2.947,-0.534
0.030,0.219,-0.206,0.908,-8.687,4.366,0.611
0.030,0.217,-0.202,0.907,-7.634,5.115,1.466
0.030,0.220,-0.199,0.913,-6.473,5.924,2.290
0.040,0.224,-0.201,0.907,-5.710,6.672,2.870
0.040,0.231,-0.200,0.889,-4.947,7.527,3.191
0.040,0.238,-0.192,0.887,-4.641,8.489,3.603
0.050,0.240,-0.197,0.879,-4.794,8.931,3.893
0.050,0.237,-0.184,0.876,-4.885,8.458,4.031
0.060,0.243,-0.180,0.878,-5.374,7.420,4.198
0.060,0.246,-0.184,0.867,-5.618,6.397,4.168
0.060,0.251,-0.180,0.873,-6.366,5.389,4.061
0.070,0.258,-0.192,0.872,-6.580,4.824,3.786
0.070,0.255,-0.180,0.873,-6.748,3.924,3.557
0.080,0.253,-0.198,0.884,-6.779,2.733,3.282
0.080,0.256,-0.201,0.894,-6.840,1.145,2.962
0.080,0.259,-0.198,0.901,-6.260,0.641,2.779
0.090,0.280,-0.203,0.903,-5.496,-0.351,2.519
0.090,0.277,-0.211,0.893,-5.221,-0.977,1.817
0.090,0.267,-0.209,0.900,-4.931,-1.420,1.725
0.100,0.271,-0.211,0.901,-4.931,-1.374,1.389
0.100,0.273,-0.219,0.906,-4.229,-1.802,0.443
0.110,0.254,-0.226,0.908,-3.847,-2.748,-0.153
0.110,0.237,-0.225,0.909,-3.664,-3.588,-0.275
0.110,0.236,-0.231,0.914,-3.053,-3.527,-0.565
0.120,0.217,-0.246,0.910,-2.290,-4.214,-0.244
0.120,0.208,-0.247,0.924,-1.237,-5.282,0.260
0.130,0.199,-0.243,0.916,-0.427,-5.878,0.672
0.130,0.208,-0.252,0.916,0.107,-5.664,1.267
0.130,0.209,-0.250,0.925,0.519,-5.435,1.649
0.140,0.210,-0.249,0.944,1.313,-5.069,2.351
0.140,0.211,-0.249,0.936,2.046,-5.252,2.885
0.150,0.219,-0.244,0.935,1.985,-4.870,2.992
0.150,0.239,-0.238,0.941,2.168,-3.695,3.160
0.150,0.242,-0.232,0.939,2.947,-1.588,3.435
0.160,0.243,-0.226,0.934,2.962,0.305,3.695
0.160,0.242,-0.219,0.921,3.115,1.389,3.985
0.170,0.241,-0.225,0.929,3.374,1.588,4.321
0.170,0.246,-0.218,0.920,3.420,2.137,4.229
0.170,0.246,-0.210,0.913,3.466,3.053,4.244
0.180,0.253,-0.210,0.901,3.328,3.969,4.015
0.180,0.244,-0.207,0.912,3.618,4.198,3.786
0.190,0.237,-0.202,0.902,3.435,4.000,3.756
0.190,0.236,-0.201,0.898,3.511,4.015,3.756
0.190,0.240,-0.202,0.895,3.557,4.000,3.969
0.200,0.248,-0.204,0.899,3.588,3.924,3.710
0.200,0.249,-0.206,0.914,3.313,3.817,3.389
0.200,0.260,-0.203,0.908,3.359,3.954,3.115
0.210,0.252,-0.202,0.912,3.344,3.389,2.382
0.210,0.251,-0.205,0.926,3.160,2.901,1.817
0.220,0.250,-0.202,0.913,3.298,2.168,1.267
0.220,0.249,-0.203,0.925,3.389,1.588,0.519
0.220,0.236,-0.199,0.922,3.344,0.901,-0.092
0.230,0.233,-0.201,0.923,3.603,0.260,-0.412
0.230,0.224,-0.202,0.915,3.969,-0.687,-0.718
0.240,0.217,-0.198,0.898,3.756,-2.107,-0.824
0.240,0.214,-0.197,0.915,3.649,-3.160,-0.840
0.240,0.214,-0.189,0.918,4.137,-3.573,-0.595
0.250,0.220,-0.198,0.922,4.794,-3.939,-0.534
0.250,0.209,-0.187,0.912,5.481,-4.336,-0.611
0.260,0.213,-0.188,0.911,5.725,-4.153,-0.092
0.260,0.218,-0.178,0.903,5.847,-3.374,0.000
0.260,0.223,-0.181,0.901,6.061,-2.534,0.137
0.270,0.225,-0.176,0.898,6.550,-1.405,-0.015
0.270,0.220,-0.181,0.884,6.763,-0.580,-0.015
0.270,0.218,-0.179,0.881,6.336,-0.214,0.046
0.280,0.221,-0.170,0.882,6.198,0.885,0.046
0.280,0.219,-0.168,0.889,6.321,1.924,0.183
0.290,0.208,-0.169,0.890,6.000,2.901,0.580
0.290,0.210,-0.168,0.879,5.618,3.847,0.824
0.290,0.217,-0.173,0.872,5.069,4.107,1.298
0.300,0.214,-0.166,0.867,4.794,4.260,1.344
0.300,0.211,-0.155,0.853,3.908,3.939,1.588
0.310,0.211,-0.157,0.857,3.069,3.969,1.634
0.310,0.212,-0.162,0.865,2.595,4.061,1.511
0.310,0.206,-0.169,0.871,2.580,3.527,1.450
0.320,0.198,-0.176,0.883,2.458,2.779,1.405
0.320,0.182,-0.176,0.869,2.534,2.015,1.649
0.320,0.185,-0.174,0.865,2.412,1.282,1.634
0.330,0.188,-0.180,0.887,2.473,0.580,1.603
0.330,0.183,-0.179,0.889,2.870,0.046,1.664
0.340,0.179,-0.185,0.894,3.588,-0.290,2.076
0.340,0.159,-0.182,0.883,4.015,-0.183,2.382
0.340,0.154,-0.177,0.882,4.641,-0.229,2.947
0.350,0.158,-0.179,0.875,4.718,-0.153,3.313
0.350,0.166,-0.170,0.858,5.023,0.656,3.725
0.360,0.169,-0.173,0.851,5.160,1.267,3.954
0.360,0.160,-0.167,0.852,4.824,1.786,4.336
0.360,0.142,-0.168,0.837,4.794,1.695,4.565
0.370,0.149,-0.166,0.831,4.458,1.282,4.992
0.370,0.147,-0.163,0.813,3.893,0.382,5.313
0.370,0.148,-0.160,0.814,3.191,-0.382,5.542
0.380,0.146,-0.160,0.813,2.443,-1.115,5.847
0.380,0.146,-0.162,0.818,1.282,-2.183,6.595
0.390,0.151,-0.159,0.823,0.275,-3.115,6.672
0.390,0.157,-0.164,0.820,-0.321,-3.893,6.565
0.390,0.148,-0.163,0.835,-0.718,-3.634,7.038
0.400,0.143,-0.165,0.834,-1.053,-4.031,7.603
0.400,0.131,-0.162,0.830,-1.313,-4.443,8.290
0.410,0.142,-0.165,0.831,-1.710,-5.160,8.992
0.410,0.142,-0.162,0.850,-1.878,-4.855,9.863
0.410,0.146,-0.163,0.862,-1.679,-4.580,10.656
0.420,0.145,-0.165,0.865,-1.496,-4.015,11.374
0.420,0.151,-0.162,0.870,-1.542,-3.557,12.214
0.430,0.170,-0.155,0.873,-1.832,-2.870,12.992
0.430,0.185,-0.160,0.876,-2.489,-2.489,13.542
0.430,0.202,-0.158,0.894,-2.626,-1.130,13.588
0.440,0.221,-0.162,0.909,-2.275,0.015,13.603
0.440,0.228,-0.162,0.913,-2.076,0.107,13.389
0.450,0.233,-0.165,0.913,-1.511,0.198,12.687
0.450,0.243,-0.171,0.914,-1.221,-0.305,12.168
0.450,0.245,-0.166,0.918,-0.733,0.046,11.573
0.460,0.250,-0.178,0.936,0.427,0.580,11.115
0.460,0.245,-0.176,0.945,1.435,0.534,10.748
0.470,0.243,-0.173,0.933,2.687,0.672,10.504
0.470,0.239,-0.171,0.927,3.313,-0.061,9.985
0.470,0.244,-0.168,0.917,3.832,-0.916,9.389
0.480,0.260,-0.172,0.916,4.382,-1.679,8.595
0.480,0.254,-0.168,0.901,5.023,-2.397,7.786
0.490,0.248,-0.167,0.903,5.374,-2.748,6.870
0.490,0.245,-0.167,0.905,5.496,-3.176,6.412
0.490,0.237,-0.168,0.898,5.695,-3.695,5.878
0.500,0.228,-0.164,0.887,5.557,-4.794,5.710
0.500,0.228,-0.165,0.891,5.527,-5.160,5.405
0.510,0.224,-0.168,0.896,5.450,-4.794,5.695
0.510,0.222,-0.171,0.903,5.740,-4.641,5.557
0.510,0.232,-0.169,0.894,5.756,-4.061,5.542
0.520,0.232,-0.172,0.884,5.954,-3.130,5.420
0.520,0.240,-0.173,0.899,6.137,-1.985,5.618
0.530,0.235,-0.169,0.886,5.954,-1.008,5.450
0.530,0.239,-0.168,0.894,5.847,-0.122,5.573
0.530,0.240,-0.167,0.894,5.985,1.130,5.603
0.540,0.241,-0.167,0.897,5.740,2.061,5.542
0.540,0.249,-0.158,0.896,5.664,2.947,5.649
0.540,0.249,-0.158,0.893,5.847,3.969,5.191
0.550,0.255,-0.160,0.889,5.802,4.595,4.870
0.550,0.249,-0.160,0.882,5.817,5.160,4.504
0.560,0.253,-0.155,0.882,6.015,5.359,4.046
0.560,0.250,-0.155,0.873,6.198,5.603,3.389
0.560,0.241,-0.150,0.879,6.122,5.496,2.840
0.570,0.244,-0.148,0.856,6.015,5.206,2.366
0.570,0.230,-0.149,0.848,5.740,4.702,2.183
0.570,0.222,-0.145,0.849,5.115,3.863,1.771
0.580,0.220,-0.146,0.856,4.840,3.069,1.649
0.580,0.221,-0.156,0.854,4.519,2.733,1.191
0.590,0.224,-0.152,0.857,4.321,3.160,1.191
0.590,0.218,-0.145,0.856,4.092,4.214,0.992
0.590,0.219,-0.151,0.854,3.924,4.779,1.344
0.600,0.227,-0.144,0.848,3.695,5.038,1.344
0.600,0.242,-0.150,0.840,3.115,5.420,1.084
0.610,0.232,-0.147,0.844,3.115,6.031,0.763
0.610,0.220,-0.155,0.836,2.870,6.458,1.206
0.610,0.226,-0.148,0.825,2.122,6.916,1.053
0.620,0.231,-0.137,0.826,1.435,7.450,0.870
0.620,0.244,-0.136,0.818,0.290,7.206,0.382
0.620,0.240,-0.137,0.827,0.046,7.145,-0.092
0.630,0.234,-0.144,0.841,0.015,6.641,-1.038
0.630,0.225,-0.142,0.827,-0.183,4.947,-1.634
0.640,0.219,-0.146,0.837,-0.473,2.947,-2.489
0.640,0.225,-0.154,0.839,-0.870,1.634,-3.511
0.640,0.227,-0.158,0.846,-0.687,0.229,-4.427
0.650,0.213,-0.156,0.848,-0.458,-1.130,-5.053
0.650,0.203,-0.162,0.860,-0.351,-3.176,-5.496
0.660,0.200,-0.170,0.854,-0.351,-4.336,-5.573
0.660,0.202,-0.161,0.873,-0.382,-5.099,-4.916
0.660,0.187,-0.167,0.870,-0.626,-5.466,-4.336
0.670,0.209,-0.169,0.884,-0.763,-5.115,-3.557
0.670,0.218,-0.170,0.880,-0.779,-4.641,-3.344
0.680,0.223,-0.175,0.892,-0.504,-3.252,-2.931
0.680,0.234,-0.177,0.900,-0.214,-2.092,-2.397
0.690,0.237,-0.179,0.907,0.290,-0.840,-2.336
0.690,0.236,-0.182,0.894,0.794,0.137,-2.427
0.690,0.238,-0.173,0.898,0.885,0.351,-2.427
0.700,0.245,-0.180,0.881,0.947,-0.092,-2.687
0.700,0.258,-0.171,0.893,1.160,-0.382,-2.977
0.700,0.265,-0.170,0.894,1.282,-0.824,-3.511
0.710,0.277,-0.160,0.894,1.435,-0.641,-4.153
0.710,0.276,-0.164,0.884,2.000,-0.779,-4.702
0.720,0.269,-0.161,0.879,2.046,-1.023,-5.023
0.720,0.264,-0.158,0.868,1.908,-1.664,-5.328
0.720,0.269,-0.154,0.859,1.756,-1.939,-5.786
0.730,0.277,-0.154,0.853,1.573,-1.588,-6.153
0.730,0.270,-0.156,0.858,1.695,-1.069,-6.641
0.740,0.258,-0.150,0.860,1.496,-0.855,-6.977
0.740,0.253,-0.153,0.846,1.130,-0.168,-7.130
0.740,0.252,-0.153,0.840,0.534,0.962,-6.901
0.750,0.241,-0.148,0.857,-0.122,2.092,-6.855
0.750,0.230,-0.148,0.845,-0.885,2.122,-6.504
0.760,0.231,-0.148,0.848,-1.969,1.710,-6.382
0.760,0.232,-0.145,0.850,-2.534,1.328,-6.412
0.760,0.233,-0.155,0.854,-3.176,1.389,-6.382
0.770,0.237,-0.154,0.858,-3.786,1.527,-6.076
0.770,0.243,-0.157,0.864,-3.969,1.267,-6.183
0.780,0.241,-0.157,0.873,-4.107,0.656,-6.183
0.780,0.236,-0.157,0.861,-4.076,-0.550,-6.305
0.780,0.251,-0.162,0.896,-3.771,-1.618,-6.855
0.790,0.265,-0.163,0.885,-3.145,-1.985,-7.389
0.790,0.266,-0.168,0.899,-2.443,-1.939,-7.725
0.800,0.263,-0.163,0.900,-1.618,-2.229,-7.969
0.800,0.258,-0.163,0.902,-1.099,-2.397,-7.954
0.810,0.272,-0.160,0.898,-0.672,-2.427,-7.939
0.810,0.274,-0.161,0.902,-0.015,-1.679,-8.305
0.810,0.280,-0.165,0.901,0.794,-0.718,-8.748
0.820,0.281,-0.160,0.895,1.069,-1.023,-9.282
0.820,0.282,-0.160,0.897,0.870,-0.870,-9.481
0.830,0.284,-0.159,0.900,1.389,0.321,-9.954
0.830,0.295,-0.158,0.890,1.939,1.435,-9.802
0.830,0.283,-0.163,0.881,1.725,1.588,-10.107
0.840,0.288,-0.162,0.868,1.267,1.878,-10.443
0.840,0.295,-0.163,0.860,0.901,1.878,-10.931
0.850,0.291,-0.159,0.870,0.580,1.985,-11.450
0.850,0.290,-0.167,0.869,0.092,1.405,-11.679
0.850,0.277,-0.166,0.859,-0.427,0.656,-11.908
0.860,0.279,-0.167,0.847,-1.176,-0.519,-11.817
0.860,0.282,-0.171,0.855,-1.969,-1.130,-12.122
0.870,0.290,-0.176,0.858,-2.183,-1.130,-12.183
0.870,0.308,-0.187,0.863,-3.176,-1.863,-12.305
0.870,0.312,-0.190,0.874,-3.756,-2.473,-12.702
0.880,0.339,-0.198,0.892,-3.603,-1.634,-13.359
0.880,0.361,-0.207,0.895,-3.069,-0.443,-14.107
0.890,0.377,-0.205,0.894,-3.176,0.779,-14.962
0.890,0.387,-0.213,0.893,-3.084,1.771,-15.954
0.890,0.383,-0.217,0.896,-2.702,2.336,-16.672
0.900,0.385,-0.219,0.917,-2.290,2.611,-17.221
0.900,0.400,-0.224,0.904,-1.863,3.176,-17.832
0.910,0.418,-0.225,0.906,-1.420,3.695,-18.595
0.910,0.432,-0.217,0.910,-0.855,4.107,-19.649
0.910,0.441,-0.226,0.918,0.092,4.809,-20.916
0.920,0.445,-0.219,0.909,0.733,5.466,-22.305
0.920,0.463,-0.216,0.888,1.206,5.313,-23.649
0.930,0.466,-0.211,0.887,0.840,4.931,-25.389
0.930,0.477,-0.206,0.873,0.733,5.252,-26.779
0.930,0.474,-0.207,0.872,0.718,5.130,-28.504
0.940,0.477,-0.210,0.874,0.321,5.008,-29.756
0.940,0.491,-0.201,0.863,-0.061,5.115,-31.252
0.950,0.490,-0.203,0.866,-0.351,5.496,-32.870
0.950,0.498,-0.200,0.851,-1.389,5.145,-34.229
0.960,0.498,-0.205,0.853,-2.198,4.397,-35.756
0.960,0.505,-0.203,0.864,-3.359,4.351,-37.405
0.960,0.516,-0.207,0.864,-4.092,4.840,-38.702
0.970,0.521,-0.218,0.881,-4.443,5.679,-40.382
0.970,0.531,-0.218,0.879,-4.321,6.733,-41.649
0.980,0.531,-0.222,0.871,-4.687,7.359,-43.160
0.980,0.539,-0.225,0.878,-5.282,8.305,-44.534
0.980,0.545,-0.230,0.876,-5.405,9.985,-46.000
0.990,0.546,-0.239,0.885,-5.206,11.618,-47.450
0.990,0.551,-0.247,0.888,-5.374,13.191,-49.023
1.000,0.556,-0.250,0.887,-4.992,15.618,-50.626
1.000,0.546,-0.252,0.881,-5.023,17.588,-52.336
1.000,0.532,-0.252,0.875,-4.916,18.443,-53.588
1.010,0.525,-0.261,0.863,-5.023,18.840,-55.237
1.010,0.528,-0.263,0.862,-5.267,19.405,-56.748
1.020,0.522,-0.255,0.868,-5.130,19.756,-58.015
1.020,0.513,-0.259,0.863,-5.282,19.679,-59.099
1.030,0.529,-0.266,0.855,-6.168,20.198,-60.412
1.030,0.540,-0.263,0.858,-6.641,20.947,-61.786
1.030,0.537,-0.266,0.872,-7.099,21.252,-63.298
1.040,0.543,-0.264,0.866,-7.145,21.710,-65.023
1.040,0.541,-0.276,0.877,-7.328,22.260,-66.595
1.050,0.543,-0.264,0.866,-7.481,23.115,-68.366
1.050,0.546,-0.268,0.863,-7.756,23.237,-70.214
1.050,0.550,-0.274,0.859,-7.893,23.527,-72.229
1.060,0.546,-0.279,0.860,-8.031,24.153,-74.061
1.060,0.538,-0.280,0.865,-8.504,24.840,-75.832
1.070,0.537,-0.276,0.864,-8.947,25.008,-77.603
1.070,0.529,-0.280,0.860,-9.008,23.939,-79.832
1.080,0.520,-0.281,0.852,-10.076,21.740,-82.351
1.080,0.512,-0.290,0.858,-10.840,19.176,-84.565
1.080,0.513,-0.287,0.867,-10.947,16.794,-86.962
1.090,0.511,-0.293,0.872,-10.718,15.053,-89.389
1.090,0.496,-0.296,0.872,-10.794,12.504,-91.618
1.100,0.490,-0.307,0.872,-10.626,10.015,-93.725
1.100,0.479,-0.304,0.869,-10.412,7.328,-95.756
1.100,0.482,-0.312,0.891,-10.076,5.893,-97.374
1.110,0.473,-0.312,0.889,-9.328,4.565,-99.084
1.110,0.466,-0.327,0.890,-9.053,4.336,-100.275
1.120,0.463,-0.319,0.896,-9.023,5.191,-101.832
1.120,0.468,-0.319,0.904,-8.595,6.626,-102.931
1.130,0.466,-0.318,0.891,-8.565,9.038,-104.336
1.130,0.458,-0.323,0.885,-8.458,11.817,-105.466
1.130,0.436,-0.323,0.863,-8.336,14.412,-106.290
1.140,0.414,-0.318,0.861,-9.145,16.534,-107.008
1.140,0.406,-0.313,0.856,-9.924,18.824,-107.878
1.150,0.400,-0.313,0.854,-10.489,21.573,-108.489
1.150,0.388,-0.305,0.842,-11.038,23.985,-109.389
1.160,0.390,-0.302,0.846,-11.298,27.145,-110.183
1.160,0.372,-0.301,0.837,-11.328,28.855,-111.282
1.160,0.344,-0.298,0.818,-11.786,29.191,-111.893
1.170,0.336,-0.293,0.808,-12.550,29.954,-112.336
1.170,0.337,-0.294,0.802,-12.901,31.588,-113.450
1.180,0.333,-0.287,0.810,-12.824,32.580,-114.260
1.180,0.318,-0.275,0.802,-13.252,31.802,-115.542
1.190,0.308,-0.272,0.794,-13.298,30.656,-116.962
1.190,0.301,-0.279,0.783,-13.893,29.252,-118.519
1.190,0.298,-0.280,0.760,-14.779,27.740,-120.382
1.200,0.289,-0.278,0.768,-15.634,25.863,-122.031
1.200,0.272,-0.277,0.763,-17.115,23.252,-123.649
1.210,0.266,-0.269,0.761,-18.870,21.725,-125.145
1.210,0.262,-0.271,0.750,-20.305,20.672,-126.443
1.220,0.247,-0.271,0.750,-21.679,19.344,-127.679
1.220,0.224,-0.269,0.776,-23.160,17.939,-128.626
1.220,0.216,-0.269,0.738,-24.550,16.916,-128.962
1.230,0.212,-0.275,0.755,-26.214,15.649,-129.038
1.230,0.216,-0.273,0.749,-27.664,16.076,-129.328
1.240,0.217,-0.274,0.766,-28.076,17.435,-129.420
1.240,0.219,-0.272,0.785,-28.244,19.481,-129.405
1.250,0.219,-0.273,0.781,-28.504,21.710,-129.069
1.250,0.214,-0.273,0.795,-28.336,23.802,-128.687
1.260,0.221,-0.268,0.811,-28.534,26.733,-128.962
1.260,0.218,-0.272,0.793,-28.198,30.595,-128.824
1.260,0.224,-0.273,0.785,-28.412,34.977,-128.702
1.270,0.208,-0.284,0.790,-28.885,39.084,-129.206
1.270,0.190,-0.294,0.786,-28.794,41.557,-129.557
1.280,0.172,-0.293,0.789,-29.221,42.290,-130.153
1.280,0.140,-0.311,0.787,-29.374,42.580,-131.053
1.290,0.115,-0.315,0.792,-29.130,41.313,-131.588
1.290,0.102,-0.327,0.816,-28.122,39.298,-132.809
1.290,0.085,-0.326,0.810,-26.153,36.916,-134.137
1.300,0.022,-0.315,0.794,-25.969,31.924,-133.725
1.300,-0.032,-0.313,0.775,-25.603,26.794,-133.786
1.310,-0.060,-0.313,0.778,-24.794,19.695,-133.695
1.310,-0.080,-0.309,0.782,-23.908,12.137,-133.588
1.320,-0.096,-0.301,0.773,-23.176,5.496,-132.824
1.320,-0.120,-0.292,0.742,-23.053,-0.519,-130.916
1.330,-0.122,-0.275,0.729,-24.519,-6.565,-129.023
1.330,-0.080,-0.262,0.713,-26.443,-10.931,-127.771
1.330,-0.073,-0.251,0.718,-29.634,-13.802,-126.092
1.340,-0.050,-0.251,0.744,-32.229,-13.130,-123.802
1.340,-0.019,-0.240,0.743,-34.046,-11.313,-121.695
1.350,0.023,-0.229,0.745,-35.985,-10.046,-120.153
1.350,0.028,-0.229,0.716,-39.405,-7.573,-118.626
1.360,0.047,-0.230,0.724,-42.366,-3.069,-116.687
1.360,0.055,-0.241,0.737,-44.229,2.916,-114.641
1.360,0.057,-0.248,0.774,-45.176,8.366,-112.962
1.370,0.071,-0.248,0.780,-45.878,12.916,-111.481
1.370,0.070,-0.255,0.784,-47.237,18.534,-110.275
1.380,0.064,-0.272,0.793,-47.679,23.710,-108.702
1.380,0.063,-0.281,0.808,-47.099,28.809,-107.771
1.390,0.027,-0.305,0.843,-45.389,31.313,-106.626
1.390,-0.001,-0.312,0.833,-44.855,34.061,-104.641
1.400,-0.024,-0.317,0.841,-44.351,38.183,-102.275
1.400,-0.040,-0.332,0.863,-42.519,43.191,-100.229
1.400,-0.046,-0.338,0.870,-39.924,50.046,-98.504
1.410,-0.102,-0.356,0.906,-37.389,47.206,-96.382
1.410,-0.141,-0.366,0.905,-35.008,42.000,-94.580
1.420,-0.199,-0.359,0.899,-34.565,35.740,-90.214
1.420,-0.210,-0.355,0.892,-35.008,32.656,-86.153
1.430,-0.189,-0.352,0.912,-34.122,28.931,-82.351
1.430,-0.172,-0.357,0.947,-32.916,24.015,-80.107
1.430,-0.150,-0.347,0.948,-30.901,21.588,-77.725
1.440,-0.156,-0.342,0.967,-28.840,20.260,-74.794
1.440,-0.156,-0.329,0.960,-26.366,19.710,-71.603
1.450,-0.144,-0.313,0.944,-24.061,19.435,-68.321
1.450,-0.133,-0.292,0.924,-22.198,20.092,-65.252
1.460,-0.089,-0.281,0.896,-21.359,21.099,-63.435
1.460,-0.049,-0.273,0.893,-20.244,23.298,-62.733
1.460,-0.011,-0.264,0.878,-18.733,26.000,-62.992
1.470,0.009,-0.255,0.875,-17.450,28.382,-64.000
1.470,0.024,-0.251,0.858,-17.038,29.863,-65.344
1.480,0.027,-0.249,0.831,-16.947,30.794,-66.901
1.480,0.034,-0.245,0.815,-17.206,32.336,-68.229
1.490,0.032,-0.243,0.807,-17.878,32.947,-69.771
1.490,0.022,-0.245,0.781,-18.595,31.603,-71.756
1.490,0.001,-0.253,0.760,-20.000,28.595,-73.969
1.500,-0.004,-0.260,0.747,-22.351,24.672,-76.092
1.500,-0.017,-0.270,0.749,-24.504,21.802,-77.832
1.510,-0.048,-0.277,0.769,-26.809,20.107,-78.198
1.510,-0.090,-0.282,0.762,-28.290,16.580,-77.557
1.520,-0.129,-0.291,0.778,-30.870,11.420,-75.969
1.520,-0.123,-0.298,0.803,-33.160,8.336,-74.183
1.520,-0.110,-0.309,0.839,-33.145,7.160,-72.382
1.530,-0.097,-0.315,0.885,-33.374,6.595,-70.458
1.530,-0.076,-0.316,0.893,-32.687,9.389,-68.397
1.540,-0.091,-0.310,0.906,-32.412,11.710,-64.336
1.540,-0.078,-0.313,0.920,-31.496,14.534,-61.160
1.550,-0.029,-0.313,0.935,-30.550,20.412,-59.008
1.550,-0.001,-0.323,0.978,-26.626,26.427,-57.160
1.560,0.008,-0.323,0.980,-22.565,31.878,-53.588
1.560,0.012,-0.323,0.967,-21.313,38.656,-52.122
1.560,0.060,-0.317,0.966,-19.237,44.885,-50.366
1.570,0.093,-0.312,0.965,-16.519,50.641,-49.328
1.570,0.110,-0.300,0.953,-14.534,54.153,-49.221
1.580,0.145,-0.279,0.950,-14.168,55.756,-51.160
1.580,0.157,-0.270,0.946,-12.137,55.618,-54.351
1.580,0.158,-0.271,0.951,-9.130,53.710,-57.740
1.590,0.136,-0.271,0.926,-6.122,49.786,-61.557
1.590,0.128,-0.257,0.881,-3.511,44.214,-65.038
1.600,0.097,-0.248,0.836,-2.305,36.611,-68.031
1.600,0.078,-0.243,0.797,-2.000,27.924,-70.855
1.610,0.066,-0.247,0.769,-2.733,19.450,-73.344
1.610,0.052,-0.256,0.758,-3.374,11.908,-75.344
1.610,0.034,-0.246,0.732,-4.947,5.969,-76.412
1.620,0.019,-0.249,0.708,-7.435,1.740,-76.473
1.620,0.012,-0.251,0.705,-10.336,-1.038,-76.260
1.630,0.008,-0.254,0.706,-14.092,-1.939,-74.992
1.630,0.013,-0.263,0.721,-17.542,-0.824,-73.466
1.630,0.005,-0.264,0.741,-21.435,2.275,-71.267
1.640,0.010,-0.267,0.759,-24.168,6.611,-68.748
1.640,0.016,-0.271,0.760,-27.282,12.412,-66.794
1.650,0.028,-0.278,0.766,-30.076,18.382,-64.641
1.650,0.033,-0.287,0.775,-32.229,25.786,-62.779
1.660,0.017,-0.296,0.801,-32.962,32.870,-60.885
1.660,0.033,-0.302,0.827,-32.931,40.733,-58.794
1.660,0.028,-0.309,0.848,-31.863,47.725,-57.405
1.670,0.030,-0.314,0.869,-30.382,52.962,-56.809
1.670,0.018,-0.326,0.866,-28.000,55.649,-56.427
1.680,0.010,-0.330,0.858,-26.153,56.092,-56.626
1.680,-0.003,-0.324,0.858,-25.176,55.573,-56.794
1.690,-0.018,-0.327,0.858,-23.618,54.748,-56.595
1.690,-0.018,-0.332,0.853,-21.771,53.359,-56.733
1.690,-0.038,-0.342,0.869,-19.618,51.008,-56.473
1.700,-0.047,-0.329,0.849,-18.458,49.252,-54.595
1.700,-0.049,-0.319,0.842,-18.504,48.031,-52.122
1.710,-0.049,-0.302,0.849,-18.580,48.198,-50.397
1.710,-0.042,-0.302,0.844,-17.924,47.008,-49.679
1.720,-0.048,-0.294,0.847,-17.557,43.832,-48.794
1.720,-0.052,-0.293,0.850,-16.809,41.145,-48.718
1.720,-0.059,-0.284,0.834,-15.847,37.985,-48.733
1.730,-0.066,-0.288,0.832,-14.565,34.305,-48.840
1.730,-0.068,-0.279,0.812,-13.771,29.893,-48.931
1.740,-0.089,-0.281,0.798,-13.466,25.420,-48.595
1.740,-0.108,-0.278,0.785,-13.649,19.985,-48.366
1.750,-0.119,-0.287,0.764,-14.473,15.206,-47.832
1.750,-0.130,-0.284,0.756,-14.992,11.847,-46.901
1.760,-0.149,-0.295,0.736,-15.573,8.901,-45.634
1.760,-0.150,-0.284,0.734,-18.183,4.992,-44.198
1.760,-0.149,-0.292,0.730,-21.023,2.504,-42.794
1.770,-0.140,-0.301,0.750,-23.435,2.290,-41.542
1.770,-0.153,-0.316,0.779,-25.084,0.519,-40.153
1.780,-0.168,-0.327,0.793,-26.351,-2.214,-38.626
1.780,-0.167,-0.326,0.798,-28.061,-3.313,-36.595
1.790,-0.175,-0.329,0.825,-29.649,-5.405,-34.626
1.790,-0.171,-0.338,0.877,-28.489,-10.153,-33.038
1.790,-0.176,-0.353,0.912,-26.855,-14.840,-32.748
1.800,-0.184,-0.354,0.877,-28.595,-15.008,-31.023
1.800,-0.183,-0.356,0.860,-30.626,-12.061,-28.885
1.810,-0.183,-0.367,0.924,-29.649,-11.817,-27.359
1.810,-0.180,-0.370,0.960,-27.084,-14.672,-25.649
1.820,-0.181,-0.371,0.970,-25.145,-14.504,-25.649
1.820,-0.178,-0.351,0.964,-23.099,-11.924,-23.756
1.820,-0.205,-0.358,0.949,-22.183,-10.534,-21.130
1.830,-0.196,-0.360,0.970,-21.084,-9.832,-19.115
1.830,-0.159,-0.363,0.998,-19.160,-7.176,-17.908
1.840,-0.147,-0.360,1.000,-16.931,-2.779,-16.626
1.840,-0.152,-0.356,1.011,-14.168,0.595,-15.053
1.850,-0.178,-0.354,1.006,-11.420,1.038,-13.679
1.850,-0.164,-0.353,1.013,-8.977,-0.290,-12.595
1.860,-0.133,-0.345,0.996,-7.038,-0.870,-12.748
1.860,-0.097,-0.339,0.979,-6.107,1.603,-12.947
1.860,-0.093,-0.326,0.953,-5.634,3.924,-13.160
1.870,-0.094,-0.316,0.942,-5.038,4.351,-13.496
1.870,-0.088,-0.302,0.944,-4.733,2.855,-14.168
1.880,-0.088,-0.291,0.942,-4.031,1.405,-15.603
1.880,-0.089,-0.292,0.939,-2.885,-0.336,-16.382
1.880,-0.115,-0.288,0.935,-1.710,-2.763,-17.267
1.890,-0.125,-0.284,0.923,0.000,-4.733,-17.802
1.890,-0.152,-0.276,0.895,0.351,-6.794,-17.038
1.900,-0.161,-0.277,0.874,-0.076,-8.214,-15.954
1.900,-0.149,-0.272,0.878,0.214,-6.580,-14.641
1.910,-0.129,-0.274,0.885,1.053,-2.840,-13.160
1.910,-0.125,-0.273,0.886,1.206,0.687,-11.985
1.910,-0.136,-0.286,0.862,0.336,2.000,-10.336
1.920,-0.160,-0.276,0.868,-0.458,2.748,-7.710
1.920,-0.149,-0.283,0.870,-1.237,3.756,-5.450
1.930,-0.124,-0.281,0.881,-1.679,7.588,-3.282
1.930,-0.092,-0.275,0.898,-2.351,12.214,-1.710
1.930,-0.093,-0.269,0.912,-2.565,15.511,0.061
1.940,-0.097,-0.269,0.909,-2.443,17.420,1.740
1.940,-0.097,-0.268,0.918,-2.779,17.634,3.008
1.950,-0.086,-0.265,0.910,-2.626,17.389,3.496
1.950,-0.064,-0.257,0.921,-2.504,17.206,3.649
1.950,-0.060,-0.260,0.930,-1.817,15.847,2.916
1.960,-0.063,-0.264,0.929,-1.160,12.931,1.863
1.960,-0.068,-0.274,0.931,0.000,8.947,0.366
1.970,-0.068,-0.264,0.920,0.611,4.885,-1.069
1.970,-0.069,-0.259,0.905,1.023,1.481,-1.878
1.970,-0.079,-0.261,0.912,1.496,-1.053,-2.137
1.980,-0.096,-0.271,0.907,1.893,-3.924,-2.153
1.980,-0.104,-0.264,0.892,1.954,-6.611,-2.092
1.990,-0.097,-0.267,0.884,2.122,-8.855,-1.985
1.990,-0.093,-0.275,0.880,2.076,-9.802,-1.817
2.000,-0.094,-0.269,0.876,1.710,-10.443,-1.160
2.000,-0.078,-0.264,0.864,0.992,-10.733,-0.305
2.000,-0.079,-0.257,0.869,0.397,-10.061,0.519
2.010,-0.070,-0.254,0.866,-0.672,-9.221,1.206
2.010,-0.047,-0.249,0.863,-1.634,-8.580,1.557
2.020,-0.040,-0.256,0.855,-1.878,-7.252,2.015
2.020,-0.034,-0.252,0.862,-2.504,-6.351,2.351
2.020,-0.028,-0.250,0.860,-3.084,-5.176,2.794
2.030,-0.019,-0.251,0.873,-2.580,-3.618,2.947
2.030,-0.010,-0.247,0.875,-2.366,-3.282,2.824
2.040,-0.009,-0.249,0.873,-2.504,-4.412,2.397
2.040,-0.010,-0.251,0.861,-2.580,-6.305,2.137
2.040,0.002,-0.258,0.856,-2.931,-7.237,1.557
2.050,-0.010,-0.252,0.865,-2.885,-9.008,1.328
2.050,-0.021,-0.259,0.865,-2.656,-10.962,1.466
2.060,-0.031,-0.253,0.862,-2.519,-13.405,1.649
2.060,-0.035,-0.270,0.877,-2.824,-15.435,1.969
2.060,-0.019,-0.278,0.887,-2.214,-15.542,2.382
2.070,-0.015,-0.281,0.900,-0.992,-14.580,2.840
2.070,-0.020,-0.291,0.912,-0.031,-14.366,3.359
2.080,-0.023,-0.289,0.915,-0.031,-14.550,4.015
2.080,-0.022,-0.306,0.925,0.702,-14.061,3.679
2.090,-0.027,-0.315,0.952,1.878,-12.809,3.664
2.090,-0.042,-0.321,0.973,3.618,-11.832,3.756
2.090,-0.064,-0.320,0.977,5.130,-11.588,4.336
2.100,-0.075,-0.320,0.975,6.321,-11.496,4.885
2.100,-0.100,-0.331,0.995,8.947,-11.130,5.267
2.110,-0.127,-0.327,1.007,11.405,-10.718,6.794
2.110,-0.162,-0.327,1.003,14.229,-11.282,8.626
2.110,-0.172,-0.320,0.990,16.214,-11.099,10.718
2.120,-0.178,-0.311,0.997,18.763,-9.573,12.534
2.120,-0.174,-0.313,0.992,21.084,-7.802,14.595
2.130,-0.193,-0.326,0.986,23.924,-6.153,16.412
2.130,-0.206,-0.320,0.980,26.244,-4.153,18.473
2.140,-0.229,-0.317,0.972,28.534,-2.427,20.718
2.140,-0.234,-0.316,0.950,30.137,-1.252,22.824
2.140,-0.246,-0.315,0.939,31.664,-0.443,24.748
2.150,-0.255,-0.318,0.923,32.366,-0.321,26.382
2.150,-0.269,-0.318,0.920,32.947,-0.458,27.847
2.160,-0.283,-0.310,0.906,33.405,-1.405,29.221
2.160,-0.297,-0.313,0.915,33.267,-2.458,30.595
2.160,-0.308,-0.309,0.898,33.160,-3.634,32.351
2.170,-0.319,-0.311,0.900,33.053,-5.359,34.015
2.170,-0.333,-0.300,0.923,33.084,-7.435,35.817
2.180,-0.344,-0.298,0.906,33.099,-9.282,37.954
2.180,-0.361,-0.298,0.896,33.023,-11.206,40.595
2.190,-0.367,-0.291,0.908,32.397,-12.366,43.053
2.190,-0.367,-0.303,0.896,32.519,-13.084,45.298
2.190,-0.374,-0.309,0.912,33.298,-12.947,47.908
2.200,-0.397,-0.316,0.938,34.611,-14.550,51.130
2.200,-0.420,-0.335,0.951,36.458,-17.221,55.008
2.210,-0.419,-0.337,0.952,38.290,-18.412,59.023
2.210,-0.407,-0.339,0.940,39.802,-18.046,63.115
2.220,-0.402,-0.354,0.936,40.855,-18.107,66.962
2.220,-0.391,-0.346,0.927,41.832,-18.626,70.595
2.220,-0.378,-0.323,0.929,42.107,-19.038,74.351
2.230,-0.351,-0.318,0.937,42.076,-19.023,77.496
2.230,-0.319,-0.314,0.935,42.275,-18.763,79.634
2.240,-0.299,-0.306,0.948,41.969,-19.466,81.435
2.240,-0.289,-0.301,0.938,41.969,-21.282,82.931
2.240,-0.268,-0.302,0.940,41.878,-22.916,83.603
2.250,-0.252,-0.298,0.945,41.435,-24.000,84.397
2.250,-0.243,-0.298,0.932,41.786,-25.939,84.458
2.260,-0.220,-0.295,0.932,42.244,-27.450,84.840
2.260,-0.218,-0.298,0.937,42.794,-29.435,85.038
2.270,-0.201,-0.293,0.940,43.130,-30.931,84.840
2.270,-0.166,-0.311,0.937,44.198,-31.496,84.183
2.270,-0.155,-0.334,0.933,46.076,-31.099,83.634
2.280,-0.159,-0.340,0.928,47.969,-30.763,83.573
2.280,-0.157,-0.334,0.919,49.282,-30.473,84.244
2.290,-0.162,-0.323,0.867,49.740,-30.992,84.931
2.290,-0.160,-0.320,0.857,48.489,-31.649,85.740
2.300,-0.164,-0.309,0.844,47.130,-31.969,86.947
2.300,-0.160,-0.307,0.844,45.832,-32.366,88.198
2.300,-0.162,-0.302,0.860,44.840,-32.611,89.588
2.310,-0.165,-0.303,0.847,43.588,-33.130,91.374
2.310,-0.164,-0.298,0.862,43.084,-34.183,93.038
2.320,-0.149,-0.290,0.853,42.153,-34.885,94.718
2.320,-0.138,-0.287,0.865,41.084,-34.611,97.527
2.330,-0.120,-0.280,0.860,40.458,-33.771,98.550
2.330,-0.108,-0.278,0.862,40.214,-32.458,100.351
2.330,-0.102,-0.272,0.855,39.740,-30.763,102.672
2.340,-0.095,-0.267,0.848,39.252,-29.206,104.458
2.340,-0.078,-0.264,0.856,38.809,-27.695,106.031
2.350,-0.060,-0.267,0.842,38.168,-26.244,107.496
2.350,-0.051,-0.272,0.856,38.305,-24.260,108.550
2.360,-0.042,-0.270,0.853,38.733,-22.763,109.511
2.360,-0.055,-0.277,0.856,39.191,-22.137,110.626
2.360,-0.050,-0.287,0.854,39.695,-22.015,111.603
2.370,-0.047,-0.301,0.853,40.229,-22.748,112.672
2.370,-0.027,-0.303,0.857,40.809,-22.687,113.344
2.380,-0.006,-0.304,0.842,41.282,-22.244,113.557
2.380,-0.003,-0.302,0.851,41.115,-22.260,113.786
2.390,0.002,-0.301,0.832,41.191,-22.275,113.634
2.390,0.005,-0.302,0.837,40.519,-21.802,113.695
2.390,0.024,-0.284,0.819,40.107,-20.947,113.588
2.400,0.013,-0.278,0.816,39.374,-20.260,113.282
2.400,0.010,-0.273,0.821,38.260,-20.137,113.740
2.410,-0.007,-0.263,0.805,37.374,-18.687,114.779
2.410,-0.012,-0.268,0.808,36.153,-17.328,116.092
2.420,-0.017,-0.250,0.798,35.389,-15.481,117.847
2.420,-0.010,-0.243,0.795,34.229,-14.489,119.282
2.420,-0.010,-0.240,0.782,33.023,-13.389,120.885
2.430,0.002,-0.251,0.788,31.634,-10.947,122.809
2.430,-0.004,-0.252,0.785,31.099,-9.176,124.870
2.440,0.006,-0.253,0.792,30.168,-7.389,127.221
2.440,0.029,-0.247,0.776,28.916,-5.038,129.099
2.450,0.050,-0.249,0.763,27.084,-3.130,130.168
2.450,0.068,-0.252,0.765,25.405,-0.931,131.221
2.450,0.088,-0.260,0.769,24.198,1.756,132.137
2.460,0.097,-0.264,0.771,23.374,3.557,132.977
2.460,0.101,-0.274,0.781,21.863,3.710,133.802
2.470,0.124,-0.269,0.788,19.969,3.756,134.412
2.470,0.155,-0.265,0.802,18.168,4.885,134.473
2.470,0.185,-0.260,0.827,17.328,5.252,133.374
2.480,0.214,-0.249,0.840,16.473,5.588,131.679
2.480,0.247,-0.240,0.845,15.893,6.046,128.901
2.490,0.249,-0.245,0.851,16.015,3.557,125.069
2.490,0.262,-0.231,0.884,15.466,1.023,121.695
2.500,0.262,-0.240,0.888,16.427,0.687,118.718
2.500,0.262,-0.236,0.875,18.412,1.588,115.832
2.500,0.201,-0.234,0.872,19.313,-1.969,113.145
2.510,0.170,-0.236,0.873,20.015,-8.092,111.237
2.510,0.167,-0.243,0.873,21.435,-11.328,109.878
2.520,0.169,-0.249,0.871,22.718,-12.305,109.069
2.520,0.152,-0.246,0.860,23.588,-12.565,108.733
2.520,0.146,-0.256,0.855,24.275,-12.611,108.534
2.530,0.136,-0.249,0.842,24.947,-12.382,108.687
2.530,0.125,-0.252,0.835,25.450,-12.244,109.084
2.540,0.120,-0.241,0.837,26.015,-11.008,109.466
2.540,0.122,-0.246,0.828,26.382,-8.992,109.863
2.550,0.111,-0.242,0.811,26.366,-6.763,110.626
2.550,0.096,-0.248,0.796,26.275,-4.763,111.298
2.550,0.083,-0.246,0.779,25.756,-3.710,112.137
2.560,0.068,-0.256,0.754,25.145,-3.237,113.191
2.560,0.063,-0.247,0.736,23.588,-3.435,114.443
2.570,0.055,-0.247,0.722,21.847,-4.107,114.977
2.570,0.059,-0.245,0.706,20.015,-4.290,115.771
2.570,0.054,-0.245,0.708,18.000,-5.298,116.412
2.580,0.055,-0.247,0.699,15.603,-6.992,117.160
2.580,0.049,-0.244,0.705,12.931,-10.061,118.137
2.590,0.070,-0.242,0.697,10.061,-13.573,118.656
2.590,0.081,-0.240,0.705,7.527,-16.473,119.206
2.600,0.106,-0.249,0.722,5.603,-19.053,119.344
2.600,0.134,-0.243,0.726,3.389,-21.740,118.901
2.600,0.159,-0.248,0.747,1.893,-23.359,117.588
2.610,0.198,-0.248,0.767,0.992,-23.359,116.534
2.610,0.215,-0.252,0.788,0.458,-22.916,115.252
2.620,0.220,-0.257,0.792,-0.061,-22.687,114.000
2.620,0.226,-0.257,0.801,-0.107,-21.771,113.084
2.630,0.226,-0.265,0.793,0.458,-20.489,112.076
2.630,0.235,-0.268,0.796,0.260,-19.710,110.977
2.630,0.234,-0.264,0.801,0.122,-19.145,110.137
2.640,0.239,-0.269,0.813,-0.046,-18.290,108.870
2.640,0.251,-0.271,0.808,-0.229,-17.496,108.092
2.650,0.228,-0.269,0.814,-0.763,-17.145,106.885
2.650,0.220,-0.267,0.820,-1.282,-18.168,106.519
2.650,0.224,-0.273,0.841,-1.664,-19.466,106.168
2.660,0.231,-0.279,0.851,-1.420,-19.969,106.061
2.660,0.238,-0.289,0.866,-1.344,-19.817,105.802
2.670,0.253,-0.289,0.874,-0.763,-19.405,105.649
2.670,0.271,-0.287,0.888,0.290,-18.534,105.084
2.680,0.281,-0.286,0.907,1.313,-17.466,104.351
2.680,0.298,-0.292,0.896,2.382,-15.878,103.557
2.680,0.307,-0.281,0.901,2.870,-13.908,102.947
2.690,0.316,-0.284,0.904,3.756,-11.756,102.153
2.690,0.324,-0.275,0.912,5.008,-9.618,101.374
2.700,0.323,-0.267,0.896,5.618,-7.557,100.489
2.700,0.335,-0.264,0.899,5.832,-4.718,99.252
2.700,0.340,-0.269,0.897,7.008,-1.740,98.336
2.710,0.339,-0.266,0.908,8.168,0.122,98.534
2.710,0.336,-0.263,0.906,9.038,1.176,96.656
2.720,0.341,-0.260,0.874,9.939,2.076,96.076
2.720,0.338,-0.260,0.885,10.794,2.504,94.031
2.720,0.342,-0.259,0.866,11.527,3.008,92.763
2.730,0.345,-0.251,0.861,12.275,2.702,91.878
2.730,0.327,-0.259,0.844,12.122,1.924,90.504
2.740,0.328,-0.249,0.844,11.649,0.214,89.008
2.740,0.328,-0.240,0.828,10.962,-1.969,87.435
2.740,0.333,-0.247,0.820,10.122,-3.679,85.786
2.750,0.336,-0.238,0.819,9.420,-4.000,84.611
2.750,0.333,-0.237,0.813,8.275,-4.718,83.252
2.760,0.323,-0.228,0.809,7.023,-6.183,82.153
2.760,0.322,-0.225,0.807,6.046,-7.160,80.901
2.760,0.318,-0.218,0.805,5.237,-6.855,80.275
2.770,0.319,-0.210,0.788,4.260,-6.336,79.802
2.770,0.299,-0.208,0.783,2.992,-6.565,79.481
2.780,0.301,-0.196,0.775,1.710,-7.511,79.298
2.780,0.307,-0.203,0.772,0.046,-7.802,79.053
2.780,0.323,-0.199,0.772,-1.695,-6.321,79.160
2.790,0.343,-0.192,0.774,-3.573,-5.145,79.053
2.790,0.356,-0.196,0.780,-5.573,-4.061,78.366
2.800,0.379,-0.202,0.789,-7.466,-3.038,77.542
2.800,0.400,-0.199,0.803,-8.870,-1.939,76.397
2.800,0.406,-0.206,0.814,-10.351,-1.145,75.023
2.810,0.421,-0.208,0.838,-11.420,-0.565,73.603
2.810,0.435,-0.215,0.868,-12.061,0.595,71.985
2.820,0.443,-0.219,0.879,-12.412,1.298,69.969
2.820,0.453,-0.220,0.901,-12.336,2.137,67.756
2.830,0.460,-0.226,0.911,-11.557,1.634,65.450
2.830,0.456,-0.224,0.930,-11.023,0.000,62.809
2.830,0.465,-0.231,0.943,-9.618,-0.061,60.153
2.840,0.464,-0.225,0.968,-7.740,0.595,58.382
2.840,0.452,-0.225,0.981,-5.954,1.176,56.412
2.850,0.443,-0.219,0.969,-3.725,1.389,54.504
2.850,0.431,-0.213,0.959,-1.939,0.748,52.763
2.850,0.417,-0.206,0.951,0.015,0.550,50.947
2.860,0.404,-0.198,0.935,1.511,0.260,49.740
2.860,0.389,-0.201,0.927,2.962,0.412,48.718
2.870,0.366,-0.187,0.907,4.153,0.244,47.756
2.870,0.361,-0.178,0.892,4.641,-0.534,47.008
2.870,0.343,-0.170,0.884,4.748,-0.473,46.473
2.880,0.349,-0.162,0.875,4.672,0.580,46.122
2.880,0.339,-0.154,0.860,4.427,1.527,45.878
2.890,0.336,-0.150,0.844,3.618,2.672,45.649
2.890,0.336,-0.145,0.836,2.687,3.267,45.450
2.890,0.341,-0.146,0.831,1.466,3.237,45.069
2.900,0.341,-0.147,0.813,0.244,3.481,44.397
2.900,0.345,-0.138,0.811,-1.298,3.099,43.954
2.900,0.340,-0.142,0.807,-3.206,3.069,43.053
2.910,0.351,-0.145,0.821,-4.611,4.000,42.351
2.910,0.362,-0.148,0.832,-5.756,5.221,41.420
2.920,0.365,-0.152,0.825,-6.550,6.366,40.336
2.920,0.366,-0.149,0.826,-7.817,6.870,39.115
2.920,0.365,-0.159,0.844,-8.153,7.160,37.588
2.930,0.370,-0.165,0.849,-8.565,7.252,35.863
2.930,0.371,-0.161,0.877,-9.008,7.817,34.321
2.940,0.363,-0.165,0.873,-8.977,8.092,32.947
2.940,0.356,-0.160,0.875,-9.221,7.771,31.420
2.940,0.352,-0.164,0.891,-8.840,7.588,30.321
2.950,0.344,-0.167,0.904,-7.969,7.679,29.069
2.950,0.338,-0.162,0.916,-7.023,7.435,27.832
2.960,0.325,-0.161,0.899,-5.924,5.618,26.260
2.960,0.300,-0.155,0.896,-5.435,3.160,25.115
2.960,0.284,-0.149,0.894,-5.023,1.557,24.351
2.970,0.289,-0.151,0.892,-4.366,0.824,24.000
2.970,0.271,-0.147,0.874,-3.740,0.229,23.863
2.980,0.273,-0.144,0.875,-3.389,-0.550,23.771
2.980,0.268,-0.147,0.867,-3.160,-1.237,23.924
2.980,0.260,-0.146,0.863,-2.901,-1.176,24.168
2.990,0.265,-0.150,0.872,-2.901,-0.290,24.137
2.990,0.259,-0.143,0.875,-2.931,0.748,24.672
3.000,0.252,-0.144,0.872,-2.870,0.641,24.656
3.000,0.257,-0.147,0.856,-3.374,0.672,24.672
3.000,0.263,-0.154,0.850,-3.939,1.557,24.718
3.010,0.281,-0.149,0.853,-4.916,2.763,24.427
3.010,0.291,-0.154,0.849,-5.847,3.771,23.969
3.020,0.293,-0.151,0.860,-6.672,4.107,23.191
3.020,0.307,-0.154,0.855,-7.573,4.595,22.275
3.020,0.316,-0.147,0.870,-8.580,4.763,20.840
3.030,0.322,-0.149,0.869,-9.069,4.718,19.237
3.030,0.334,-0.147,0.870,-9.298,4.321,17.160
3.040,0.325,-0.145,0.885,-9.389,4.092,15.313
3.040,0.313,-0.145,0.882,-9.405,3.160,13.282
3.040,0.302,-0.150,0.882,-9.160,2.595,11.740
3.050,0.281,-0.150,0.878,-9.313,1.344,10.168
3.050,0.270,-0.155,0.897,-8.962,0.015,8.870
3.060,0.262,-0.149,0.898,-9.053,-1.206,7.863
3.060,0.250,-0.149,0.906,-8.351,-1.832,6.992
3.060,0.239,-0.155,0.908,-7.817,-2.687,6.550
3.070,0.231,-0.154,0.909,-7.420,-2.885,6.015
3.070,0.224,-0.160,0.914,-6.733,-2.748,5.664
3.080,0.219,-0.157,0.916,-6.092,-2.336,5.313
3.080,0.218,-0.157,0.920,-5.725,-1.817,5.221
3.080,0.226,-0.152,0.911,-5.099,-1.481,4.916
3.090,0.230,-0.147,0.906,-4.489,-1.634,4.366
3.090,0.230,-0.151,0.896,-4.534,-2.031,3.557
3.100,0.229,-0.148,0.891,-4.901,-2.656,2.534
3.100,0.227,-0.144,0.895,-5.344,-3.420,1.313
3.100,0.228,-0.143,0.895,-5.618,-3.084,0.672
3.110,0.225,-0.142,0.899,-5.542,-2.840,-0.595
3.110,0.226,-0.134,0.914,-5.740,-3.008,-1.573
3.120,0.219,-0.141,0.906,-5.725,-2.397,-2.534
3.120,0.208,-0.139,0.911,-5.038,-1.252,-3.206
3.120,0.184,-0.140,0.918,-4.412,-0.489,-3.466
3.130,0.160,-0.133,0.914,-3.817,0.076,-3.405
3.130,0.150,-0.136,0.901,-3.435,0.550,-2.931
3.140,0.139,-0.132,0.903,-2.824,1.405,-2.229
3.140,0.134,-0.136,0.901,-2.275,2.977,-1.573
3.140,0.133,-0.130,0.905,-2.092,4.504,-0.855
3.150,0.124,-0.130,0.899,-1.847,5.634,-0.275
3.150,0.114,-0.141,0.892,-2.031,6.214,0.580
3.160,0.112,-0.136,0.875,-2.504,6.015,0.931
3.160,0.118,-0.143,0.881,-3.435,6.305,1.252
3.160,0.124,-0.139,0.871,-4.000,6.763,1.695
3.170,0.123,-0.141,0.873,-4.382,7.038,1.908
3.170,0.120,-0.149,0.879,-5.313,6.351,1.908
3.180,0.121,-0.154,0.887,-5.252,5.435,2.046
3.180,0.125,-0.161,0.896,-5.557,4.504,1.924
3.180,0.131,-0.156,0.908,-5.985,3.893,2.015
3.190,0.139,-0.164,0.912,-5.252,3.832,1.878
3.190,0.153,-0.171,0.929,-4.260,3.756,1.786
3.200,0.153,-0.164,0.947,-3.267,3.817,1.344
3.200,0.162,-0.160,0.944,-2.168,4.046,0.794
3.200,0.155,-0.168,0.949,-1.053,4.305,0.412
3.210,0.153,-0.161,0.945,0.427,4.214,0.305
3.210,0.148,-0.163,0.949,1.527,3.817,0.107
3.220,0.146,-0.156,0.933,2.000,3.695,0.122
3.220,0.148,-0.153,0.922,2.779,4.061,0.168
3.220,0.151,-0.144,0.911,3.084,5.298,-0.046
3.230,0.143,-0.144,0.915,3.267,6.947,0.336
3.230,0.133,-0.134,0.880,3.557,6.397,0.672
3.230,0.136,-0.129,0.879,3.145,5.298,0.580
3.240,0.140,-0.125,0.860,2.260,4.260,-0.015
3.240,0.142,-0.121,0.856,1.557,3.908,0.046
3.250,0.136,-0.118,0.849,0.840,4.137,0.305
3.250,0.141,-0.115,0.848,-0.168,4.321,0.153
3.250,0.153,-0.110,0.857,-0.885,5.359,0.107
3.260,0.156,-0.112,0.845,-1.573,6.260,-0.137
3.260,0.160,-0.113,0.840,-2.641,6.672,-0.260
3.270,0.151,-0.114,0.853,-3.511,6.092,-0.641
3.270,0.151,-0.115,0.865,-4.366,5.176,-1.115
3.270,0.139,-0.120,0.878,-4.611,4.931,-1.267
3.280,0.144,-0.114,0.884,-4.763,4.382,-1.328
3.280,0.136,-0.121,0.886,-4.580,4.321,-1.573
3.290,0.132,-0.123,0.886,-4.473,3.435,-1.603
3.290,0.130,-0.116,0.883,-4.962,2.198,-1.786
3.290,0.131,-0.122,0.903,-4.992,1.130,-2.061
3.300,0.135,-0.123,0.899,-4.809,1.038,-2.489
3.300,0.133,-0.126,0.911,-4.351,0.626,-2.794
3.310,0.130,-0.126,0.917,-3.832,0.153,-2.962
3.310,0.116,-0.123,0.919,-3.084,-0.641,-3.038
3.310,0.110,-0.128,0.917,-2.809,-1.481,-2.916
3.320,0.120,-0.126,0.909,-2.382,-1.725,-2.962
3.320,0.125,-0.131,0.915,-1.740,-1.252,-2.733
3.330,0.122,-0.135,0.926,-1.008,-0.656,-2.672
3.330,0.119,-0.131,0.923,-0.260,-0.611,-2.794
3.330,0.119,-0.136,0.913,-0.214,-0.687,-2.718
3.340,0.111,-0.135,0.912,-0.046,-0.824,-2.809
3.340,0.109,-0.146,0.920,-0.183,-1.053,-2.519
3.350,0.109,-0.135,0.914,-0.382,-0.992,-2.107
3.350,0.115,-0.141,0.923,-0.351,-0.229,-1.847
3.350,0.113,-0.139,0.935,-0.198,1.008,-1.695
3.360,0.122,-0.142,0.933,0.015,2.641,-1.344
3.360,0.123,-0.147,0.918,0.412,4.366,-1.252
3.370,0.126,-0.140,0.938,0.885,5.527,-1.221
3.370,0.115,-0.133,0.925,1.053,6.092,-1.298
3.370,0.122,-0.139,0.917,0.931,6.397,-1.145
3.380,0.115,-0.134,0.918,1.115,6.733,-1.206
3.380,0.115,-0.133,0.921,1.313,7.435,-1.221
3.390,0.113,-0.131,0.912,1.771,8.473,-1.206
3.390,0.114,-0.129,0.912,2.214,8.962,-1.176
3.390,0.104,-0.123,0.901,2.244,9.145,-1.267
3.400,0.103,-0.124,0.906,2.519,8.748,-1.160
3.400,0.097,-0.123,0.902,2.198,8.183,-1.237
3.410,0.100,-0.125,0.898,2.305,8.107,-1.038
3.410,0.092,-0.116,0.891,2.519,7.924,-1.145
3.410,0.091,-0.117,0.902,2.260,7.237,-0.947
3.420,0.094,-0.110,0.899,2.031,7.176,-0.809
3.420,0.104,-0.117,0.902,2.122,7.328,-0.992
3.420,0.099,-0.116,0.906,2.046,7.878,-0.947
3.430,0.109,-0.117,0.898,2.107,7.908,-1.176
3.430,0.100,-0.118,0.886,2.000,7.130,-1.496
3.440,0.100,-0.107,0.887,1.939,5.954,-1.954
3.440,0.104,-0.107,0.877,1.649,4.748,-2.351
3.440,0.105,-0.106,0.876,1.130,4.153,-2.840
3.450,0.105,-0.102,0.893,1.466,3.771,-3.084
3.450,0.100,-0.097,0.887,1.618,3.252,-3.252
3.460,0.077,-0.100,0.884,1.527,2.473,-3.099
3.460,0.072,-0.097,0.871,1.008,1.557,-2.870
3.460,0.074,-0.099,0.861,1.053,0.947,-2.611
3.470,0.066,-0.097,0.867,0.840,0.779,-1.725
3.470,0.065,-0.099,0.872,0.794,0.779,-1.252
3.480,0.065,-0.102,0.872,1.298,1.481,-0.550
3.480,0.070,-0.105,0.884,1.878,2.122,0.076
3.480,0.070,-0.098,0.871,2.015,2.779,0.611
3.490,0.082,-0.094,0.868,1.710,3.634,1.466
3.490,0.083,-0.099,0.874,1.878,4.595,2.046
3.490,0.092,-0.099,0.878,1.634,5.099,2.290
3.500,0.095,-0.098,0.869,1.206,5.557,2.305
3.500,0.097,-0.094,0.863,0.901,5.802,2.336
3.510,0.101,-0.098,0.863,0.397,5.573,2.366
3.510,0.101,-0.090,0.864,-0.107,5.282,2.382
3.510,0.108,-0.094,0.870,-0.305,5.344,2.473
3.520,0.109,-0.095,0.868,-0.412,5.099,2.321
3.520,0.112,-0.096,0.874,-0.534,4.611,2.351
3.530,0.115,-0.097,0.873,-0.489,3.695,2.061
3.530,0.109,-0.103,0.874,-0.489,2.565,1.802
3.530,0.114,-0.103,0.868,-1.176,1.450,1.405
3.540,0.117,-0.107,0.879,-1.099,1.084,1.313
3.540,0.119,-0.112,0.889,-0.794,1.176,0.885
3.550,0.119,-0.120,0.884,-0.580,0.534,0.504
3.550,0.111,-0.119,0.881,-0.733,0.107,0.198
3.550,0.115,-0.120,0.894,-0.595,-0.702,-0.061
3.560,0.117,-0.115,0.897,-0.992,-0.656,-0.397
3.560,0.119,-0.115,0.890,-1.130,0.015,-0.351
3.570,0.120,-0.104,0.900,-0.962,0.824,-0.489
3.570,0.107,-0.111,0.905,-0.992,1.115,-0.565
3.570,0.105,-0.104,0.904,-0.718,1.649,-0.565
3.580,0.100,-0.102,0.888,0.153,2.061,-0.763
3.580,0.092,-0.089,0.875,0.046,0.672,-0.611
3.580,0.094,-0.091,0.892,-0.595,-0.840,-0.977
3.590,0.116,-0.085,0.887,-0.565,-0.580,-1.618
3.590,0.123,-0.092,0.902,0.412,0.733,-2.107
3.600,0.111,-0.089,0.903,0.412,1.420,-2.183
3.600,0.106,-0.092,0.887,0.550,1.496,-2.092
3.600,0.104,-0.104,0.883,0.137,1.359,-2.260
3.610,0.100,-0.093,0.875,-0.137,1.298,-2.290
3.610,0.096,-0.100,0.886,-0.611,0.748,-2.168
3.620,0.092,-0.107,0.873,-0.855,0.351,-1.985
3.620,0.095,-0.110,0.892,-1.023,-0.412,-1.832
3.620,0.110,-0.118,0.887,-1.145,-0.992,-2.046
3.630,0.117,-0.113,0.900,-1.725,-1.344,-2.107
3.630,0.126,-0.117,0.911,-2.275,-1.038,-2.107
3.640,0.133,-0.117,0.927,-1.817,0.290,-2.473
3.640,0.144,-0.126,0.931,-1.023,2.153,-2.595
3.640,0.147,-0.124,0.941,-0.244,3.832,-2.885
3.650,0.146,-0.118,0.934,0.748,5.206,-3.481
3.650,0.143,-0.121,0.930,1.435,6.489,-3.756
3.660,0.144,-0.111,0.916,1.893,7.359,-3.954
3.660,0.142,-0.116,0.919,2.534,8.565,-4.275
3.660,0.141,-0.115,0.921,3.221,9.557,-4.733
3.670,0.128,-0.105,0.908,4.000,9.511,-5.252
3.670,0.119,-0.104,0.903,3.985,9.115,-5.282
3.680,0.108,-0.101,0.894,3.878,8.687,-5.435
3.680,0.119,-0.107,0.894,3.557,8.840,-5.405
3.680,0.114,-0.100,0.905,3.527,9.389,-5.084
3.690,0.121,-0.106,0.896,3.466,10.244,-4.992
3.690,0.112,-0.109,0.894,3.573,10.656,-5.023
3.700,0.108,-0.110,0.889,3.679,11.130,-4.901
3.700,0.107,-0.106,0.876,3.573,10.565,-5.282
3.700,0.114,-0.107,0.865,2.962,9.481,-5.420
3.710,0.115,-0.102,0.870,2.550,8.855,-6.015
3.710,0.123,-0.101,0.857,2.031,8.626,-6.733
3.720,0.121,-0.099,0.872,1.466,7.939,-7.313
3.720,0.110,-0.091,0.875,1.542,7.313,-7.710
3.720,0.103,-0.092,0.871,1.466,6.275,-8.061
3.730,0.096,-0.086,0.873,1.435,5.740,-8.183
3.730,0.097,-0.087,0.865,1.496,5.634,-8.412
3.740,0.103,-0.090,0.869,1.786,5.511,-8.397
3.740,0.106,-0.086,0.881,2.137,4.870,-8.550
3.740,0.099,-0.090,0.873,2.580,3.679,-8.687
3.750,0.082,-0.083,0.857,2.641,1.786,-9.069
3.750,0.088,-0.080,0.850,2.046,0.290,-9.435
3.750,0.079,-0.083,0.850,1.557,-0.565,-9.466
3.760,0.064,-0.076,0.847,0.794,-1.115,-9.313
3.760,0.067,-0.075,0.854,0.321,-1.344,-8.687
3.770,0.059,-0.079,0.847,-0.305,-1.435,-7.802
3.770,0.060,-0.089,0.847,-0.763,-1.954,-7.130
3.770,0.067,-0.087,0.850,-1.695,-2.412,-6.672
3.780,0.070,-0.095,0.856,-2.473,-2.031,-5.817
3.780,0.073,-0.091,0.858,-2.855,-1.389,-5.313
3.790,0.091,-0.101,0.860,-3.191,-0.153,-4.702
3.790,0.089,-0.107,0.852,-3.618,0.824,-4.412
3.800,0.096,-0.106,0.861,-4.244,1.405,-4.244
3.800,0.098,-0.106,0.851,-4.779,1.618,-4.489
3.800,0.105,-0.109,0.862,-4.916,1.679,-4.687
3.810,0.108,-0.113,0.871,-5.160,1.206,-4.947
3.810,0.097,-0.115,0.883,-5.374,-0.122,-4.763
3.820,0.082,-0.113,0.892,-5.557,-1.206,-4.565
3.820,0.085,-0.115,0.899,-5.282,-1.466,-4.214
3.820,0.092,-0.117,0.910,-4.962,-0.840,-4.015
3.830,0.095,-0.117,0.910,-4.168,-0.305,-3.985
3.830,0.085,-0.122,0.911,-3.603,-0.351,-3.511
3.840,0.088,-0.110,0.908,-3.191,0.000,-3.084
3.840,0.092,-0.115,0.896,-2.733,0.702,-3.069
3.840,0.101,-0.109,0.897,-2.412,1.145,-3.115
3.850,0.094,-0.105,0.887,-2.153,0.275,-3.389
3.850,0.098,-0.103,0.879,-2.779,-2.366,-4.137
3.860,0.110,-0.101,0.889,-3.969,-4.504,-5.160
3.860,0.127,-0.108,0.894,-4.458,-4.473,-5.725
3.860,0.124,-0.117,0.918,-4.366,-2.977,-5.679
3.870,0.116,-0.123,0.912,-4.061,-1.771,-5.420
3.870,0.112,-0.126,0.919,-4.000,-0.885,-4.916
3.880,0.123,-0.120,0.919,-4.015,-0.122,-4.901
3.880,0.121,-0.124,0.927,-4.122,0.534,-4.992
3.880,0.132,-0.132,0.940,-3.771,1.237,-5.145
3.890,0.133,-0.132,0.944,-3.160,1.435,-5.221
3.890,0.138,-0.143,0.954,-2.366,2.107,-5.863
3.900,0.138,-0.131,0.956,-2.015,2.382,-6.397
3.900,0.147,-0.125,0.956,-1.282,3.328,-7.130
3.900,0.142,-0.122,0.964,-0.489,3.313,-7.924
3.910,0.135,-0.122,0.952,-0.046,3.023,-8.595
3.910,0.125,-0.111,0.940,0.473,3.344,-8.931
3.920,0.115,-0.117,0.935,0.931,3.664,-9.237
3.920,0.096,-0.110,0.927,1.466,4.046,-9.282
3.920,0.092,-0.104,0.917,1.664,4.153,-9.206
3.930,0.090,-0.109,0.915,1.924,4.504,-9.145
3.930,0.078,-0.111,0.910,1.893,4.885,-8.931
3.940,0.076,-0.108,0.904,2.000,5.405,-8.611
3.940,0.065,-0.110,0.898,2.137,5.618,-8.153
3.940,0.058,-0.109,0.882,1.786,5.206,-7.344
3.950,0.049,-0.103,0.872,1.099,3.832,-6.916
3.950,0.049,-0.104,0.877,0.427,2.656,-6.489
3.960,0.064,-0.108,0.885,-0.168,2.595,-5.847
3.960,0.076,-0.107,0.885,-0.183,3.481,-5.511
3.960,0.090,-0.105,0.881,-0.076,4.489,-5.115
3.970,0.089,-0.106,0.885,-0.580,5.130,-4.870
3.970,0.099,-0.106,0.875,-0.275,6.183,-4.718
3.980,0.100,-0.110,0.877,-0.275,6.901,-4.718
3.980,0.103,-0.115,0.866,-0.305,7.145,-5.053
3.980,0.101,-0.114,0.866,-0.336,7.313,-5.359
3.990,0.100,-0.123,0.871,-0.244,6.748,-5.740
3.990,0.092,-0.126,0.872,-0.427,5.695,-6.290
3.990,0.088,-0.128,0.865,-0.840,4.427,-6.519
4.000,0.081,-0.132,0.865,-1.374,2.534,-7.099
4.000,0.079,-0.129,0.860,-2.244,1.191,-7.252
4.010,0.077,-0.136,0.858,-2.855,0.305,-7.481
4.010,0.074,-0.137,0.867,-2.931,0.198,-7.573
4.010,0.065,-0.140,0.874,-2.763,0.229,-7.679
4.020,0.057,-0.148,0.876,-2.580,0.275,-7.511
4.020,0.041,-0.140,0.876,-2.473,0.229,-6.840
4.030,0.031,-0.140,0.879,-2.672,-0.275,-6.412
4.030,0.031,-0.138,0.865,-2.305,-0.733,-5.954
4.040,0.028,-0.139,0.870,-2.229,-0.763,-5.420
4.040,0.024,-0.138,0.886,-2.290,-0.336,-4.809
4.040,0.021,-0.137,0.872,-2.137,0.015,-3.756
4.050,0.013,-0.136,0.883,-1.893,0.214,-2.733
4.050,0.012,-0.133,0.876,-2.260,-0.107,-1.695
4.060,0.025,-0.131,0.881,-2.733,0.000,-0.748
4.060,0.042,-0.128,0.887,-2.962,1.313,0.046
4.060,0.050,-0.133,0.888,-3.069,1.954,0.534
