Time,acce_x,acce_y,acce_z,gyro_x,gyro_y,gyro_z
0.000,0.060,-0.127,0.876,0.260,0.748,-1.420
0.000,0.043,-0.123,0.878,-0.031,-0.092,-1.878
0.010,0.053,-0.118,0.878,-0.351,0.855,-1.985
0.010,0.059,-0.119,0.880,-0.718,2.321,-1.771
0.010,0.052,-0.119,0.883,-0.885,2.992,-1.786
0.020,0.037,-0.118,0.883,-1.069,3.466,-1.740
0.020,0.033,-0.122,0.870,-1.756,3.420,-1.649
0.020,0.030,-0.135,0.875,-1.664,2.061,-1.725
0.030,0.025,-0.129,0.875,-1.740,1.130,-2.015
0.030,0.034,-0.127,0.887,-2.031,1.359,-2.137
0.030,0.042,-0.135,0.885,-1.817,2.336,-1.740
0.040,0.026,-0.141,0.885,-1.985,3.084,-1.359
0.040,0.013,-0.141,0.885,-1.740,3.435,-0.916
0.040,-0.002,-0.142,0.896,-1.405,0.824,-0.992
0.050,0.009,-0.146,0.897,-1.252,-0.015,-0.595
0.050,0.008,-0.144,0.902,-1.099,-1.939,-0.565
0.060,0.023,-0.145,0.893,-1.115,-0.656,-0.061
0.060,0.010,-0.135,0.892,-1.282,-2.000,0.260
0.060,0.020,-0.141,0.900,-1.115,-2.290,0.718
0.070,0.031,-0.140,0.884,-1.069,-2.916,0.901
0.070,0.038,-0.143,0.893,-1.130,-2.382,1.237
0.080,0.037,-0.141,0.882,-1.389,-2.351,1.527
0.080,0.045,-0.130,0.869,-2.122,-2.504,1.817
0.080,0.044,-0.135,0.878,-2.550,-3.252,1.863
0.090,0.062,-0.138,0.884,-2.641,-3.679,1.664
0.090,0.070,-0.139,0.897,-2.305,-3.053,1.496
0.100,0.073,-0.137,0.896,-2.031,-2.947,1.282
0.100,0.071,-0.132,0.891,-1.847,-2.931,0.824
0.100,0.074,-0.137,0.884,-1.756,-2.794,0.351
0.110,0.077,-0.137,0.897,-2.061,-3.160,-0.031
0.110,0.078,-0.139,0.898,-1.893,-3.221,-0.519
0.120,0.088,-0.139,0.909,-2.183,-2.458,-0.901
0.120,0.078,-0.151,0.907,-1.649,-2.198,-1.313
0.120,0.071,-0.146,0.897,-1.740,-1.557,-1.527
0.130,0.069,-0.154,0.913,-1.313,-1.344,-1.420
0.130,0.056,-0.146,0.900,-1.191,-1.176,-1.206
0.140,0.057,-0.156,0.902,-0.855,-0.702,-0.672
0.140,0.046,-0.155,0.900,-0.779,-0.229,-0.351
0.140,0.052,-0.158,0.895,-0.168,0.107,0.015
0.150,0.053,-0.145,0.897,-0.153,0.290,0.092
0.150,0.050,-0.147,0.893,-0.153,0.153,0.321
0.160,0.042,-0.157,0.881,0.244,-0.168,0.336
0.160,0.053,-0.149,0.890,-0.076,0.000,0.290
0.160,0.047,-0.146,0.876,-0.015,-0.504,0.260
0.170,0.043,-0.144,0.860,-0.275,-1.191,0.137
0.170,0.048,-0.141,0.859,-0.427,-1.649,0.122
0.180,0.045,-0.140,0.868,-0.565,-1.603,0.321
0.180,0.048,-0.146,0.872,-0.809,-1.756,0.031
0.180,0.051,-0.134,0.867,-0.916,-2.076,0.214
0.190,0.057,-0.138,0.857,-1.450,-1.817,0.443
0.190,0.057,-0.135,0.862,-1.985,-1.908,0.336
0.200,0.069,-0.133,0.866,-2.519,-1.725,0.397
0.200,0.061,-0.128,0.861,-2.947,-1.115,0.382
0.200,0.054,-0.133,0.860,-3.649,-1.649,0.351
0.210,0.054,-0.135,0.871,-4.076,-1.527,0.519
0.210,0.055,-0.122,0.870,-5.298,-1.466,0.580
0.220,0.059,-0.145,0.881,-3.985,-1.053,0.458
0.220,0.062,-0.135,0.887,-4.656,-0.214,0.580
0.220,0.054,-0.135,0.883,-3.985,0.046,0.565
0.230,0.049,-0.125,0.891,-4.641,0.321,0.824
0.230,0.050,-0.132,0.887,-3.557,-0.183,0.763
0.240,0.052,-0.133,0.882,-4.046,-0.244,0.641
0.240,0.040,-0.138,0.891,-3.405,-0.595,0.550
0.240,0.044,-0.136,0.887,-3.389,-1.145,0.214
0.250,0.052,-0.133,0.895,-4.092,-1.618,0.092
0.250,0.047,-0.136,0.893,-3.664,-1.573,0.000
0.260,0.039,-0.138,0.895,-3.695,-1.328,0.366
0.260,0.038,-0.149,0.894,-3.130,-1.603,0.611
0.260,0.033,-0.138,0.904,-3.176,-1.374,0.824
0.270,0.042,-0.143,0.895,-2.702,-1.420,1.252
0.270,0.041,-0.145,0.899,-2.626,-0.763,1.664
0.280,0.044,-0.145,0.907,-1.969,-0.916,2.000
0.280,0.044,-0.145,0.916,-2.183,-1.130,1.908
0.280,0.052,-0.151,0.920,-1.344,-1.176,1.924
0.290,0.057,-0.153,0.918,-1.038,-1.053,1.817
0.290,0.050,-0.140,0.916,-0.611,-0.626,1.649
0.300,0.047,-0.148,0.910,0.061,-0.901,1.679
0.300,0.054,-0.145,0.914,0.214,-0.962,1.786
0.300,0.051,-0.142,0.907,0.214,-1.313,1.603
0.310,0.058,-0.145,0.908,0.046,-1.450,1.267
0.310,0.061,-0.140,0.902,-0.107,-1.542,1.115
0.310,0.060,-0.141,0.894,-0.321,-1.160,0.870
0.320,0.055,-0.144,0.896,-0.305,-0.107,0.748
0.320,0.052,-0.149,0.890,-0.015,0.076,0.885
0.330,0.050,-0.142,0.887,0.015,-0.076,0.702
0.330,0.052,-0.144,0.886,-0.183,-0.870,0.885
0.330,0.048,-0.145,0.895,-0.153,-0.947,0.794
0.340,0.044,-0.149,0.895,0.443,-1.221,0.855
0.340,0.039,-0.146,0.886,0.672,-1.313,1.221
0.350,0.033,-0.142,0.886,0.580,-1.969,1.282
0.350,0.050,-0.140,0.895,0.412,-2.595,1.420
0.350,0.061,-0.148,0.894,0.748,-2.183,1.588
0.360,0.069,-0.145,0.885,0.901,-1.374,1.802
0.360,0.072,-0.148,0.880,1.084,-0.519,1.710
0.370,0.068,-0.144,0.879,0.992,-0.015,1.405
0.370,0.082,-0.138,0.871,0.809,0.718,1.389
0.370,0.081,-0.136,0.863,0.580,1.710,1.267
0.380,0.082,-0.140,0.860,0.107,2.626,0.947
0.380,0.073,-0.134,0.860,-0.290,3.298,0.565
0.390,0.063,-0.135,0.862,-0.489,1.924,0.351
0.390,0.058,-0.134,0.865,-1.374,-0.687,-0.061
0.390,0.066,-0.140,0.850,-2.382,-1.618,-0.626
0.400,0.077,-0.143,0.871,-2.870,-1.160,-0.809
0.400,0.070,-0.144,0.877,-3.115,-0.519,-0.733
0.410,0.057,-0.149,0.869,-3.237,-0.962,-0.687
0.410,0.059,-0.151,0.879,-4.031,-1.389,-0.687
0.410,0.059,-0.157,0.885,-3.832,-1.053,-0.565
0.420,0.052,-0.148,0.892,-3.206,-0.733,-0.290
0.420,0.049,-0.158,0.895,-3.802,0.687,0.351
0.430,0.045,-0.163,0.898,-2.992,1.069,0.580
0.430,0.036,-0.168,0.900,-2.366,0.763,0.656
0.430,0.045,-0.156,0.884,-2.672,0.656,0.992
0.440,0.043,-0.164,0.895,-2.275,0.809,1.313
0.440,0.047,-0.159,0.907,-1.527,0.855,1.313
0.450,0.056,-0.152,0.888,-2.397,1.542,1.603
0.450,0.067,-0.158,0.887,-2.229,1.924,1.832
0.450,0.072,-0.157,0.883,-2.412,1.588,1.802
0.460,0.114,-0.154,0.873,-2.244,2.427,1.954
0.460,0.123,-0.155,0.854,-3.359,8.458,2.748
0.460,0.086,-0.161,0.892,-2.092,11.969,2.229
0.470,-0.071,-0.169,0.975,-0.840,-1.771,0.901
0.470,0.138,-0.136,0.858,-1.450,4.916,1.252
0.480,0.110,-0.136,0.858,-2.061,4.840,0.656
0.480,0.113,-0.147,0.868,-2.962,4.931,0.015
0.480,0.113,-0.150,0.875,-3.389,3.588,-0.824
0.490,0.117,-0.148,0.870,-2.840,3.191,-1.664
0.490,0.116,-0.155,0.890,-3.145,3.328,-2.916
0.500,0.107,-0.157,0.901,-3.420,1.160,-3.725
0.500,0.112,-0.156,0.899,-2.931,1.542,-4.595
0.500,0.117,-0.159,0.910,-2.931,2.748,-5.038
0.510,0.099,-0.156,0.916,-2.489,4.107,-5.099
0.510,0.086,-0.162,0.924,-2.748,4.656,-5.008
0.520,0.072,-0.169,0.908,-2.244,5.130,-4.718
0.520,0.071,-0.166,0.926,-1.435,4.977,-4.519
0.520,0.062,-0.158,0.912,-1.344,4.656,-4.489
0.530,0.071,-0.159,0.901,-1.008,5.069,-4.580
0.530,0.063,-0.163,0.906,-0.656,4.947,-4.321
0.540,0.062,-0.154,0.910,-0.672,5.115,-4.382
0.540,0.060,-0.156,0.915,-0.031,4.779,-4.473
0.540,0.069,-0.154,0.895,-0.198,5.344,-4.458
0.550,0.057,-0.161,0.895,0.168,5.023,-4.534
0.550,0.049,-0.155,0.882,0.427,4.397,-4.550
0.560,0.050,-0.152,0.884,-0.214,3.634,-4.519
0.560,0.046,-0.153,0.882,-0.519,3.328,-4.168
0.560,0.057,-0.153,0.879,-0.382,3.924,-3.649
0.570,0.066,-0.146,0.885,-0.962,5.267,-3.328
0.570,0.057,-0.157,0.890,-0.779,4.885,-3.313
0.580,0.073,-0.141,0.877,-1.115,5.450,-3.389
0.580,0.083,-0.140,0.880,-1.435,5.695,-3.374
0.580,0.096,-0.139,0.882,-1.603,6.427,-3.786
0.590,0.095,-0.139,0.895,-1.573,6.840,-4.473
0.590,0.091,-0.135,0.894,-1.832,6.489,-5.344
0.600,0.089,-0.140,0.899,-1.771,6.626,-5.634
0.600,0.093,-0.142,0.893,-1.695,6.565,-6.244
0.600,0.084,-0.139,0.883,-1.435,6.580,-6.779
0.610,0.077,-0.143,0.893,-1.252,5.649,-7.511
0.610,0.076,-0.142,0.885,-1.252,4.351,-8.336
0.620,0.071,-0.142,0.877,-1.206,3.802,-8.931
0.620,0.060,-0.141,0.886,-1.618,3.435,-8.840
0.620,0.045,-0.146,0.882,-1.099,3.099,-9.038
0.630,0.044,-0.138,0.883,-1.130,2.489,-8.855
0.630,0.031,-0.140,0.875,-1.496,1.634,-8.733
0.640,0.038,-0.145,0.873,-1.588,1.237,-8.290
0.640,0.037,-0.142,0.880,-1.527,1.542,-7.969
0.640,0.035,-0.138,0.885,-1.725,1.985,-7.618
0.650,0.044,-0.143,0.880,-1.725,2.290,-7.359
0.650,0.045,-0.140,0.883,-2.107,2.473,-7.267
0.660,0.051,-0.145,0.884,-2.504,2.977,-7.420
0.660,0.057,-0.150,0.884,-2.916,3.069,-7.588
0.660,0.053,-0.146,0.888,-2.916,2.641,-7.985
0.670,0.057,-0.153,0.897,-3.145,2.443,-8.168
0.670,0.049,-0.157,0.903,-2.748,2.229,-8.046
0.680,0.050,-0.158,0.908,-2.397,2.779,-7.893
0.680,0.056,-0.158,0.909,-2.183,2.489,-7.847
0.680,0.059,-0.158,0.906,-2.656,1.435,-7.954
0.690,0.076,-0.155,0.925,-2.168,0.534,-8.626
0.690,0.090,-0.163,0.929,-1.176,0.855,-9.237
0.700,0.080,-0.160,0.934,-0.947,0.885,-9.649
0.700,0.090,-0.163,0.933,-0.519,1.206,-9.618
0.700,0.086,-0.171,0.928,0.321,1.527,-10.015
0.710,0.097,-0.173,0.925,0.779,1.634,-10.580
0.710,0.103,-0.176,0.926,1.374,2.290,-10.672
0.720,0.101,-0.177,0.934,1.588,3.008,-10.397
0.720,0.108,-0.172,0.921,1.664,3.679,-10.840
0.720,0.121,-0.177,0.930,1.954,4.000,-11.115
0.730,0.118,-0.174,0.923,2.336,4.595,-11.878
0.730,0.127,-0.175,0.922,2.366,5.069,-12.473
0.740,0.130,-0.176,0.922,2.244,5.466,-12.809
0.740,0.123,-0.181,0.914,2.901,5.878,-13.237
0.740,0.125,-0.171,0.923,3.053,5.878,-13.405
0.750,0.134,-0.169,0.916,3.206,5.756,-13.756
0.750,0.154,-0.170,0.908,3.359,6.031,-14.550
0.760,0.174,-0.173,0.917,3.954,6.809,-15.496
0.760,0.172,-0.169,0.914,4.290,7.099,-16.489
0.760,0.178,-0.171,0.896,3.939,7.237,-17.664
0.770,0.190,-0.168,0.899,4.061,6.855,-18.580
0.770,0.200,-0.167,0.894,4.198,6.550,-20.382
0.780,0.210,-0.169,0.904,4.504,5.908,-22.000
0.780,0.214,-0.171,0.901,4.321,5.466,-23.878
0.780,0.213,-0.168,0.888,4.779,4.840,-25.603
0.790,0.207,-0.167,0.890,4.794,4.031,-27.160
0.790,0.215,-0.176,0.884,4.122,3.145,-28.489
0.800,0.223,-0.179,0.902,4.412,2.702,-30.168
0.800,0.222,-0.181,0.894,4.824,3.115,-31.573
0.800,0.217,-0.190,0.894,5.420,3.282,-32.824
0.810,0.225,-0.189,0.880,5.405,3.664,-34.198
0.810,0.221,-0.183,0.884,5.359,4.290,-35.160
0.820,0.224,-0.194,0.879,5.954,5.282,-36.321
0.820,0.216,-0.196,0.869,6.015,5.573,-37.130
0.820,0.213,-0.190,0.857,5.374,5.267,-38.015
0.830,0.228,-0.193,0.864,4.779,5.542,-39.084
0.830,0.237,-0.202,0.870,4.687,6.870,-40.351
0.840,0.238,-0.200,0.877,4.977,8.855,-41.237
0.840,0.238,-0.199,0.873,4.794,10.107,-42.198
0.840,0.236,-0.198,0.861,4.947,10.137,-43.481
0.850,0.241,-0.188,0.858,4.107,10.015,-44.947
0.850,0.253,-0.187,0.845,3.359,9.863,-46.672
0.860,0.257,-0.189,0.849,3.206,10.351,-48.351
0.860,0.255,-0.187,0.848,3.267,10.244,-50.092
0.860,0.263,-0.193,0.853,2.885,10.214,-52.137
0.870,0.260,-0.190,0.846,2.733,9.542,-54.351
0.870,0.261,-0.196,0.843,2.550,8.214,-57.008
0.880,0.259,-0.198,0.836,2.198,6.580,-59.863
0.880,0.244,-0.196,0.822,1.664,4.489,-62.366
0.880,0.236,-0.197,0.825,0.840,1.771,-64.916
0.890,0.232,-0.198,0.841,0.290,-1.176,-67.282
0.890,0.229,-0.207,0.863,0.656,-1.725,-68.626
0.900,0.220,-0.213,0.856,0.931,-2.321,-69.313
0.900,0.215,-0.217,0.860,0.580,-2.061,-69.893
0.900,0.213,-0.218,0.849,-0.107,-1.832,-70.550
0.910,0.226,-0.218,0.854,-0.977,-0.489,-71.298
0.910,0.232,-0.223,0.866,-1.069,-0.153,-72.305
0.920,0.247,-0.217,0.866,-1.603,2.366,-73.160
0.920,0.243,-0.222,0.864,-2.229,3.969,-73.939
0.930,0.240,-0.225,0.877,-2.519,4.977,-74.977
0.930,0.244,-0.219,0.878,-3.084,6.672,-75.924
0.930,0.239,-0.219,0.879,-3.466,8.198,-77.023
0.940,0.251,-0.232,0.891,-3.466,10.992,-78.076
0.940,0.245,-0.243,0.912,-2.595,13.252,-79.481
0.950,0.239,-0.240,0.915,-1.832,15.069,-80.763
0.950,0.225,-0.246,0.908,-1.130,16.183,-82.229
0.950,0.205,-0.247,0.920,-0.626,15.863,-83.740
0.960,0.189,-0.246,0.912,0.229,14.641,-85.023
0.960,0.177,-0.247,0.908,0.962,13.344,-85.985
0.970,0.177,-0.246,0.913,1.374,12.351,-87.496
0.970,0.162,-0.252,0.912,1.924,11.771,-88.840
0.970,0.150,-0.253,0.911,2.595,11.160,-89.939
0.980,0.148,-0.260,0.913,3.542,10.519,-90.901
0.980,0.126,-0.250,0.888,4.000,10.489,-91.511
0.990,0.122,-0.256,0.888,4.229,10.550,-91.786
0.990,0.104,-0.251,0.890,4.351,10.779,-91.832
1.000,0.106,-0.256,0.889,4.779,11.176,-91.695
1.000,0.098,-0.247,0.879,4.748,11.481,-91.679
1.000,0.105,-0.246,0.880,4.824,12.092,-91.450
1.010,0.104,-0.244,0.866,4.473,12.153,-91.405
1.010,0.119,-0.238,0.854,3.771,12.840,-91.282
1.020,0.130,-0.232,0.860,2.977,13.359,-91.450
1.020,0.140,-0.226,0.857,2.443,14.763,-91.939
1.020,0.154,-0.231,0.860,2.641,16.107,-92.672
1.030,0.149,-0.237,0.875,2.733,16.702,-93.740
1.030,0.143,-0.227,0.862,2.763,16.458,-94.412
1.040,0.129,-0.216,0.861,2.565,15.588,-95.160
1.040,0.141,-0.226,0.855,2.153,14.550,-95.878
1.040,0.147,-0.232,0.863,1.771,13.389,-96.916
1.050,0.158,-0.228,0.861,1.893,13.603,-97.756
1.050,0.156,-0.229,0.867,1.511,13.466,-99.008
1.060,0.161,-0.232,0.868,1.206,13.756,-100.122
1.060,0.174,-0.226,0.865,0.427,13.557,-101.344
1.060,0.171,-0.230,0.874,0.290,13.695,-102.947
1.070,0.171,-0.229,0.878,0.489,14.321,-104.458
1.070,0.153,-0.243,0.879,0.351,13.924,-105.969
1.080,0.147,-0.254,0.882,0.015,12.733,-107.603
1.080,0.139,-0.254,0.880,-0.046,12.031,-108.901
1.090,0.135,-0.265,0.897,-0.015,11.328,-110.443
1.090,0.129,-0.270,0.906,0.183,10.305,-111.710
1.090,0.122,-0.277,0.919,0.656,9.130,-113.221
1.100,0.113,-0.279,0.935,1.206,7.542,-114.122
1.100,0.109,-0.279,0.927,1.527,6.519,-115.435
1.110,0.097,-0.287,0.926,2.275,5.359,-116.183
1.110,0.091,-0.289,0.925,2.733,4.519,-116.626
1.110,0.091,-0.294,0.929,3.695,4.824,-116.901
1.120,0.091,-0.291,0.938,4.107,5.282,-117.008
1.120,0.099,-0.287,0.923,4.321,5.802,-117.206
1.130,0.099,-0.287,0.922,3.985,6.779,-117.710
1.130,0.113,-0.286,0.916,4.015,8.214,-117.847
1.130,0.105,-0.286,0.925,4.229,9.420,-117.832
1.140,0.106,-0.283,0.923,3.725,10.397,-118.244
1.140,0.124,-0.273,0.916,3.588,11.374,-118.824
1.150,0.129,-0.281,0.935,3.954,12.977,-119.771
1.150,0.120,-0.280,0.933,4.855,14.351,-120.443
1.160,0.106,-0.278,0.937,6.061,14.962,-121.374
1.160,0.091,-0.275,0.931,7.023,14.901,-121.924
1.160,0.075,-0.274,0.917,7.817,14.290,-123.115
1.170,0.062,-0.269,0.904,7.847,12.840,-123.405
1.170,0.051,-0.272,0.902,8.031,11.435,-124.305
1.180,0.049,-0.268,0.892,8.687,10.137,-124.840
1.180,0.038,-0.271,0.876,8.504,8.473,-125.313
1.180,0.020,-0.265,0.864,7.313,6.305,-125.908
1.190,0.022,-0.266,0.874,5.802,3.832,-126.214
1.190,0.032,-0.264,0.870,4.916,2.794,-126.427
1.200,0.029,-0.268,0.878,4.763,2.519,-126.687
1.200,0.025,-0.270,0.885,4.107,2.702,-126.641
1.200,0.028,-0.274,0.889,3.985,2.992,-126.977
1.210,0.021,-0.284,0.907,3.802,4.015,-127.267
1.210,0.017,-0.284,0.917,4.473,4.672,-127.527
1.220,-0.014,-0.293,0.930,5.176,4.641,-127.481
1.220,-0.027,-0.288,0.930,6.122,3.389,-127.099
1.230,-0.031,-0.288,0.926,6.779,2.290,-126.107
1.230,-0.024,-0.281,0.922,6.870,1.863,-125.496
1.230,-0.010,-0.279,0.924,6.992,2.107,-125.130
1.240,-0.010,-0.288,0.918,7.557,2.580,-124.672
1.240,-0.007,-0.280,0.933,8.260,3.618,-123.832
1.250,-0.002,-0.280,0.939,8.443,5.893,-122.702
1.250,0.017,-0.266,0.913,8.412,8.565,-121.817
1.250,0.014,-0.276,0.919,8.489,10.336,-121.405
1.260,0.014,-0.266,0.912,8.779,11.099,-121.145
1.260,0.010,-0.265,0.922,9.542,11.679,-120.550
1.270,0.011,-0.258,0.920,9.908,13.237,-119.191
1.270,0.016,-0.259,0.915,10.107,15.237,-118.168
1.280,0.042,-0.257,0.920,10.290,17.374,-118.137
1.280,0.059,-0.253,0.919,10.580,18.305,-118.992
1.280,0.057,-0.258,0.902,11.069,17.908,-120.519
1.290,0.058,-0.257,0.908,11.618,16.901,-122.168
1.290,0.047,-0.258,0.902,11.679,15.496,-122.977
1.300,0.040,-0.259,0.886,11.603,13.832,-123.618
1.300,0.042,-0.260,0.879,11.664,11.969,-124.977
1.310,0.044,-0.260,0.875,11.069,9.115,-126.473
1.310,0.042,-0.268,0.898,10.412,7.130,-127.863
1.310,0.042,-0.270,0.893,10.168,6.076,-128.885
1.320,0.038,-0.263,0.908,10.687,6.565,-129.313
1.320,0.028,-0.266,0.908,11.344,7.496,-129.511
1.330,0.006,-0.267,0.902,11.649,8.305,-129.160
1.330,-0.006,-0.271,0.911,11.710,8.962,-128.824
1.330,-0.017,-0.272,0.919,12.550,10.153,-128.229
1.340,-0.026,-0.271,0.919,13.557,11.924,-126.885
1.340,-0.024,-0.262,0.915,14.382,14.305,-125.145
1.350,-0.018,-0.260,0.902,14.275,16.763,-123.786
1.350,-0.010,-0.258,0.886,14.046,19.023,-123.053
1.360,-0.006,-0.260,0.874,15.038,20.290,-122.321
1.360,-0.018,-0.254,0.886,14.809,19.863,-120.702
1.360,0.012,-0.249,0.888,14.321,21.374,-118.779
1.370,0.046,-0.250,0.883,13.985,25.573,-117.450
1.370,0.091,-0.257,0.887,13.771,29.405,-117.450
1.380,0.104,-0.236,0.889,14.015,31.405,-118.550
1.380,0.110,-0.250,0.884,14.504,32.656,-120.076
1.390,0.102,-0.234,0.876,14.611,33.496,-122.153
1.390,0.085,-0.240,0.874,15.206,32.412,-123.832
1.390,0.071,-0.232,0.883,16.107,30.687,-125.573
1.400,0.053,-0.234,0.878,17.099,28.901,-127.740
1.400,0.035,-0.226,0.860,17.603,26.534,-129.710
1.410,0.012,-0.228,0.848,17.985,22.626,-132.015
1.410,-0.029,-0.222,0.832,18.321,17.557,-133.954
1.420,-0.048,-0.231,0.812,18.336,11.634,-135.115
1.420,-0.065,-0.220,0.796,17.435,7.237,-135.863
1.420,-0.068,-0.225,0.775,16.061,4.916,-136.565
1.430,-0.073,-0.228,0.781,14.321,3.160,-136.855
1.430,-0.090,-0.230,0.792,13.405,1.221,-136.794
1.440,-0.108,-0.238,0.804,11.954,-0.061,-135.985
1.440,-0.099,-0.231,0.816,10.031,0.962,-134.015
1.450,-0.084,-0.233,0.830,8.656,3.542,-132.611
1.450,-0.076,-0.234,0.859,8.046,6.885,-131.191
1.450,-0.073,-0.240,0.868,8.122,10.153,-130.473
1.460,-0.085,-0.236,0.864,7.954,12.534,-129.817
1.460,-0.107,-0.237,0.863,8.489,13.832,-129.099
1.470,-0.119,-0.236,0.860,8.901,13.664,-128.443
1.470,-0.141,-0.227,0.853,8.992,12.931,-127.145
1.480,-0.153,-0.219,0.853,8.885,12.458,-125.710
1.480,-0.161,-0.209,0.842,8.840,12.153,-124.092
1.480,-0.176,-0.202,0.836,8.656,11.038,-122.351
1.490,-0.164,-0.195,0.840,8.443,9.969,-120.794
1.490,-0.153,-0.186,0.828,8.046,9.328,-119.481
1.500,-0.137,-0.182,0.809,7.588,10.351,-118.183
1.500,-0.139,-0.171,0.804,6.382,11.221,-116.992
1.510,-0.141,-0.167,0.825,6.046,12.290,-115.267
1.510,-0.148,-0.167,0.811,6.198,13.954,-114.000
1.510,-0.156,-0.157,0.799,5.618,15.389,-112.031
1.520,-0.153,-0.147,0.809,4.565,16.366,-110.321
1.520,-0.139,-0.148,0.812,4.061,18.000,-108.962
1.530,-0.132,-0.145,0.805,3.985,19.969,-107.725
1.530,-0.143,-0.142,0.809,3.847,20.885,-107.252
1.530,-0.157,-0.146,0.801,4.000,20.595,-106.321
1.540,-0.162,-0.135,0.799,3.450,19.008,-105.710
1.540,-0.168,-0.121,0.783,2.336,16.382,-105.145
1.550,-0.165,-0.125,0.792,1.298,14.779,-104.168
1.550,-0.164,-0.123,0.795,0.794,13.985,-103.588
1.560,-0.164,-0.131,0.789,0.427,12.443,-103.435
1.560,-0.157,-0.125,0.787,-0.153,10.702,-103.374
1.560,-0.161,-0.123,0.795,-1.420,8.916,-102.931
1.570,-0.167,-0.120,0.809,-2.840,7.710,-102.275
1.570,-0.167,-0.123,0.798,-3.908,7.130,-101.282
1.580,-0.157,-0.121,0.826,-4.870,7.237,-100.366
1.580,-0.144,-0.118,0.822,-6.107,7.542,-99.099
1.590,-0.142,-0.114,0.835,-7.053,8.931,-97.832
1.590,-0.125,-0.112,0.853,-7.527,11.160,-97.053
1.590,-0.114,-0.106,0.854,-7.679,13.252,-96.076
1.600,-0.117,-0.105,0.850,-7.710,14.916,-95.298
1.600,-0.109,-0.098,0.850,-7.679,16.931,-94.580
1.610,-0.115,-0.094,0.840,-7.756,19.084,-93.496
1.610,-0.111,-0.096,0.849,-6.947,21.038,-93.053
1.620,-0.114,-0.096,0.831,-6.015,21.557,-93.206
1.620,-0.119,-0.102,0.823,-5.588,21.145,-93.481
1.620,-0.132,-0.104,0.804,-6.351,19.969,-94.076
1.630,-0.142,-0.115,0.790,-6.855,17.969,-94.901
1.630,-0.148,-0.121,0.788,-7.603,14.901,-96.275
1.640,-0.157,-0.130,0.777,-9.389,10.870,-97.893
1.640,-0.159,-0.139,0.764,-11.420,6.382,-100.015
1.650,-0.149,-0.138,0.775,-13.649,1.878,-102.351
1.650,-0.150,-0.144,0.786,-15.954,-1.649,-104.366
1.650,-0.146,-0.159,0.788,-18.427,-4.763,-106.366
1.660,-0.161,-0.162,0.798,-20.565,-8.076,-108.046
1.660,-0.167,-0.154,0.799,-22.137,-10.550,-109.023
1.670,-0.182,-0.163,0.803,-23.985,-13.099,-109.527
1.670,-0.194,-0.155,0.802,-26.168,-14.641,-109.221
1.680,-0.201,-0.169,0.803,-27.847,-14.992,-107.985
1.680,-0.215,-0.159,0.798,-29.084,-14.855,-106.519
1.690,-0.218,-0.162,0.807,-30.916,-14.779,-104.382
1.690,-0.217,-0.167,0.812,-33.023,-14.107,-102.076
1.690,-0.208,-0.173,0.832,-34.107,-12.489,-99.481
1.700,-0.208,-0.177,0.843,-35.008,-10.824,-97.374
1.700,-0.200,-0.174,0.855,-36.458,-10.656,-95.130
1.710,-0.185,-0.168,0.860,-37.511,-10.473,-93.282
1.710,-0.158,-0.171,0.880,-39.008,-9.969,-91.908
1.720,-0.124,-0.155,0.892,-40.733,-8.137,-91.130
1.720,-0.104,-0.115,0.896,-43.267,-5.679,-90.473
1.730,-0.071,-0.082,0.912,-47.756,-3.344,-90.702
1.730,-0.018,-0.112,0.938,-51.145,-0.061,-92.962
1.730,0.014,-0.190,0.986,-50.198,3.817,-97.832
1.740,0.007,-0.240,1.039,-46.397,4.107,-103.084
1.740,-0.041,-0.251,1.044,-42.626,-1.038,-108.183
1.750,-0.070,-0.246,1.020,-40.107,-7.466,-112.824
1.750,-0.089,-0.253,1.005,-37.466,-13.206,-117.557
1.760,-0.120,-0.266,0.995,-34.794,-21.115,-121.756
1.760,-0.147,-0.266,1.004,-31.756,-29.649,-125.069
1.760,-0.177,-0.271,1.000,-28.580,-36.275,-126.748
1.770,-0.201,-0.272,1.010,-25.420,-40.809,-126.229
1.770,-0.239,-0.274,1.013,-22.198,-44.046,-123.313
1.780,-0.251,-0.273,1.018,-19.435,-44.794,-118.229
1.780,-0.249,-0.278,1.021,-16.183,-41.618,-112.305
1.790,-0.240,-0.292,1.032,-12.916,-35.908,-105.389
1.790,-0.231,-0.295,1.024,-9.435,-29.359,-98.183
1.800,-0.220,-0.281,1.009,-6.840,-21.740,-91.863
1.800,-0.211,-0.277,0.988,-4.733,-14.412,-85.634
1.800,-0.207,-0.268,0.964,-3.145,-6.916,-79.863
1.810,-0.198,-0.266,0.935,-2.580,-0.824,-74.885
1.810,-0.198,-0.253,0.927,-1.328,4.305,-70.198
1.820,-0.188,-0.242,0.890,-1.282,8.397,-65.802
1.820,-0.188,-0.227,0.865,-0.992,10.656,-62.504
1.830,-0.196,-0.220,0.845,-1.130,11.145,-59.344
1.830,-0.192,-0.215,0.838,-1.954,10.534,-56.229
1.830,-0.188,-0.204,0.830,-2.672,11.466,-53.298
1.840,-0.189,-0.201,0.829,-3.176,11.496,-50.702
1.840,-0.187,-0.192,0.830,-3.634,9.420,-48.885
1.850,-0.189,-0.188,0.819,-4.321,6.901,-47.328
1.850,-0.189,-0.177,0.811,-5.282,4.443,-45.389
1.860,-0.189,-0.163,0.805,-7.267,2.489,-43.344
1.860,-0.174,-0.162,0.814,-8.947,1.710,-41.115
1.860,-0.156,-0.164,0.834,-9.893,2.443,-39.130
1.870,-0.142,-0.174,0.844,-10.382,4.351,-37.389
1.870,-0.136,-0.166,0.840,-10.412,6.061,-36.427
1.880,-0.138,-0.168,0.843,-10.824,6.198,-35.450
1.880,-0.148,-0.167,0.860,-11.481,5.740,-34.183
1.890,-0.144,-0.174,0.869,-11.435,5.679,-32.489
1.890,-0.147,-0.179,0.879,-10.870,6.214,-30.809
1.890,-0.155,-0.184,0.887,-10.305,5.573,-28.901
1.900,-0.158,-0.188,0.885,-9.710,4.733,-27.649
1.900,-0.159,-0.188,0.878,-9.023,3.649,-26.183
1.910,-0.171,-0.195,0.888,-8.550,1.649,-24.565
1.910,-0.180,-0.201,0.906,-7.710,0.076,-22.534
1.910,-0.192,-0.222,0.913,-5.771,-1.832,-20.550
1.920,-0.197,-0.217,0.920,-4.168,-4.122,-18.076
1.920,-0.195,-0.220,0.929,-2.656,-5.328,-15.176
1.930,-0.191,-0.229,0.946,-0.092,-5.496,-11.710
1.930,-0.192,-0.235,0.947,2.122,-4.962,-8.580
1.940,-0.184,-0.238,0.937,3.573,-4.901,-5.786
1.940,-0.168,-0.238,0.924,4.595,-3.847,-2.275
1.940,-0.148,-0.239,0.918,5.237,-1.023,0.870
1.950,-0.134,-0.240,0.910,5.985,2.885,3.634
1.950,-0.124,-0.241,0.907,6.931,6.382,6.351
1.960,-0.109,-0.237,0.898,7.176,8.809,8.397
1.960,-0.104,-0.222,0.886,6.916,10.275,10.183
1.960,-0.098,-0.214,0.882,6.794,11.344,11.893
1.970,-0.092,-0.212,0.882,7.160,11.511,13.466
1.970,-0.086,-0.203,0.871,7.130,11.328,14.397
1.980,-0.075,-0.192,0.863,7.008,10.641,15.099
1.980,-0.073,-0.189,0.847,6.489,8.794,15.450
1.980,-0.048,-0.174,0.842,6.168,6.870,15.374
1.990,-0.038,-0.177,0.839,6.382,5.191,15.191
1.990,-0.019,-0.174,0.846,6.565,4.137,14.992
2.000,-0.009,-0.169,0.825,5.847,2.901,14.321
2.000,0.002,-0.167,0.808,5.160,1.496,13.420
2.000,0.016,-0.169,0.817,4.198,-0.427,12.382
2.010,0.021,-0.168,0.819,3.130,-1.420,12.015
2.010,0.028,-0.174,0.834,2.412,-0.962,11.710
2.020,0.036,-0.173,0.830,1.985,-0.137,11.466
2.020,0.045,-0.177,0.820,0.885,-0.473,10.855
2.020,0.046,-0.167,0.835,-0.443,-1.679,10.076
2.030,0.051,-0.168,0.847,-1.282,-1.832,9.237
2.030,0.049,-0.168,0.855,-1.481,-0.931,8.947
2.040,0.044,-0.171,0.873,-1.206,0.107,8.885
2.040,0.020,-0.173,0.872,-0.794,-0.473,8.702
2.040,0.013,-0.163,0.871,-1.389,-2.137,9.053
2.050,0.015,-0.159,0.873,-1.817,-2.840,9.466
2.050,0.021,-0.165,0.882,-0.763,-1.756,10.122
2.060,0.025,-0.163,0.894,0.214,-0.947,10.366
2.060,0.026,-0.164,0.897,0.840,-1.145,10.305
2.060,0.027,-0.163,0.891,1.176,-2.397,10.076
2.070,0.021,-0.156,0.890,1.328,-3.160,9.832
2.070,0.031,-0.158,0.879,1.298,-3.450,9.939
2.080,0.031,-0.153,0.888,1.634,-3.282,10.183
2.080,0.028,-0.159,0.880,1.878,-2.763,10.275
2.080,0.020,-0.151,0.880,1.939,-2.824,10.382
2.090,0.018,-0.156,0.875,1.924,-3.588,10.290
2.090,0.023,-0.155,0.882,1.649,-4.000,9.924
2.100,0.021,-0.155,0.878,1.267,-4.214,9.924
2.100,0.023,-0.158,0.883,0.779,-4.107,9.939
2.100,0.019,-0.165,0.888,0.672,-3.847,9.786
2.110,0.015,-0.163,0.887,0.763,-3.786,9.847
2.110,0.010,-0.173,0.885,0.733,-4.504,10.107
2.120,-0.001,-0.170,0.884,0.626,-5.099,10.351
2.120,-0.008,-0.176,0.883,0.244,-5.802,11.069
2.120,-0.005,-0.175,0.891,-0.336,-5.542,11.969
2.130,-0.011,-0.176,0.902,-0.824,-5.649,12.992
2.130,-0.015,-0.189,0.904,-1.008,-5.664,13.985
2.140,-0.002,-0.186,0.932,-0.275,-4.489,14.763
2.140,-0.006,-0.191,0.922,0.168,-2.855,15.740
2.140,-0.010,-0.195,0.927,0.626,-1.511,16.641
2.150,-0.025,-0.199,0.926,0.901,-1.542,17.603
2.150,-0.039,-0.199,0.935,1.420,-1.725,18.611
2.160,-0.047,-0.204,0.942,2.260,-1.359,19.466
2.160,-0.053,-0.207,0.957,3.817,-0.702,20.351
2.160,-0.059,-0.208,0.968,5.115,-0.153,21.527
2.170,-0.078,-0.203,0.954,6.305,0.275,22.382
2.170,-0.085,-0.202,0.951,7.069,-0.366,22.748
2.180,-0.100,-0.200,0.943,7.863,-1.573,23.359
2.180,-0.122,-0.202,0.934,8.260,-3.130,23.924
2.180,-0.128,-0.197,0.934,8.824,-4.443,24.687
2.190,-0.138,-0.202,0.939,9.664,-5.603,24.870
2.190,-0.147,-0.206,0.941,11.160,-5.969,25.878
2.200,-0.169,-0.201,0.929,12.183,-7.023,26.977
2.200,-0.185,-0.208,0.920,12.733,-8.351,28.092
2.210,-0.200,-0.203,0.906,13.221,-9.511,29.420
2.210,-0.211,-0.199,0.904,13.466,-10.382,30.840
2.210,-0.235,-0.205,0.898,13.771,-10.992,32.840
2.220,-0.247,-0.210,0.892,14.351,-11.252,34.992
2.220,-0.259,-0.205,0.886,14.229,-11.649,37.176
2.230,-0.275,-0.205,0.877,14.122,-12.076,39.649
2.230,-0.290,-0.214,0.868,14.183,-12.046,42.229
2.230,-0.302,-0.206,0.854,13.954,-12.214,45.130
2.240,-0.312,-0.208,0.855,13.725,-12.046,48.489
2.240,-0.331,-0.215,0.853,13.725,-10.763,52.840
2.250,-0.330,-0.214,0.844,12.702,-9.206,57.496
2.250,-0.326,-0.215,0.843,11.878,-6.931,61.832
2.260,-0.326,-0.216,0.846,11.221,-4.321,66.397
2.260,-0.322,-0.221,0.856,10.824,-1.634,70.489
2.260,-0.313,-0.225,0.849,10.244,1.084,74.565
2.270,-0.305,-0.229,0.853,9.542,3.435,78.458
2.270,-0.305,-0.232,0.852,9.756,4.763,81.511
2.280,-0.293,-0.235,0.847,9.389,6.000,84.412
2.280,-0.295,-0.234,0.820,8.260,6.794,86.901
2.280,-0.302,-0.234,0.806,6.427,6.336,89.221
2.290,-0.313,-0.241,0.819,5.069,5.359,91.954
2.290,-0.311,-0.238,0.820,3.832,4.305,93.863
2.300,-0.308,-0.243,0.810,2.718,3.130,96.992
2.300,-0.308,-0.242,0.832,1.176,1.847,98.565
2.300,-0.309,-0.245,0.852,0.153,0.855,101.298
2.310,-0.301,-0.250,0.867,0.183,-0.382,104.214
2.310,-0.298,-0.245,0.886,0.595,-1.847,107.313
2.320,-0.285,-0.242,0.895,0.779,-2.672,110.076
2.320,-0.262,-0.240,0.898,1.389,-2.519,112.809
2.330,-0.226,-0.239,0.925,2.015,-1.802,115.389
2.330,-0.200,-0.236,0.945,3.344,-0.015,117.069
2.330,-0.168,-0.234,0.958,5.725,2.061,118.443
2.340,-0.156,-0.234,0.959,7.038,2.412,118.427
2.340,-0.136,-0.227,0.959,8.198,1.634,117.908
2.350,-0.122,-0.216,0.964,9.878,0.412,116.870
2.350,-0.107,-0.212,0.960,12.412,-1.496,114.901
2.350,-0.096,-0.206,0.954,15.099,-4.718,112.656
2.360,-0.106,-0.202,0.931,17.344,-10.076,109.924
2.360,-0.112,-0.188,0.904,18.031,-16.947,106.809
2.370,-0.114,-0.193,0.888,19.145,-23.206,103.802
2.370,-0.118,-0.177,0.863,19.115,-30.244,100.580
2.380,-0.126,-0.177,0.851,18.855,-36.962,97.832
2.380,-0.137,-0.173,0.860,18.824,-42.626,96.000
2.380,-0.150,-0.178,0.864,18.550,-46.855,95.985
2.390,-0.173,-0.177,0.860,18.397,-50.489,95.176
2.390,-0.173,-0.181,0.876,18.687,-51.481,97.282
2.400,-0.176,-0.185,0.888,19.344,-50.366,99.511
2.400,-0.170,-0.194,0.891,19.496,-47.771,102.412
2.410,-0.154,-0.194,0.892,19.008,-42.122,106.015
2.410,-0.151,-0.196,0.901,19.328,-35.649,109.710
2.410,-0.158,-0.212,0.911,20.427,-30.626,113.679
2.420,-0.154,-0.208,0.936,21.863,-25.573,117.466
2.420,-0.145,-0.212,0.927,22.901,-20.000,121.099
2.430,-0.146,-0.208,0.924,23.542,-14.672,124.763
2.430,-0.138,-0.210,0.924,23.450,-10.000,128.198
2.440,-0.130,-0.213,0.921,24.061,-5.710,131.282
2.440,-0.129,-0.218,0.911,25.420,-2.137,133.496
2.440,-0.137,-0.217,0.889,26.031,0.275,135.450
2.450,-0.147,-0.213,0.856,25.542,0.840,137.053
2.450,-0.155,-0.217,0.830,24.534,1.145,137.893
2.460,-0.165,-0.219,0.803,23.603,0.412,138.794
2.460,-0.180,-0.210,0.789,21.679,-1.435,139.618
2.470,-0.183,-0.204,0.772,19.405,-3.008,140.656
2.470,-0.203,-0.209,0.755,16.870,-4.672,141.756
2.470,-0.211,-0.217,0.740,14.183,-6.397,143.099
2.480,-0.211,-0.213,0.748,10.733,-7.496,144.840
2.480,-0.219,-0.232,0.741,7.511,-7.832,147.069
2.490,-0.222,-0.233,0.758,4.824,-7.252,149.542
2.490,-0.220,-0.240,0.758,2.336,-6.870,152.153
2.490,-0.219,-0.248,0.774,0.122,-6.504,154.855
2.500,-0.205,-0.256,0.799,-1.756,-7.130,157.267
2.500,-0.196,-0.274,0.838,-2.092,-6.443,159.389
2.510,-0.199,-0.289,0.869,-1.695,-5.481,162.015
2.510,-0.198,-0.291,0.883,-0.168,-4.901,164.672
2.520,-0.182,-0.303,0.891,1.328,-4.687,167.221
2.520,-0.174,-0.307,0.907,3.160,-4.611,169.527
2.520,-0.165,-0.317,0.901,5.069,-4.382,171.176
2.530,-0.157,-0.324,0.895,6.947,-5.237,172.840
2.530,-0.158,-0.324,0.880,8.290,-6.351,174.885
2.540,-0.145,-0.329,0.856,8.672,-7.145,176.244
2.540,-0.122,-0.325,0.862,8.290,-7.817,177.359
2.550,-0.098,-0.331,0.858,8.214,-7.679,178.046
2.550,-0.091,-0.338,0.859,8.031,-7.466,178.718
2.550,-0.097,-0.336,0.845,6.718,-7.191,179.435
2.560,-0.095,-0.333,0.864,5.878,-7.008,180.427
2.560,-0.087,-0.341,0.856,4.687,-6.977,180.931
2.570,-0.084,-0.349,0.867,3.908,-6.473,181.710
2.570,-0.072,-0.356,0.869,3.038,-5.832,182.198
2.570,-0.073,-0.364,0.876,2.595,-5.695,182.519
2.580,-0.067,-0.366,0.876,2.412,-5.817,182.305
2.580,-0.051,-0.374,0.894,2.336,-6.244,181.450
2.590,-0.042,-0.367,0.892,2.809,-6.611,180.687
2.590,-0.056,-0.374,0.902,3.710,-8.260,179.939
2.600,-0.070,-0.374,0.894,4.351,-11.160,179.405
2.600,-0.074,-0.373,0.888,4.412,-14.000,179.099
2.600,-0.080,-0.380,0.883,4.733,-15.679,179.191
2.610,-0.082,-0.377,0.881,4.901,-17.099,179.863
2.610,-0.097,-0.376,0.886,5.221,-18.504,181.466
2.620,-0.093,-0.384,0.879,5.603,-18.198,183.542
2.620,-0.084,-0.378,0.900,5.908,-16.305,186.321
2.620,-0.062,-0.370,0.902,6.351,-13.221,189.573
2.630,-0.043,-0.383,0.920,6.779,-9.969,192.107
2.630,-0.009,-0.374,0.896,6.427,-6.626,194.046
2.640,0.023,-0.378,0.903,6.275,-3.176,195.282
2.640,0.042,-0.365,0.905,6.092,0.351,195.771
2.650,0.062,-0.365,0.906,6.336,2.901,196.046
2.650,0.066,-0.368,0.889,5.374,3.985,196.061
2.650,0.093,-0.358,0.878,4.580,4.305,194.962
2.660,0.112,-0.351,0.876,3.893,4.397,193.176
2.660,0.113,-0.345,0.870,2.718,2.931,191.145
2.670,0.111,-0.343,0.848,1.130,0.473,188.779
2.670,0.103,-0.333,0.838,-0.015,-2.137,185.969
2.670,0.094,-0.328,0.830,-1.328,-5.969,183.023
2.680,0.087,-0.327,0.821,-2.427,-10.198,179.985
2.680,0.071,-0.326,0.817,-3.649,-14.626,176.489
2.690,0.057,-0.330,0.813,-4.748,-19.252,173.649
2.690,0.041,-0.334,0.827,-4.840,-23.359,172.107
2.690,0.027,-0.340,0.849,-4.779,-25.542,171.130
2.700,0.027,-0.351,0.853,-4.504,-25.878,171.786
2.700,0.031,-0.356,0.861,-3.878,-24.458,173.252
2.710,0.056,-0.358,0.855,-3.725,-21.817,175.847
2.710,0.095,-0.364,0.867,-4.290,-16.916,178.550
2.720,0.145,-0.369,0.869,-5.038,-10.351,181.084
2.720,0.215,-0.371,0.884,-5.557,-3.145,182.626
2.720,0.242,-0.372,0.888,-6.397,3.176,183.023
2.730,0.277,-0.363,0.876,-8.107,8.565,182.641
2.730,0.299,-0.353,0.876,-9.557,12.779,181.252
2.740,0.306,-0.345,0.888,-10.427,16.244,179.527
2.740,0.304,-0.327,0.885,-11.084,18.290,176.977
2.750,0.301,-0.321,0.879,-11.679,18.489,174.061
2.750,0.287,-0.316,0.875,-12.718,16.809,170.763
2.750,0.286,-0.313,0.873,-13.099,13.435,165.740
2.760,0.278,-0.309,0.877,-12.229,7.817,159.344
2.760,0.245,-0.308,0.875,-11.863,0.031,153.359
2.770,0.227,-0.292,0.854,-11.664,-8.489,146.962
2.770,0.206,-0.294,0.855,-11.374,-16.962,140.748
2.780,0.175,-0.300,0.850,-10.122,-25.389,135.359
2.780,0.134,-0.313,0.852,-8.580,-33.450,131.206
2.780,0.107,-0.311,0.844,-7.313,-40.076,129.344
2.790,0.108,-0.314,0.836,-6.473,-45.282,128.656
2.790,0.117,-0.324,0.831,-6.473,-47.954,129.359
2.800,0.150,-0.334,0.839,-6.336,-46.687,131.496
2.800,0.185,-0.344,0.839,-6.504,-41.298,134.794
2.800,0.233,-0.342,0.853,-7.328,-34.366,138.000
2.810,0.286,-0.347,0.844,-8.321,-26.153,140.427
2.810,0.329,-0.339,0.845,-9.985,-16.931,141.817
2.820,0.378,-0.335,0.854,-12.137,-6.412,142.321
2.820,0.395,-0.328,0.861,-13.847,3.359,141.832
2.830,0.397,-0.318,0.882,-15.191,10.687,140.687
2.830,0.392,-0.301,0.890,-15.939,16.305,138.870
2.830,0.386,-0.289,0.890,-16.901,19.664,135.924
2.840,0.367,-0.277,0.889,-17.145,21.557,132.840
2.840,0.349,-0.276,0.904,-16.855,21.008,128.901
2.850,0.304,-0.268,0.915,-15.206,17.634,124.183
2.850,0.278,-0.262,0.897,-13.206,11.160,119.282
2.860,0.261,-0.260,0.886,-11.786,3.008,113.481
2.860,0.219,-0.256,0.871,-10.092,-4.885,107.740
2.860,0.192,-0.259,0.856,-8.534,-11.985,103.160
2.870,0.160,-0.251,0.841,-6.840,-17.603,99.588
2.870,0.119,-0.248,0.807,-5.542,-22.626,95.634
2.880,0.087,-0.247,0.775,-5.405,-26.855,94.397
2.880,0.079,-0.246,0.763,-6.076,-28.565,92.458
2.890,0.065,-0.249,0.754,-5.634,-27.328,92.534
2.890,0.027,-0.262,0.756,-4.305,-25.725,93.664
2.890,-0.026,-0.264,0.718,-5.542,-24.901,99.313
2.900,0.036,-0.296,0.686,-10.855,-7.985,105.053
2.900,0.189,-0.253,0.740,-13.115,23.069,112.229
2.910,0.000,-0.325,0.802,-7.038,4.427,109.328
2.910,-0.074,-0.286,0.766,-11.160,-24.977,109.695
2.910,0.080,-0.255,0.694,-21.099,-18.061,116.000
2.920,0.269,-0.281,0.679,-23.756,6.351,119.664
2.920,0.281,-0.309,0.804,-22.595,9.405,117.496
2.930,0.292,-0.321,0.884,-21.634,4.046,114.076
2.930,0.349,-0.318,0.853,-21.191,8.244,110.718
2.940,0.380,-0.294,0.829,-22.031,14.840,108.260
2.940,0.355,-0.288,0.843,-22.962,18.214,105.420
2.940,0.320,-0.286,0.871,-22.046,19.420,102.977
2.950,0.289,-0.280,0.870,-20.824,17.924,99.008
2.950,0.277,-0.268,0.872,-19.573,13.191,95.237
2.960,0.269,-0.256,0.881,-18.977,6.550,89.985
2.960,0.258,-0.252,0.872,-18.916,1.130,85.557
2.970,0.246,-0.252,0.859,-18.687,-1.298,82.824
2.970,0.220,-0.258,0.846,-18.015,-2.931,81.252
2.970,0.207,-0.271,0.850,-17.847,-5.817,80.031
2.980,0.224,-0.274,0.845,-18.092,-8.168,79.069
2.980,0.243,-0.274,0.857,-18.687,-8.031,78.641
2.990,0.278,-0.283,0.853,-19.298,-6.076,78.107
2.990,0.300,-0.286,0.878,-20.382,-4.046,77.359
2.990,0.322,-0.290,0.896,-21.313,-1.618,76.656
3.000,0.341,-0.284,0.924,-21.359,1.374,75.115
3.000,0.359,-0.277,0.939,-21.237,4.550,73.267
3.010,0.366,-0.267,0.945,-21.588,7.679,70.931
3.010,0.366,-0.269,0.958,-21.496,8.687,68.092
3.010,0.381,-0.240,0.967,-21.588,12.779,65.863
3.020,0.364,-0.246,0.987,-19.847,15.557,62.916
3.020,0.350,-0.246,0.992,-17.160,15.420,60.153
3.030,0.320,-0.234,0.994,-14.977,12.977,56.733
3.030,0.315,-0.232,0.976,-13.725,10.779,53.588
3.040,0.299,-0.231,0.986,-12.076,9.115,50.397
3.040,0.287,-0.239,0.983,-9.893,5.969,47.130
3.040,0.271,-0.238,0.981,-7.817,1.756,43.969
3.050,0.272,-0.237,0.968,-6.366,-1.237,40.336
3.050,0.285,-0.235,0.942,-5.374,-3.618,36.931
3.060,0.286,-0.227,0.932,-5.267,-6.382,33.466
3.060,0.272,-0.236,0.937,-4.870,-8.977,30.656
3.060,0.271,-0.229,0.935,-4.748,-8.275,29.252
3.070,0.264,-0.236,0.922,-4.107,-6.290,28.397
3.070,0.247,-0.240,0.916,-3.481,-5.832,27.695
3.080,0.244,-0.240,0.911,-4.321,-5.115,27.832
3.080,0.252,-0.230,0.901,-5.038,-3.664,28.321
3.080,0.263,-0.225,0.903,-6.198,-0.824,28.809
3.090,0.274,-0.217,0.913,-7.298,1.176,28.718
3.090,0.292,-0.211,0.924,-7.832,2.748,27.939
3.100,0.301,-0.202,0.927,-8.626,3.954,26.855
3.100,0.305,-0.198,0.923,-8.901,4.260,25.298
3.100,0.306,-0.196,0.936,-9.069,4.366,23.420
3.110,0.315,-0.194,0.930,-9.511,4.504,21.466
3.110,0.316,-0.193,0.939,-9.282,5.389,19.450
3.120,0.305,-0.198,0.939,-8.641,6.183,17.725
3.120,0.290,-0.195,0.948,-7.893,7.313,15.924
3.120,0.265,-0.202,0.935,-6.901,7.954,14.198
3.130,0.245,-0.199,0.979,-5.847,1.634,11.954
3.130,0.203,-0.195,0.927,-6.122,-7.405,8.794
3.140,0.229,-0.195,0.950,-8.305,-6.580,7.466
3.140,0.234,-0.204,0.919,-6.122,-2.672,6.641
3.140,0.182,-0.196,0.962,-5.237,-5.405,5.130
3.150,0.180,-0.209,0.934,-3.145,-6.718,3.588
3.150,0.160,-0.199,0.919,-3.710,-8.458,2.137
3.160,0.163,-0.200,0.911,-4.198,-7.344,1.298
3.160,0.155,-0.210,0.914,-4.534,-6.916,0.366
3.160,0.148,-0.211,0.903,-3.588,-5.603,0.153
3.170,0.134,-0.206,0.898,-4.550,-4.794,0.168
3.170,0.126,-0.208,0.891,-3.557,-2.931,0.214
3.180,0.108,-0.205,0.901,-4.031,-2.992,0.473
3.180,0.091,-0.194,0.901,-4.000,-3.847,0.702
3.180,0.099,-0.200,0.886,-4.229,-2.733,1.221
3.190,0.079,-0.203,0.898,-4.092,-3.115,1.725
3.190,0.071,-0.202,0.902,-3.817,-2.534,3.023
3.200,0.065,-0.197,0.872,-4.229,-1.802,4.748
3.200,0.076,-0.199,0.880,-5.328,-1.099,6.244
3.200,0.090,-0.193,0.890,-6.015,0.061,7.267
3.210,0.110,-0.194,0.886,-5.908,0.962,7.756
3.210,0.110,-0.186,0.900,-7.206,0.733,8.214
3.220,0.133,-0.190,0.882,-6.809,1.099,7.710
3.220,0.147,-0.180,0.884,-7.832,1.893,7.405
3.220,0.146,-0.174,0.894,-8.351,1.863,6.107
3.230,0.157,-0.169,0.884,-8.748,2.580,5.160
3.230,0.158,-0.162,0.907,-8.443,3.634,4.046
3.240,0.163,-0.166,0.913,-7.450,5.191,2.824
3.240,0.176,-0.167,0.907,-6.092,5.802,1.069
3.240,0.181,-0.168,0.916,-6.275,7.939,-0.962
3.250,0.157,-0.161,0.899,-5.786,6.580,-2.947
3.250,0.156,-0.157,0.870,-5.969,7.893,-4.489
3.260,0.125,-0.156,0.889,-5.969,5.695,-6.214
3.260,0.101,-0.166,0.915,-5.298,3.237,-7.237
3.260,0.118,-0.170,0.902,-4.855,5.160,-7.573
3.270,0.094,-0.168,0.906,-4.840,5.374,-7.664
3.270,0.070,-0.174,0.908,-3.649,4.321,-8.015
3.280,0.069,-0.173,0.903,-3.939,4.198,-7.954
3.280,0.081,-0.174,0.904,-3.298,4.840,-7.924
3.280,0.079,-0.174,0.916,-3.450,5.985,-8.183
3.290,0.073,-0.175,0.922,-3.344,6.779,-8.458
3.290,0.077,-0.170,0.907,-2.656,8.550,-8.580
3.300,0.062,-0.178,0.933,-1.252,9.527,-8.702
3.300,0.059,-0.171,0.930,-0.794,10.565,-8.672
3.300,0.059,-0.176,0.919,-0.824,11.725,-8.672
3.310,0.042,-0.173,0.905,-0.244,11.756,-8.840
3.310,0.027,-0.172,0.908,0.275,10.382,-9.359
3.320,0.030,-0.174,0.906,0.641,10.244,-9.496
3.320,0.019,-0.162,0.893,-0.504,9.298,-9.740
3.320,0.021,-0.175,0.891,1.313,8.718,-10.351
3.330,0.032,-0.159,0.891,0.580,9.542,-10.305
3.330,0.015,-0.164,0.880,1.573,10.260,-10.443
3.340,-0.005,-0.163,0.887,1.374,8.870,-10.748
3.340,-0.020,-0.164,0.878,1.817,6.641,-10.824
3.340,-0.015,-0.149,0.876,2.366,4.260,-10.779
3.350,-0.021,-0.149,0.885,1.817,4.397,-10.656
3.350,-0.033,-0.159,0.867,1.145,4.809,-10.458
3.360,-0.049,-0.158,0.875,0.916,3.405,-10.275
3.360,-0.047,-0.150,0.867,0.412,1.634,-10.076
3.360,-0.060,-0.154,0.875,-0.412,-0.504,-10.244
3.370,-0.073,-0.163,0.877,0.076,-2.260,-9.756
3.370,-0.070,-0.158,0.887,0.183,-2.382,-8.733
3.380,-0.077,-0.155,0.886,-0.351,-1.908,-7.328
3.380,-0.077,-0.156,0.875,-0.947,-2.183,-6.366
3.380,-0.081,-0.154,0.877,-2.061,-2.687,-5.237
3.390,-0.072,-0.157,0.895,-2.885,-2.473,-4.015
3.390,-0.062,-0.166,0.896,-2.733,-1.756,-3.038
3.400,-0.059,-0.162,0.891,-2.260,-0.397,-1.847
3.400,-0.063,-0.158,0.891,-1.939,0.458,-0.641
3.410,-0.060,-0.161,0.901,-1.847,0.962,0.427
3.410,-0.055,-0.154,0.891,-1.420,1.496,1.176
3.410,-0.049,-0.162,0.895,-0.855,1.908,1.985
3.420,-0.053,-0.145,0.893,-0.611,1.450,2.702
3.420,-0.045,-0.150,0.894,-1.023,0.855,3.328
3.430,-0.039,-0.145,0.891,-0.840,0.656,3.939
3.430,-0.020,-0.139,0.888,-0.260,0.626,4.000
3.430,-0.024,-0.141,0.889,-0.076,0.137,4.168
3.440,-0.024,-0.137,0.877,0.168,-0.550,4.092
3.440,-0.011,-0.132,0.871,-0.061,-1.221,3.802
3.450,-0.008,-0.137,0.866,-0.198,-2.382,3.725
3.450,-0.006,-0.141,0.868,-0.168,-3.069,3.313
3.450,-0.001,-0.135,0.878,-0.137,-2.824,3.267
3.460,0.000,-0.139,0.877,0.290,-1.725,3.573
3.460,-0.004,-0.138,0.869,0.153,-1.649,4.015
3.470,-0.007,-0.134,0.872,-0.534,-1.802,4.443
3.470,0.007,-0.138,0.879,-0.870,-1.481,4.748
3.470,0.012,-0.144,0.882,-0.931,-0.748,5.191
3.480,0.012,-0.142,0.882,-0.947,0.275,5.878
3.480,0.021,-0.146,0.885,-1.130,1.389,6.626
3.490,0.019,-0.142,0.871,-0.763,2.382,7.008
3.490,0.036,-0.145,0.875,-0.580,2.962,7.237
3.490,0.041,-0.145,0.878,-0.718,2.565,6.794
3.500,0.057,-0.140,0.867,-1.023,2.290,6.153
3.500,0.049,-0.150,0.857,-1.237,2.000,5.160
3.510,0.049,-0.147,0.862,-1.267,1.649,4.458
3.510,0.053,-0.155,0.873,-1.557,0.656,3.405
3.510,0.052,-0.154,0.863,-1.435,-0.519,2.198
3.520,0.059,-0.152,0.885,-1.450,-1.313,1.053
3.520,0.062,-0.163,0.896,-1.420,-1.588,0.061
3.520,0.041,-0.170,0.885,-1.221,-1.969,-0.519
3.530,0.039,-0.165,0.887,-0.947,-2.504,-0.794
3.530,0.040,-0.174,0.880,-1.389,-3.786,-1.282
3.540,0.045,-0.177,0.896,-1.069,-3.664,-1.496
3.540,0.044,-0.177,0.904,-0.702,-3.023,-1.557
3.550,0.039,-0.175,0.889,-0.351,-2.443,-1.420
3.550,0.040,-0.181,0.892,-0.336,-1.832,-1.145
3.550,0.042,-0.180,0.893,-0.565,-1.023,-1.130
3.560,0.044,-0.176,0.900,-0.885,-0.489,-1.221
3.560,0.042,-0.183,0.903,-0.687,0.076,-1.115
3.570,0.034,-0.187,0.890,-0.809,0.947,-0.916
3.570,0.023,-0.189,0.896,-0.534,1.527,-0.656
3.570,0.025,-0.185,0.890,-0.168,1.802,-0.611
3.580,0.017,-0.181,0.891,-0.229,1.573,-0.580
3.580,0.018,-0.185,0.889,-0.427,0.702,-0.611
3.590,0.021,-0.177,0.888,-0.687,0.107,-0.870
3.590,0.023,-0.179,0.893,-0.382,0.122,-1.115
3.590,0.013,-0.183,0.889,0.153,0.076,-1.145
3.600,0.007,-0.186,0.893,0.534,-0.107,-1.405
3.600,0.012,-0.178,0.882,0.840,-0.656,-1.557
3.610,0.014,-0.175,0.875,0.336,-1.267,-1.786
3.610,0.011,-0.173,0.875,0.305,-1.481,-1.756
3.610,0.010,-0.175,0.880,0.473,-1.725,-1.740
3.620,0.000,-0.178,0.876,0.794,-1.817,-1.634
3.620,0.001,-0.177,0.861,0.718,-2.061,-1.115
3.630,0.007,-0.177,0.860,-0.092,-2.183,-0.840
3.630,0.010,-0.175,0.860,-0.382,-1.924,-0.031
3.630,0.006,-0.179,0.866,-0.473,-1.008,0.550
3.640,0.012,-0.182,0.868,-0.565,-0.153,1.405
3.640,0.014,-0.172,0.868,-0.931,0.779,1.817
3.650,0.020,-0.163,0.850,-1.420,1.450,2.229
3.650,0.026,-0.166,0.855,-2.168,1.099,2.397
3.650,0.034,-0.159,0.864,-2.885,0.809,2.107
3.660,0.038,-0.161,0.874,-3.237,1.557,2.076
3.660,0.042,-0.157,0.877,-3.237,2.504,1.740
3.660,0.039,-0.156,0.887,-3.298,2.702,1.420
3.670,0.044,-0.156,0.882,-3.405,2.290,1.267
3.670,0.046,-0.156,0.886,-3.145,1.954,0.656
3.680,0.052,-0.161,0.885,-2.885,2.137,-0.061
3.680,0.048,-0.161,0.898,-2.321,2.626,-0.550
3.680,0.039,-0.162,0.895,-1.710,2.763,-0.824
3.690,0.027,-0.158,0.888,-1.389,2.244,-1.084
3.690,0.020,-0.160,0.888,-0.947,1.344,-1.466
3.700,0.010,-0.164,0.887,-0.626,0.824,-1.618
3.700,0.005,-0.160,0.888,-0.901,0.076,-1.481
3.700,0.008,-0.158,0.890,-0.809,-0.336,-1.695
3.710,0.004,-0.157,0.899,-0.168,-0.214,-1.603
3.710,-0.005,-0.157,0.882,0.015,0.397,-1.160
3.720,-0.011,-0.159,0.886,0.137,0.977,-0.687
3.720,-0.022,-0.153,0.876,0.076,1.099,0.076
3.720,-0.025,-0.158,0.873,-0.260,1.450,0.748
3.730,-0.024,-0.153,0.869,-0.366,1.496,1.252
3.730,-0.023,-0.167,0.864,-0.992,1.588,1.832
3.740,-0.024,-0.161,0.868,-1.634,1.573,2.366
3.740,-0.015,-0.157,0.879,-1.832,1.069,2.305
3.740,-0.007,-0.162,0.863,-1.954,0.626,2.092
3.750,-0.028,-0.159,0.873,-2.443,-0.137,2.015
3.750,-0.025,-0.160,0.875,-2.748,-1.420,2.107
3.760,-0.017,-0.166,0.892,-2.702,-2.656,1.878
3.760,-0.015,-0.168,0.898,-2.015,-2.840,1.786
3.760,-0.010,-0.173,0.899,-1.374,-2.916,1.924
3.770,-0.026,-0.168,0.900,-1.420,-3.221,2.122
3.770,-0.026,-0.169,0.884,-1.344,-3.359,2.656
3.780,-0.026,-0.167,0.897,-0.931,-4.183,2.916
3.780,-0.020,-0.166,0.896,-0.992,-4.763,2.916
3.790,-0.017,-0.168,0.889,-0.885,-4.092,3.511
3.790,-0.022,-0.173,0.885,-0.824,-3.435,4.198
3.790,-0.030,-0.163,0.888,-0.550,-2.611,4.916
3.800,-0.036,-0.161,0.884,-0.397,-2.748,5.618
3.800,-0.033,-0.161,0.877,-0.672,-2.779,6.489
3.810,-0.028,-0.160,0.881,-1.099,-2.122,7.511
3.810,-0.021,-0.157,0.872,-0.870,-1.420,8.336
3.810,-0.013,-0.162,0.874,-0.824,-0.824,9.160
3.820,-0.000,-0.166,0.866,-0.885,-0.916,9.832
3.820,0.012,-0.154,0.858,-1.695,-1.466,9.908
3.830,0.021,-0.153,0.871,-2.397,-1.511,9.634
3.830,0.029,-0.149,0.866,-3.344,-1.740,9.420
3.830,0.043,-0.151,0.872,-3.985,-0.397,9.405
3.840,0.033,-0.160,0.897,-2.947,0.870,9.435
3.840,0.034,-0.141,0.880,-3.908,1.557,9.435
3.850,0.035,-0.141,0.897,-3.679,-1.099,8.809
3.850,0.063,-0.137,0.899,-2.840,-0.351,8.687
3.850,0.059,-0.147,0.907,-1.191,-0.427,8.260
3.860,0.064,-0.140,0.908,-0.992,1.435,8.336
3.860,0.045,-0.139,0.904,-0.565,2.595,8.397
3.870,0.043,-0.137,0.898,-0.962,1.710,8.031
3.870,0.035,-0.130,0.881,-1.099,-1.008,7.252
3.870,0.054,-0.135,0.861,-2.244,-2.763,6.366
3.880,0.057,-0.141,0.870,-2.565,-3.786,5.527
3.880,0.067,-0.146,0.876,-2.275,-3.634,4.656
3.890,0.068,-0.155,0.890,-1.252,-2.885,3.756
3.890,0.069,-0.160,0.903,-1.756,-2.489,3.008
3.890,0.066,-0.159,0.906,-1.008,-2.015,2.458
3.900,0.048,-0.150,0.872,-1.954,-3.115,1.771
3.900,0.030,-0.154,0.879,-2.901,-4.702,1.282
3.910,0.042,-0.161,0.880,-2.626,-4.931,1.405
3.910,0.033,-0.161,0.887,-3.221,-5.023,1.603
3.910,0.038,-0.168,0.904,-2.076,-4.687,1.847
3.920,0.047,-0.157,0.893,-2.107,-3.908,1.756
3.920,0.052,-0.162,0.888,-2.565,-3.496,1.695
3.930,0.058,-0.169,0.885,-3.252,-3.954,1.344
3.930,0.059,-0.161,0.900,-3.099,-3.695,1.145
3.930,0.059,-0.167,0.906,-3.313,-2.901,0.962
3.940,0.056,-0.168,0.907,-2.550,-1.954,0.870
3.940,0.049,-0.162,0.894,-2.748,-1.053,0.840
3.950,0.052,-0.164,0.896,-2.336,-0.092,0.840
3.950,0.054,-0.168,0.896,-1.527,0.351,0.794
3.950,0.056,-0.162,0.895,-1.695,0.412,0.015
3.960,0.053,-0.167,0.884,-1.298,0.550,-0.290
3.960,0.048,-0.173,0.884,-1.634,0.748,-0.718
3.970,0.043,-0.164,0.890,-1.588,0.855,-0.977
3.970,0.036,-0.171,0.879,-1.740,0.672,-1.237
3.970,0.026,-0.164,0.876,-1.145,0.809,-0.947
3.980,0.017,-0.161,0.877,-1.130,1.282,-0.656
3.980,0.016,-0.163,0.881,-0.763,1.924,-0.290
3.990,0.018,-0.159,0.878,-0.412,2.382,0.061
3.990,0.012,-0.165,0.878,-0.504,2.153,0.244
3.990,0.013,-0.157,0.862,-0.916,1.756,0.015
4.000,0.009,-0.154,0.868,-1.038,0.473,0.000
4.000,0.012,-0.157,0.864,-2.137,-0.305,-0.015
4.000,0.018,-0.152,0.864,-2.565,1.008,0.366
4.010,0.013,-0.159,0.875,-2.626,0.718,0.473
4.010,0.011,-0.165,0.865,-2.641,0.046,0.656
4.020,0.014,-0.157,0.877,-3.099,-0.260,0.595
4.020,0.014,-0.161,0.880,-3.298,0.015,1.053
4.020,0.017,-0.167,0.883,-3.252,0.305,1.160
4.030,0.018,-0.165,0.883,-3.160,0.611,1.420
4.030,0.016,-0.152,0.898,-3.634,0.321,1.527
4.040,0.028,-0.165,0.884,-3.145,-0.092,1.573
4.040,0.029,-0.162,0.896,-3.038,-0.916,1.405
4.040,0.028,-0.170,0.888,-3.176,-1.969,1.221
4.050,0.034,-0.173,0.905,-3.420,-1.481,1.389
4.050,0.038,-0.163,0.891,-3.267,-0.137,1.588
4.060,0.037,-0.170,0.896,-2.702,0.351,1.634
4.060,0.048,-0.171,0.902,-1.069,0.061,1.069
4.060,0.047,-0.165,0.903,-1.542,0.092,0.748
4.070,0.050,-0.165,0.893,-1.679,0.794,0.107
4.070,0.052,-0.158,0.877,-1.954,0.763,-0.046
4.080,0.049,-0.161,0.887,-3.206,0.198,-0.397
4.080,0.042,-0.165,0.889,-2.122,-0.076,-0.840
