Time,acce_x,acce_y,acce_z,gyro_x,gyro_y,gyro_z
0.000,0.042,-0.157,0.885,-0.473,-3.038,0.305
0.000,0.047,-0.149,0.884,-1.160,-3.420,0.168
0.010,0.051,-0.153,0.892,-0.870,-3.099,0.214
0.010,0.054,-0.156,0.897,-0.748,-3.298,0.351
0.010,0.055,-0.152,0.884,-1.084,-3.359,0.168
0.020,0.052,-0.151,0.887,-1.282,-3.756,0.458
0.020,0.045,-0.157,0.890,-1.450,-4.244,0.687
0.020,0.050,-0.155,0.891,-1.649,-4.244,0.855
0.030,0.052,-0.161,0.894,-1.511,-3.649,1.237
0.030,0.065,-0.152,0.886,-1.679,-3.130,1.206
0.030,0.065,-0.152,0.891,-1.496,-2.611,1.405
0.040,0.067,-0.155,0.887,-1.740,-1.924,1.466
0.040,0.065,-0.148,0.874,-1.817,-1.802,1.664
0.040,0.060,-0.146,0.889,-2.412,-1.053,1.969
0.050,0.076,-0.152,0.891,-2.336,0.931,2.458
0.050,0.086,-0.153,0.895,-2.305,3.939,2.901
0.060,0.075,-0.149,0.897,-1.847,6.672,3.435
0.060,0.072,-0.151,0.887,-1.588,8.000,3.878
0.060,0.047,-0.148,0.891,-1.496,6.779,4.122
0.070,0.041,-0.148,0.881,-2.168,4.397,4.427
0.070,0.046,-0.148,0.876,-2.611,1.756,4.168
0.070,0.052,-0.144,0.875,-3.069,-0.107,4.366
0.080,0.071,-0.147,0.887,-3.237,-1.221,4.076
0.080,0.079,-0.145,0.888,-3.145,-1.725,3.771
0.090,0.085,-0.147,0.900,-2.977,-1.344,3.695
0.090,0.085,-0.151,0.892,-2.290,-1.374,3.466
0.090,0.090,-0.150,0.893,-2.000,-2.351,2.824
0.100,0.094,-0.148,0.889,-2.214,-2.718,2.275
0.100,0.091,-0.146,0.883,-2.137,-2.565,2.305
0.110,0.102,-0.152,0.900,-1.496,-2.321,1.588
0.110,0.096,-0.151,0.903,-1.038,-2.550,1.115
0.110,0.094,-0.150,0.904,-0.611,-2.122,0.947
0.120,0.094,-0.150,0.896,-0.260,-1.710,0.305
0.120,0.102,-0.148,0.878,-0.824,-1.557,0.214
0.130,0.093,-0.139,0.878,-1.359,-1.221,-0.137
0.130,0.089,-0.140,0.885,-1.771,-0.260,-0.351
0.130,0.094,-0.142,0.879,-1.588,0.153,-0.748
0.140,0.080,-0.148,0.878,-1.588,0.214,-1.221
0.140,0.082,-0.144,0.877,-1.740,0.214,-1.313
0.150,0.066,-0.150,0.874,-1.878,0.214,-1.496
0.150,0.064,-0.147,0.875,-2.382,-0.611,-1.618
0.150,0.067,-0.148,0.888,-3.130,-2.031,-1.985
0.160,0.065,-0.154,0.900,-2.809,-2.595,-1.908
0.160,0.059,-0.158,0.900,-2.595,-2.656,-2.061
0.170,0.063,-0.154,0.905,-2.260,-2.443,-1.939
0.170,0.062,-0.154,0.900,-2.046,-2.046,-1.634
0.180,0.058,-0.150,0.895,-1.389,-1.649,-1.557
0.180,0.050,-0.156,0.906,-1.053,-0.687,-1.115
0.180,0.051,-0.152,0.896,-0.504,0.382,-0.534
0.190,0.043,-0.147,0.881,-0.137,0.748,0.122
0.190,0.040,-0.140,0.889,-0.595,0.031,0.519
0.200,0.047,-0.138,0.879,-0.733,-0.473,0.794
0.200,0.049,-0.144,0.867,-0.733,-0.260,0.855
0.200,0.052,-0.142,0.869,-1.115,-0.336,0.977
0.210,0.047,-0.140,0.865,-1.634,-0.901,0.962
0.210,0.052,-0.138,0.858,-2.397,-1.634,0.748
0.220,0.051,-0.142,0.865,-2.702,-2.244,0.412
0.220,0.055,-0.147,0.865,-2.275,-2.275,0.443
0.220,0.045,-0.140,0.881,-2.229,-2.137,0.397
0.230,0.043,-0.144,0.875,-2.137,-2.046,0.809
0.230,0.038,-0.151,0.877,-2.046,-1.847,1.237
0.240,0.042,-0.155,0.881,-2.076,-1.878,1.710
0.240,0.044,-0.151,0.887,-2.046,-1.740,2.153
0.240,0.050,-0.156,0.880,-2.260,-1.206,2.244
0.250,0.055,-0.157,0.881,-2.305,-0.595,2.473
0.250,0.060,-0.157,0.879,-2.275,0.641,2.702
0.250,0.058,-0.153,0.890,-2.260,0.962,3.099
0.260,0.055,-0.153,0.892,-2.290,1.298,3.359
0.260,0.057,-0.152,0.892,-2.229,1.573,3.252
0.270,0.057,-0.147,0.894,-2.565,0.840,3.206
0.270,0.054,-0.146,0.892,-2.412,0.458,3.237
0.270,0.064,-0.159,0.910,-2.336,0.290,3.115
0.280,0.061,-0.160,0.893,-1.847,0.412,2.748
0.280,0.068,-0.156,0.911,-1.496,0.214,2.779
0.290,0.073,-0.162,0.908,-1.344,0.198,2.519
0.290,0.073,-0.162,0.911,-0.672,-0.061,2.092
0.290,0.071,-0.162,0.906,-0.168,0.061,1.863
0.300,0.071,-0.163,0.907,0.504,-0.458,1.802
0.300,0.072,-0.170,0.902,0.641,-0.458,1.695
0.310,0.074,-0.165,0.903,0.718,-0.458,1.588
0.310,0.075,-0.162,0.893,0.870,-0.489,1.221
0.310,0.069,-0.163,0.903,0.947,-0.885,1.267
0.320,0.068,-0.167,0.899,0.550,-1.832,1.221
0.320,0.065,-0.162,0.898,0.626,-2.290,0.992
0.330,0.085,-0.160,0.887,0.260,-2.183,0.763
0.330,0.089,-0.165,0.889,0.214,-2.244,0.305
0.330,0.096,-0.162,0.893,0.565,-1.786,-0.473
0.340,0.094,-0.160,0.891,0.656,-1.099,-0.702
0.340,0.086,-0.153,0.878,0.427,-0.626,-0.534
0.350,0.082,-0.153,0.892,0.687,0.214,-0.626
0.350,0.086,-0.149,0.885,0.748,0.931,-0.092
0.350,0.085,-0.151,0.897,0.672,3.191,0.092
0.360,0.089,-0.154,0.882,1.176,5.878,0.641
0.360,0.078,-0.152,0.878,1.328,7.313,1.206
0.360,0.080,-0.147,0.881,0.901,7.924,1.603
0.370,0.072,-0.147,0.873,0.595,8.427,1.939
0.370,0.074,-0.144,0.879,0.718,9.313,2.076
0.380,0.064,-0.138,0.869,0.275,7.924,2.076
0.380,0.062,-0.137,0.855,-0.534,4.718,1.649
0.380,0.063,-0.136,0.854,-0.824,1.603,0.931
0.390,0.068,-0.136,0.855,-1.573,-0.733,0.290
0.390,0.091,-0.133,0.871,-1.710,-0.489,-0.229
0.400,0.089,-0.137,0.867,-1.634,-0.382,-0.519
0.400,0.090,-0.140,0.870,-1.038,-0.473,-1.084
0.400,0.080,-0.138,0.857,-1.252,-0.504,-1.221
0.410,0.072,-0.136,0.852,-1.802,-0.626,-1.344
0.410,0.066,-0.137,0.857,-2.351,-0.718,-0.763
0.420,0.068,-0.137,0.871,-2.382,-0.656,-0.672
0.420,0.071,-0.137,0.877,-2.336,0.137,-0.137
0.420,0.069,-0.135,0.870,-2.641,0.840,0.107
0.430,0.072,-0.137,0.871,-3.282,1.130,0.504
0.430,0.075,-0.139,0.877,-4.107,0.962,0.366
0.440,0.090,-0.140,0.890,-4.580,1.466,0.107
0.440,0.095,-0.141,0.897,-4.626,2.076,-0.137
0.440,0.087,-0.146,0.902,-4.244,2.290,-0.458
0.450,0.078,-0.148,0.909,-3.954,1.969,-0.595
0.450,0.077,-0.148,0.919,-3.328,0.855,-0.550
0.460,0.078,-0.150,0.930,-2.519,0.351,-0.901
0.460,0.086,-0.151,0.916,-1.878,-0.580,-1.679
0.460,0.082,-0.152,0.917,-1.481,-1.557,-2.046
0.470,0.074,-0.157,0.915,-0.626,-2.366,-2.473
0.470,0.072,-0.160,0.913,-0.031,-3.008,-2.962
0.480,0.061,-0.160,0.910,0.366,-3.664,-3.115
0.480,0.063,-0.161,0.915,0.000,-3.878,-3.359
0.480,0.065,-0.164,0.912,0.122,-3.878,-3.145
0.490,0.058,-0.163,0.914,0.290,-3.313,-3.206
0.490,0.053,-0.160,0.902,0.244,-2.702,-2.931
0.500,0.050,-0.157,0.901,0.183,-2.397,-2.473
0.500,0.048,-0.159,0.906,0.198,-1.863,-1.985
0.500,0.057,-0.161,0.912,0.443,-0.672,-1.588
0.510,0.054,-0.161,0.905,0.809,0.214,-1.160
0.510,0.045,-0.155,0.909,1.344,0.962,-0.824
0.520,0.041,-0.151,0.915,1.634,1.374,-0.351
0.520,0.044,-0.154,0.900,2.000,1.679,-0.061
0.520,0.042,-0.150,0.896,2.290,2.122,0.366
0.530,0.045,-0.144,0.894,2.458,1.542,0.412
0.530,0.058,-0.144,0.895,2.672,1.389,0.229
0.530,0.054,-0.149,0.888,2.794,1.420,0.565
0.540,0.055,-0.141,0.878,2.947,1.496,0.626
0.540,0.049,-0.136,0.875,2.809,1.527,0.962
0.550,0.050,-0.140,0.868,2.427,1.603,0.901
0.550,0.056,-0.143,0.863,2.031,1.328,0.840
0.550,0.057,-0.140,0.858,1.328,0.656,0.458
0.560,0.062,-0.135,0.856,0.656,-0.122,0.153
0.560,0.058,-0.143,0.865,-0.031,-0.641,0.061
0.570,0.048,-0.141,0.859,-0.229,-1.328,-0.107
0.570,0.056,-0.144,0.868,-1.038,-2.092,0.015
0.570,0.058,-0.144,0.866,-1.420,-2.611,-0.137
0.580,0.066,-0.142,0.871,-1.420,-2.458,-0.229
0.580,0.066,-0.136,0.872,-1.435,-2.244,-0.107
0.590,0.056,-0.135,0.889,-1.267,-2.718,-0.198
0.590,0.072,-0.133,0.874,-1.298,-2.550,-0.366
0.590,0.070,-0.135,0.873,-1.176,-2.229,-0.397
0.600,0.071,-0.139,0.883,-1.176,-2.122,-0.733
0.600,0.083,-0.139,0.877,-0.992,-1.740,-0.702
0.610,0.075,-0.142,0.886,-0.809,-0.901,-0.672
0.610,0.067,-0.138,0.881,-0.763,-0.092,-0.412
0.610,0.070,-0.135,0.872,-0.962,0.687,-0.061
0.620,0.065,-0.134,0.869,-0.855,1.023,0.336
0.620,0.069,-0.130,0.866,-1.359,1.603,0.473
0.630,0.071,-0.135,0.862,-1.511,2.031,0.275
0.630,0.073,-0.135,0.874,-1.618,2.443,0.489
0.630,0.078,-0.129,0.885,-1.863,2.412,0.366
0.640,0.085,-0.129,0.880,-1.374,2.992,0.275
0.640,0.076,-0.143,0.872,-1.557,3.435,0.290
0.650,0.078,-0.140,0.885,-1.817,3.450,0.122
0.650,0.076,-0.134,0.873,-1.756,3.206,-0.321
0.650,0.078,-0.138,0.887,-2.092,2.672,-0.855
0.660,0.067,-0.138,0.868,-2.656,2.198,-0.977
0.660,0.066,-0.134,0.870,-2.870,2.000,-0.901
0.670,0.064,-0.134,0.871,-2.992,1.588,-0.870
0.670,0.050,-0.132,0.886,-2.885,1.527,-0.733
0.670,0.057,-0.132,0.877,-2.947,1.191,-0.611
0.680,0.051,-0.135,0.879,-3.038,0.977,-0.321
0.680,0.058,-0.135,0.873,-3.115,1.069,-0.229
0.690,0.051,-0.132,0.893,-2.977,1.603,0.076
0.690,0.049,-0.138,0.886,-2.870,1.771,0.412
0.690,0.050,-0.134,0.876,-2.916,1.740,0.702
0.700,0.048,-0.136,0.884,-2.901,1.908,0.840
0.700,0.049,-0.131,0.875,-3.359,1.802,1.053
0.710,0.054,-0.135,0.875,-3.542,1.450,1.130
0.710,0.060,-0.140,0.874,-3.863,0.916,1.053
0.710,0.067,-0.139,0.888,-4.031,1.099,1.237
0.720,0.069,-0.144,0.888,-3.985,1.588,0.763
0.720,0.072,-0.143,0.881,-4.107,1.359,0.794
0.720,0.071,-0.140,0.888,-4.611,0.962,0.290
0.730,0.079,-0.149,0.899,-4.305,1.099,-0.076
0.730,0.078,-0.156,0.903,-4.015,1.053,-0.076
0.740,0.073,-0.164,0.910,-3.847,1.145,-0.366
0.740,0.071,-0.157,0.906,-3.557,1.359,-0.382
0.740,0.071,-0.156,0.906,-2.931,1.573,-0.366
0.750,0.065,-0.168,0.899,-2.656,1.466,-0.443
0.750,0.051,-0.162,0.905,-2.351,1.298,-0.153
0.760,0.058,-0.163,0.903,-2.397,1.099,0.000
0.760,0.053,-0.161,0.911,-2.382,1.115,0.092
0.760,0.056,-0.164,0.906,-1.725,1.389,0.137
0.770,0.052,-0.158,0.908,-1.450,1.313,0.611
0.770,0.043,-0.160,0.912,-1.313,1.084,1.053
0.780,0.048,-0.154,0.908,-1.374,1.038,1.466
0.780,0.054,-0.149,0.885,-1.038,0.947,1.710
0.780,0.060,-0.149,0.896,-0.931,1.221,1.954
0.790,0.061,-0.154,0.886,-1.160,0.947,2.183
0.790,0.073,-0.153,0.895,-1.069,0.885,2.076
0.800,0.074,-0.144,0.889,-1.130,1.405,1.847
0.800,0.080,-0.147,0.882,-1.282,1.176,1.664
0.800,0.082,-0.143,0.867,-1.542,0.840,1.221
0.810,0.088,-0.138,0.882,-1.985,0.244,0.916
0.810,0.089,-0.147,0.891,-1.954,-0.275,0.473
0.820,0.095,-0.145,0.888,-1.939,-0.595,0.198
0.820,0.092,-0.132,0.888,-2.183,-0.382,-0.092
0.820,0.094,-0.137,0.875,-1.786,0.336,-0.305
0.830,0.094,-0.136,0.880,-1.969,0.595,-0.244
0.830,0.089,-0.135,0.866,-2.244,1.756,0.198
0.840,0.095,-0.143,0.878,-2.458,3.359,0.672
0.840,0.107,-0.142,0.892,-2.015,4.626,0.748
0.840,0.105,-0.138,0.890,-1.679,5.405,0.382
0.850,0.109,-0.148,0.869,-1.542,6.168,0.229
0.850,0.115,-0.145,0.869,-1.771,6.260,-0.275
0.850,0.118,-0.147,0.882,-2.840,6.092,-0.519
0.860,0.136,-0.148,0.888,-2.672,6.443,-1.649
0.860,0.139,-0.153,0.898,-2.137,7.328,-2.336
0.870,0.133,-0.154,0.908,-1.786,7.313,-2.718
0.870,0.130,-0.157,0.910,-1.603,7.802,-3.191
0.870,0.135,-0.160,0.902,-1.344,8.183,-3.466
0.880,0.145,-0.172,0.907,-0.809,8.611,-4.015
0.880,0.141,-0.166,0.916,-0.382,8.198,-4.382
0.890,0.145,-0.172,0.904,-0.153,8.321,-4.733
0.890,0.154,-0.173,0.903,-0.397,8.504,-5.008
0.890,0.166,-0.177,0.917,-0.290,9.237,-5.557
0.900,0.171,-0.180,0.907,0.046,9.786,-6.458
0.900,0.175,-0.190,0.918,0.397,10.107,-7.710
0.910,0.171,-0.185,0.898,0.779,9.802,-8.870
0.910,0.170,-0.189,0.899,0.122,8.565,-9.863
0.910,0.176,-0.194,0.908,-0.321,7.756,-11.145
0.920,0.193,-0.200,0.925,0.015,7.878,-12.443
0.920,0.203,-0.209,0.938,0.656,8.244,-13.374
0.930,0.197,-0.211,0.936,1.160,8.061,-14.260
0.930,0.188,-0.214,0.930,1.496,7.924,-14.916
0.930,0.191,-0.216,0.930,2.183,7.206,-15.679
0.940,0.195,-0.218,0.935,2.779,7.008,-16.443
0.940,0.206,-0.215,0.934,3.267,6.718,-16.855
0.950,0.206,-0.219,0.935,3.603,6.779,-17.511
0.950,0.222,-0.226,0.940,4.565,7.695,-18.168
0.950,0.224,-0.222,0.934,5.145,8.275,-18.916
0.960,0.238,-0.226,0.927,5.893,8.779,-20.046
0.960,0.253,-0.229,0.930,6.015,9.710,-21.679
0.970,0.263,-0.221,0.906,6.260,10.260,-23.328
0.970,0.269,-0.230,0.905,6.244,10.885,-25.252
0.970,0.261,-0.224,0.911,6.244,10.687,-27.176
0.980,0.266,-0.227,0.901,6.321,10.672,-29.115
0.980,0.269,-0.219,0.905,6.656,10.382,-31.130
0.990,0.269,-0.222,0.883,6.702,9.405,-33.511
0.990,0.269,-0.217,0.874,6.382,7.863,-36.183
0.990,0.266,-0.218,0.874,6.168,6.611,-38.718
1.000,0.257,-0.221,0.871,6.351,4.534,-41.221
1.000,0.253,-0.218,0.870,6.244,2.046,-43.496
1.010,0.243,-0.217,0.881,6.214,-0.809,-45.618
1.010,0.254,-0.218,0.855,5.939,-3.038,-48.015
1.020,0.261,-0.221,0.852,4.718,-4.962,-50.076
1.020,0.266,-0.224,0.869,4.244,-6.397,-52.748
1.020,0.277,-0.227,0.872,4.168,-7.160,-55.099
1.030,0.283,-0.235,0.875,4.198,-6.611,-57.466
1.030,0.277,-0.244,0.880,4.122,-6.687,-59.603
1.040,0.277,-0.241,0.890,3.450,-7.221,-61.511
1.040,0.293,-0.242,0.904,3.588,-6.275,-63.771
1.040,0.298,-0.244,0.914,4.290,-5.099,-66.031
1.050,0.282,-0.246,0.918,5.267,-5.313,-68.244
1.050,0.287,-0.241,0.919,6.122,-5.527,-70.290
1.060,0.299,-0.252,0.920,7.130,-5.130,-72.794
1.060,0.295,-0.241,0.914,8.412,-4.779,-75.282
1.060,0.308,-0.238,0.914,9.069,-3.985,-77.130
1.070,0.296,-0.238,0.904,10.061,-4.153,-79.588
1.070,0.294,-0.235,0.889,10.962,-3.344,-81.221
1.080,0.283,-0.230,0.909,12.214,-4.000,-82.565
1.080,0.323,-0.220,0.884,11.084,-1.435,-83.527
1.080,0.330,-0.210,0.871,11.038,1.252,-84.977
1.090,0.343,-0.215,0.863,10.748,2.351,-86.855
1.090,0.332,-0.205,0.890,10.672,3.786,-88.489
1.100,0.315,-0.202,0.896,11.618,4.794,-89.481
1.100,0.335,-0.185,0.881,11.618,8.275,-90.168
1.110,0.344,-0.183,0.854,10.840,12.092,-91.237
1.110,0.339,-0.185,0.829,10.046,15.374,-92.321
1.110,0.333,-0.180,0.829,8.733,16.397,-94.061
1.120,0.325,-0.181,0.837,8.137,16.840,-96.031
1.120,0.322,-0.188,0.844,7.832,17.115,-98.153
1.130,0.307,-0.180,0.841,7.130,17.435,-99.985
1.130,0.297,-0.181,0.836,6.473,16.733,-102.168
1.130,0.281,-0.185,0.829,5.435,14.687,-104.046
1.140,0.261,-0.190,0.835,4.504,11.893,-106.321
1.140,0.245,-0.199,0.849,4.046,9.267,-108.183
1.150,0.224,-0.199,0.852,4.107,6.962,-109.817
1.150,0.211,-0.208,0.843,3.588,4.412,-111.099
1.150,0.200,-0.211,0.851,3.160,2.565,-112.183
1.160,0.196,-0.210,0.868,2.412,1.969,-113.084
1.160,0.196,-0.226,0.864,2.458,1.710,-113.664
1.170,0.182,-0.225,0.872,2.351,1.817,-114.153
1.170,0.172,-0.234,0.882,2.305,2.427,-113.985
1.170,0.154,-0.242,0.900,2.275,4.305,-113.160
1.180,0.153,-0.249,0.888,2.397,7.206,-111.649
1.180,0.142,-0.249,0.896,2.824,10.015,-110.656
1.190,0.140,-0.244,0.887,2.641,12.458,-109.176
1.190,0.152,-0.245,0.899,1.985,14.412,-108.168
1.200,0.156,-0.251,0.902,1.832,16.687,-107.618
1.200,0.166,-0.253,0.928,2.260,19.573,-106.931
1.200,0.171,-0.259,0.922,2.641,21.969,-106.687
1.210,0.186,-0.251,0.912,3.115,23.908,-107.221
1.210,0.188,-0.250,0.902,3.252,24.992,-108.382
1.220,0.182,-0.250,0.905,3.542,25.008,-110.122
1.220,0.175,-0.260,0.913,3.893,23.496,-112.305
1.220,0.168,-0.259,0.909,4.626,21.023,-114.611
1.230,0.141,-0.257,0.912,4.962,18.244,-116.763
1.230,0.131,-0.259,0.898,4.809,15.176,-118.458
1.240,0.111,-0.262,0.900,4.931,12.168,-120.473
1.240,0.096,-0.266,0.901,5.267,9.542,-122.061
1.250,0.069,-0.257,0.880,5.359,6.840,-123.084
1.250,0.038,-0.260,0.883,4.565,3.527,-123.771
1.250,0.035,-0.271,0.886,4.229,1.481,-124.031
1.260,0.019,-0.270,0.893,4.702,0.779,-124.015
1.260,0.007,-0.270,0.889,5.053,1.344,-123.130
1.270,-0.005,-0.262,0.879,4.672,2.550,-121.878
1.270,-0.018,-0.264,0.875,4.260,3.710,-120.382
1.270,-0.040,-0.270,0.877,3.985,4.687,-118.748
1.280,-0.039,-0.270,0.876,3.374,5.802,-116.595
1.280,-0.038,-0.262,0.873,2.534,8.321,-114.290
1.290,-0.028,-0.263,0.874,2.015,10.748,-112.382
1.290,-0.018,-0.261,0.872,1.511,12.519,-110.779
1.300,-0.013,-0.255,0.884,0.473,13.344,-109.740
1.300,0.002,-0.257,0.885,0.519,15.466,-108.916
1.300,0.007,-0.255,0.875,0.962,17.725,-108.351
1.310,-0.000,-0.257,0.879,1.237,19.756,-107.802
1.310,0.000,-0.252,0.871,0.931,20.794,-106.748
1.320,0.011,-0.249,0.862,-0.260,22.168,-106.748
1.320,0.041,-0.239,0.859,-1.908,24.473,-106.473
1.320,0.020,-0.247,0.897,0.641,21.160,-106.656
1.330,0.001,-0.249,0.940,2.977,14.870,-106.794
1.330,0.023,-0.245,0.919,4.351,12.336,-106.626
1.340,0.076,-0.236,0.889,4.687,14.366,-106.290
1.340,0.097,-0.223,0.893,4.519,16.031,-106.244
1.350,0.111,-0.224,0.897,4.015,16.031,-106.901
1.350,0.139,-0.225,0.904,4.397,16.473,-107.511
1.350,0.181,-0.226,0.921,4.351,18.519,-108.229
1.360,0.211,-0.225,0.935,4.626,21.649,-109.527
1.360,0.218,-0.237,0.944,5.618,25.298,-110.931
1.370,0.238,-0.242,0.933,6.397,27.832,-113.053
1.370,0.239,-0.249,0.933,6.824,29.435,-115.450
1.370,0.239,-0.255,0.937,7.481,30.137,-118.443
1.380,0.229,-0.259,0.931,7.802,29.511,-122.015
1.380,0.206,-0.263,0.931,8.672,27.420,-125.206
1.390,0.189,-0.268,0.944,9.557,25.099,-127.954
1.390,0.153,-0.272,0.949,10.916,22.305,-130.611
1.400,0.145,-0.279,0.921,10.992,18.305,-133.191
1.400,0.150,-0.279,0.929,10.595,13.420,-136.275
1.400,0.148,-0.290,0.954,11.573,9.924,-139.282
1.410,0.140,-0.299,0.962,13.328,8.412,-141.435
1.410,0.120,-0.298,0.955,14.305,7.588,-142.809
1.420,0.104,-0.298,0.937,15.023,6.870,-143.817
1.420,0.088,-0.301,0.929,15.847,6.122,-144.672
1.430,0.071,-0.298,0.909,17.008,6.321,-145.282
1.430,0.061,-0.295,0.913,17.313,6.626,-144.962
1.430,0.060,-0.288,0.904,16.809,8.580,-144.214
1.440,0.057,-0.282,0.897,16.824,11.542,-143.359
1.440,0.049,-0.274,0.890,16.427,14.885,-142.687
1.450,0.044,-0.275,0.888,16.275,16.992,-141.756
1.450,0.037,-0.263,0.880,15.710,19.099,-140.458
1.450,0.035,-0.260,0.867,15.298,22.107,-139.115
1.460,0.044,-0.260,0.881,15.191,24.977,-137.924
1.460,0.034,-0.254,0.863,15.176,26.885,-136.809
1.470,0.028,-0.259,0.870,15.069,27.466,-136.229
1.470,0.032,-0.254,0.858,14.260,27.954,-135.878
1.480,0.035,-0.254,0.854,13.695,28.061,-136.122
1.480,0.024,-0.251,0.866,13.618,26.840,-136.733
1.480,0.009,-0.248,0.860,13.450,23.985,-137.710
1.490,0.005,-0.252,0.859,12.947,20.244,-139.099
1.490,0.005,-0.254,0.865,12.473,16.779,-140.382
1.500,-0.006,-0.256,0.860,11.863,13.191,-141.634
1.500,-0.016,-0.252,0.874,11.527,9.817,-142.580
1.510,-0.024,-0.251,0.879,11.710,7.115,-142.901
1.510,-0.035,-0.253,0.884,11.802,4.733,-143.099
1.510,-0.041,-0.254,0.863,12.168,2.962,-143.298
1.520,-0.027,-0.240,0.857,11.191,0.427,-143.542
1.520,-0.014,-0.243,0.864,10.290,-0.977,-144.153
1.530,-0.008,-0.246,0.878,10.214,0.244,-144.076
1.530,-0.013,-0.233,0.872,10.092,2.092,-143.863
1.540,-0.013,-0.240,0.867,9.496,4.489,-143.298
1.540,-0.035,-0.240,0.865,9.099,6.153,-142.504
1.540,-0.045,-0.232,0.866,8.977,7.557,-141.527
1.550,-0.060,-0.224,0.868,8.824,9.573,-139.863
1.550,-0.067,-0.223,0.875,9.160,11.863,-137.435
1.560,-0.078,-0.224,0.867,8.870,14.412,-134.489
1.560,-0.074,-0.219,0.870,8.687,17.466,-131.847
1.560,-0.070,-0.208,0.855,8.977,20.031,-129.298
1.570,-0.059,-0.205,0.851,8.458,22.031,-127.511
1.570,-0.031,-0.198,0.840,8.061,24.794,-126.198
1.580,-0.028,-0.208,0.831,7.939,28.534,-125.282
1.580,-0.039,-0.208,0.844,8.122,31.099,-124.504
1.590,-0.056,-0.206,0.825,8.260,32.305,-123.298
1.590,-0.054,-0.211,0.825,7.786,32.656,-122.779
1.590,-0.056,-0.214,0.807,7.145,32.427,-122.870
1.600,-0.072,-0.222,0.815,6.183,32.504,-122.565
1.600,-0.076,-0.221,0.756,1.893,37.725,-122.198
1.610,-0.048,-0.224,0.707,-5.969,47.740,-119.908
1.610,-0.109,-0.258,0.803,-5.298,46.366,-120.580
1.620,-0.172,-0.285,0.922,-2.321,32.290,-121.954
1.620,-0.182,-0.282,0.920,-1.191,21.863,-122.061
1.620,-0.178,-0.290,0.896,-0.687,18.977,-121.282
1.630,-0.180,-0.283,0.857,-1.954,17.298,-119.969
1.630,-0.245,-0.291,0.805,-9.832,0.656,-121.832
1.640,-0.237,-0.230,0.807,-21.084,-11.710,-120.229
1.640,-0.160,-0.265,0.815,-22.473,-6.916,-119.450
1.650,-0.149,-0.290,0.912,-18.901,2.489,-118.214
1.650,-0.178,-0.287,0.976,-16.534,3.710,-117.267
1.660,-0.188,-0.285,0.964,-12.977,6.153,-116.107
1.660,-0.185,-0.274,0.927,-9.496,8.366,-114.779
1.660,-0.183,-0.264,0.910,-7.053,9.695,-114.779
1.670,-0.194,-0.257,0.897,-4.198,12.489,-114.260
1.670,-0.214,-0.242,0.876,-2.107,15.863,-113.206
1.680,-0.249,-0.236,0.875,-0.748,18.504,-111.817
1.680,-0.255,-0.227,0.852,0.031,20.321,-110.489
1.690,-0.269,-0.215,0.830,0.260,20.321,-109.847
1.690,-0.279,-0.213,0.812,0.336,18.962,-110.229
1.690,-0.281,-0.189,0.795,-0.534,15.344,-110.687
1.700,-0.291,-0.185,0.804,-1.817,11.802,-111.008
1.700,-0.312,-0.185,0.802,-3.115,9.634,-111.145
1.710,-0.298,-0.179,0.782,-3.542,11.252,-111.435
1.710,-0.302,-0.161,0.783,-6.244,11.008,-110.992
1.720,-0.316,-0.151,0.770,-8.580,11.252,-110.351
1.720,-0.345,-0.146,0.757,-9.969,9.634,-109.405
1.720,-0.350,-0.142,0.763,-12.076,6.580,-107.908
1.730,-0.363,-0.127,0.776,-13.832,4.794,-105.359
1.730,-0.368,-0.130,0.783,-14.198,5.389,-101.939
1.740,-0.366,-0.123,0.784,-14.076,7.435,-97.740
1.740,-0.362,-0.113,0.799,-13.466,8.015,-93.863
1.750,-0.360,-0.122,0.808,-11.573,6.916,-90.824
1.750,-0.335,-0.115,0.813,-8.504,7.695,-88.580
1.750,-0.309,-0.131,0.819,-3.588,9.832,-86.427
1.760,-0.336,-0.090,0.871,-3.695,6.870,-82.641
1.760,-0.298,-0.111,0.835,-2.855,10.122,-79.298
1.770,-0.288,-0.112,0.826,-1.664,10.489,-76.702
1.770,-0.278,-0.115,0.839,-0.870,8.305,-75.053
1.780,-0.266,-0.117,0.856,-0.702,6.153,-73.664
1.780,-0.254,-0.138,0.882,0.992,5.252,-72.687
1.780,-0.260,-0.133,0.889,3.023,3.221,-71.618
1.790,-0.265,-0.146,0.905,3.939,-0.504,-70.504
1.790,-0.248,-0.145,0.910,4.366,-2.901,-69.496
1.800,-0.219,-0.144,0.913,4.656,-2.855,-68.656
1.800,-0.225,-0.143,0.896,5.527,-4.290,-67.847
1.800,-0.221,-0.149,0.913,5.893,-6.840,-66.779
1.810,-0.211,-0.145,0.930,6.153,-7.893,-65.939
1.810,-0.193,-0.151,0.943,7.450,-5.954,-64.122
1.820,-0.187,-0.144,0.939,9.313,-2.656,-62.198
1.820,-0.177,-0.153,0.940,9.924,0.305,-60.595
1.820,-0.183,-0.147,0.921,11.023,2.916,-59.466
1.830,-0.178,-0.141,0.902,11.298,5.115,-57.908
1.830,-0.187,-0.146,0.905,11.649,6.076,-56.763
1.840,-0.185,-0.143,0.908,11.664,7.130,-56.061
1.840,-0.176,-0.142,0.914,11.145,8.214,-55.618
1.850,-0.167,-0.131,0.904,10.687,9.527,-55.359
1.850,-0.179,-0.142,0.892,10.733,9.466,-56.000
1.850,-0.192,-0.137,0.900,10.183,7.344,-56.611
1.860,-0.199,-0.131,0.889,9.527,5.099,-57.389
1.860,-0.202,-0.134,0.888,9.298,3.344,-57.634
1.870,-0.214,-0.123,0.887,9.252,2.336,-57.695
1.870,-0.230,-0.127,0.887,9.527,1.481,-57.695
1.870,-0.249,-0.112,0.880,9.786,-0.458,-57.237
1.880,-0.269,-0.113,0.874,9.863,-2.290,-56.565
1.880,-0.278,-0.107,0.855,9.649,-4.351,-55.252
1.890,-0.292,-0.099,0.846,9.176,-5.878,-53.618
1.890,-0.295,-0.096,0.839,8.260,-6.947,-51.756
1.900,-0.301,-0.102,0.835,7.679,-7.008,-49.511
1.900,-0.301,-0.105,0.829,7.298,-6.031,-46.412
1.900,-0.292,-0.106,0.831,6.992,-4.351,-43.206
1.910,-0.284,-0.106,0.813,6.260,-1.634,-39.893
1.910,-0.279,-0.113,0.809,5.695,1.496,-36.534
1.920,-0.279,-0.118,0.803,4.611,4.153,-32.977
1.920,-0.279,-0.119,0.798,2.779,6.534,-30.031
1.920,-0.265,-0.129,0.796,1.740,8.992,-27.053
1.930,-0.256,-0.138,0.806,0.366,10.855,-24.595
1.930,-0.257,-0.139,0.807,-0.733,12.076,-22.229
1.940,-0.245,-0.131,0.824,-1.893,12.275,-20.305
1.940,-0.246,-0.137,0.827,-2.595,11.847,-18.443
1.950,-0.236,-0.138,0.838,-2.962,11.023,-16.687
1.950,-0.220,-0.140,0.857,-3.115,10.321,-15.817
1.950,-0.206,-0.141,0.857,-3.053,9.053,-15.282
1.960,-0.190,-0.145,0.887,-2.824,7.527,-15.252
1.960,-0.177,-0.136,0.903,-2.168,5.740,-14.885
1.970,-0.161,-0.137,0.922,-0.885,4.992,-14.641
1.970,-0.157,-0.135,0.919,0.565,4.412,-14.290
1.970,-0.153,-0.118,0.912,2.000,2.916,-14.534
1.980,-0.135,-0.112,0.903,3.221,1.511,-15.130
1.980,-0.129,-0.110,0.887,4.397,0.366,-15.710
1.990,-0.127,-0.102,0.880,5.130,0.656,-15.466
1.990,-0.140,-0.087,0.881,6.260,1.237,-15.221
1.990,-0.152,-0.083,0.851,6.626,0.305,-14.382
2.000,-0.153,-0.062,0.820,4.779,-1.374,-14.122
2.000,-0.139,-0.053,0.803,2.763,-1.298,-13.527
2.010,-0.130,-0.049,0.818,1.908,-0.489,-12.718
2.010,-0.132,-0.050,0.821,0.916,0.947,-12.061
2.020,-0.127,-0.043,0.828,0.183,1.740,-11.298
2.020,-0.129,-0.044,0.814,-0.244,2.046,-10.718
2.020,-0.126,-0.038,0.813,-0.962,2.611,-10.137
2.030,-0.129,-0.031,0.813,-1.252,2.824,-9.511
2.030,-0.135,-0.035,0.829,-2.290,2.000,-8.763
2.040,-0.133,-0.029,0.819,-2.931,1.527,-7.969
2.040,-0.122,-0.036,0.823,-3.847,1.115,-7.206
2.040,-0.113,-0.033,0.826,-5.099,0.046,-7.145
2.050,-0.109,-0.036,0.832,-5.618,-0.611,-7.206
2.050,-0.101,-0.036,0.844,-6.351,-1.053,-7.084
2.060,-0.099,-0.039,0.854,-6.565,-1.588,-7.008
2.060,-0.095,-0.044,0.871,-6.580,-1.298,-6.580
2.070,-0.097,-0.042,0.867,-6.244,-1.542,-6.198
2.070,-0.091,-0.045,0.876,-5.969,-1.481,-5.786
2.070,-0.092,-0.041,0.878,-5.237,-1.405,-6.061
2.080,-0.083,-0.060,0.876,-5.008,-2.168,-6.336
2.080,-0.085,-0.057,0.894,-4.855,-2.977,-6.611
2.090,-0.091,-0.061,0.897,-4.412,-4.290,-6.947
2.090,-0.088,-0.065,0.904,-4.733,-5.786,-7.191
2.090,-0.078,-0.066,0.897,-5.282,-6.534,-7.099
2.100,-0.069,-0.076,0.905,-5.298,-6.580,-7.328
2.100,-0.065,-0.079,0.920,-5.130,-6.794,-7.282
2.110,-0.069,-0.088,0.928,-4.489,-6.504,-7.252
2.110,-0.069,-0.085,0.934,-3.679,-5.725,-6.916
2.120,-0.074,-0.087,0.925,-3.527,-5.466,-6.748
2.120,-0.064,-0.087,0.929,-3.649,-4.947,-6.840
2.120,-0.065,-0.084,0.930,-3.634,-3.664,-6.992
2.130,-0.078,-0.082,0.928,-3.145,-2.931,-7.282
2.130,-0.094,-0.091,0.944,-2.763,-2.748,-7.527
2.140,-0.103,-0.085,0.943,-2.229,-3.160,-7.908
2.140,-0.114,-0.088,0.932,-1.634,-3.985,-7.969
2.140,-0.133,-0.089,0.929,-1.863,-5.145,-8.550
2.150,-0.130,-0.090,0.926,-1.298,-6.840,-8.916
2.150,-0.146,-0.091,0.929,-0.458,-7.634,-9.053
2.160,-0.164,-0.100,0.929,0.107,-7.374,-8.763
2.160,-0.188,-0.096,0.921,1.130,-7.634,-7.924
2.160,-0.204,-0.099,0.917,2.000,-8.794,-7.160
2.170,-0.222,-0.098,0.920,2.473,-10.244,-6.122
2.170,-0.239,-0.082,0.898,2.702,-11.420,-4.244
2.180,-0.242,-0.082,0.885,2.504,-11.878,-2.611
2.180,-0.245,-0.081,0.890,2.183,-12.015,-0.855
2.190,-0.251,-0.083,0.892,2.550,-12.336,1.145
2.190,-0.256,-0.087,0.889,2.366,-12.611,3.191
2.190,-0.250,-0.085,0.897,2.626,-11.618,5.435
2.200,-0.252,-0.084,0.868,2.443,-10.168,7.740
2.200,-0.253,-0.080,0.872,1.466,-9.145,10.351
2.210,-0.254,-0.075,0.882,0.427,-7.603,13.145
2.210,-0.237,-0.082,0.882,0.595,-4.992,15.542
2.210,-0.238,-0.081,0.893,0.718,-1.863,18.107
2.220,-0.248,-0.083,0.885,1.206,0.092,20.260
2.220,-0.254,-0.083,0.876,1.206,0.107,22.244
2.230,-0.249,-0.074,0.874,0.885,-0.672,23.969
2.230,-0.243,-0.077,0.877,0.611,-1.359,25.344
2.230,-0.243,-0.082,0.875,0.962,-1.588,26.626
2.240,-0.247,-0.084,0.893,1.695,-1.771,27.573
2.240,-0.247,-0.091,0.896,2.672,-1.802,28.504
2.250,-0.257,-0.089,0.894,3.710,-2.519,29.405
2.250,-0.277,-0.096,0.889,4.565,-3.939,30.336
2.250,-0.298,-0.100,0.890,5.908,-5.817,31.237
2.260,-0.312,-0.094,0.874,6.779,-8.168,32.534
2.260,-0.318,-0.088,0.870,7.008,-11.145,33.710
2.270,-0.321,-0.085,0.853,6.763,-13.557,35.038
2.270,-0.323,-0.087,0.834,7.298,-15.603,36.595
2.280,-0.320,-0.087,0.836,7.038,-17.298,38.382
2.280,-0.312,-0.085,0.818,6.473,-18.382,40.229
2.280,-0.304,-0.078,0.796,5.573,-18.092,42.672
2.290,-0.296,-0.077,0.794,4.336,-16.641,45.374
2.290,-0.286,-0.074,0.802,2.382,-15.206,48.183
2.300,-0.275,-0.068,0.792,0.931,-14.015,50.656
2.300,-0.262,-0.073,0.801,-1.359,-13.252,53.115
2.300,-0.240,-0.077,0.814,-3.573,-11.863,54.824
2.310,-0.238,-0.074,0.839,-4.626,-9.191,57.145
2.310,-0.229,-0.091,0.844,-5.328,-6.412,59.191
2.320,-0.239,-0.091,0.850,-5.756,-4.076,61.282
2.320,-0.236,-0.097,0.860,-6.031,-2.153,63.267
2.330,-0.243,-0.097,0.862,-5.603,-0.458,65.221
2.330,-0.258,-0.102,0.865,-4.794,0.534,67.328
2.330,-0.252,-0.112,0.865,-4.550,-0.489,68.458
2.340,-0.249,-0.108,0.862,-4.763,-1.649,68.977
2.340,-0.251,-0.120,0.853,-4.427,-1.817,69.634
2.350,-0.257,-0.120,0.868,-4.107,-2.198,70.595
2.350,-0.262,-0.128,0.878,-3.435,-2.687,71.450
2.350,-0.272,-0.125,0.886,-2.870,-3.679,72.321
2.360,-0.284,-0.125,0.882,-2.260,-5.328,73.237
2.360,-0.287,-0.128,0.862,-1.832,-6.794,74.397
2.370,-0.287,-0.136,0.866,-1.420,-7.786,75.649
2.370,-0.297,-0.129,0.850,-0.824,-8.321,76.870
2.380,-0.299,-0.128,0.855,-0.840,-8.947,78.443
2.380,-0.309,-0.139,0.816,-1.374,-10.290,79.893
2.380,-0.305,-0.137,0.800,-3.069,-11.191,81.863
2.390,-0.298,-0.143,0.797,-5.191,-11.160,83.832
2.390,-0.285,-0.161,0.803,-7.298,-10.870,85.679
2.400,-0.281,-0.165,0.802,-9.206,-10.153,87.389
2.400,-0.281,-0.175,0.812,-11.252,-9.802,89.069
2.410,-0.282,-0.191,0.805,-13.557,-9.618,90.534
2.410,-0.295,-0.192,0.821,-15.267,-9.908,92.534
2.410,-0.297,-0.207,0.829,-16.443,-10.458,95.084
2.420,-0.293,-0.208,0.847,-17.649,-11.084,95.786
2.420,-0.286,-0.207,0.851,-18.458,-11.069,98.473
2.430,-0.275,-0.209,0.868,-18.763,-11.496,101.160
2.430,-0.262,-0.219,0.882,-18.885,-12.092,103.420
2.440,-0.242,-0.213,0.907,-18.366,-11.389,106.244
2.440,-0.221,-0.219,0.920,-17.893,-9.344,109.130
2.440,-0.207,-0.218,0.925,-16.824,-5.832,112.214
2.450,-0.191,-0.226,0.940,-15.634,-2.794,115.176
2.450,-0.174,-0.218,0.923,-14.748,-0.656,117.328
2.460,-0.147,-0.209,0.937,-14.214,1.389,119.282
2.460,-0.130,-0.205,0.929,-13.466,3.206,120.672
2.470,-0.117,-0.200,0.940,-12.244,5.160,121.786
2.470,-0.100,-0.196,0.958,-10.443,6.168,122.718
2.470,-0.084,-0.200,0.957,-8.427,6.962,123.069
2.480,-0.064,-0.192,0.940,-6.779,8.076,123.008
2.480,-0.059,-0.185,0.914,-5.206,8.366,122.382
2.490,-0.062,-0.179,0.917,-3.664,7.008,121.191
2.490,-0.063,-0.178,0.908,-2.733,4.427,119.771
2.500,-0.065,-0.174,0.890,-1.603,1.924,118.122
2.500,-0.065,-0.166,0.876,-0.473,-0.321,116.901
2.500,-0.069,-0.162,0.870,-0.137,-3.160,115.435
2.510,-0.079,-0.162,0.839,-0.489,-6.260,113.802
2.510,-0.088,-0.153,0.831,-1.130,-9.328,112.382
2.520,-0.098,-0.158,0.834,-1.435,-9.725,111.634
2.520,-0.095,-0.150,0.847,1.038,-7.069,111.817
2.520,-0.108,-0.159,0.835,-0.336,-10.824,110.733
2.530,-0.148,-0.152,0.818,-3.191,-19.847,109.527
2.530,-0.143,-0.153,0.798,-4.947,-23.160,108.962
2.540,-0.141,-0.163,0.803,-6.565,-22.641,109.466
2.540,-0.157,-0.171,0.828,-7.160,-22.214,110.840
2.550,-0.175,-0.169,0.832,-7.145,-21.878,112.626
2.550,-0.197,-0.184,0.831,-6.641,-21.115,114.992
2.560,-0.198,-0.187,0.819,-7.542,-21.237,117.588
2.560,-0.200,-0.188,0.807,-8.672,-21.573,120.382
2.560,-0.191,-0.201,0.817,-9.786,-20.718,123.771
2.570,-0.184,-0.208,0.834,-9.817,-19.084,127.115
2.570,-0.166,-0.210,0.839,-10.260,-16.916,130.244
2.580,-0.151,-0.213,0.852,-10.595,-14.687,133.252
2.580,-0.121,-0.219,0.859,-10.855,-11.481,135.664
2.590,-0.100,-0.223,0.868,-10.061,-8.244,137.450
2.590,-0.102,-0.227,0.880,-8.656,-6.504,138.489
2.590,-0.110,-0.225,0.878,-6.794,-5.771,139.359
2.600,-0.118,-0.227,0.888,-4.183,-6.656,139.771
2.600,-0.129,-0.234,0.928,-0.321,-9.878,140.122
2.610,-0.147,-0.243,0.977,5.496,-15.344,140.092
2.610,-0.164,-0.256,0.979,13.176,-20.595,139.527
2.620,-0.179,-0.251,0.962,17.313,-23.267,140.214
2.620,-0.170,-0.244,0.903,20.947,-22.397,141.115
2.620,-0.148,-0.244,0.878,24.794,-17.817,141.893
2.630,-0.149,-0.261,0.871,32.244,-13.008,141.084
2.630,-0.205,-0.274,0.875,36.443,-19.206,140.000
2.640,-0.275,-0.248,0.821,35.557,-30.672,139.496
2.640,-0.266,-0.225,0.748,33.969,-32.458,140.992
2.650,-0.265,-0.225,0.687,30.702,-31.634,144.061
2.650,-0.300,-0.220,0.669,25.328,-32.733,148.015
2.650,-0.335,-0.221,0.662,19.282,-35.344,152.901
2.660,-0.333,-0.223,0.656,12.763,-37.115,158.473
2.660,-0.310,-0.234,0.635,6.015,-39.206,163.863
2.670,-0.274,-0.241,0.655,-0.763,-39.832,169.130
2.670,-0.223,-0.245,0.686,-7.053,-36.519,174.519
2.680,-0.166,-0.259,0.723,-11.176,-31.053,179.237
2.680,-0.123,-0.272,0.749,-13.481,-24.916,183.344
2.690,-0.094,-0.274,0.778,-15.527,-21.130,187.038
2.690,-0.048,-0.268,0.807,-19.221,-18.473,189.954
2.690,0.022,-0.267,0.821,-21.557,-13.969,191.603
2.700,0.063,-0.273,0.861,-22.611,-10.290,191.084
2.700,0.110,-0.273,0.888,-23.069,-7.939,189.130
2.710,0.147,-0.274,0.922,-22.962,-5.542,186.015
2.710,0.158,-0.276,0.922,-21.221,-3.573,182.840
2.720,0.161,-0.276,0.959,-20.122,-3.802,179.420
2.720,0.161,-0.286,0.963,-17.740,-5.359,175.344
2.720,0.158,-0.291,0.964,-15.466,-7.939,171.084
2.730,0.143,-0.292,0.953,-13.847,-11.939,166.992
2.730,0.128,-0.292,0.935,-13.389,-17.206,162.565
2.740,0.124,-0.294,0.917,-12.992,-21.450,158.733
2.740,0.113,-0.299,0.893,-12.977,-25.130,155.527
2.750,0.085,-0.297,0.879,-13.542,-29.023,153.237
2.750,0.069,-0.302,0.858,-14.748,-32.183,151.802
2.750,0.070,-0.307,0.846,-16.366,-34.275,151.053
2.760,0.072,-0.308,0.844,-18.351,-34.382,150.519
2.760,0.077,-0.311,0.848,-20.336,-32.931,150.595
2.770,0.073,-0.312,0.856,-22.153,-30.336,150.992
2.770,0.066,-0.314,0.866,-23.527,-26.565,151.908
2.780,0.083,-0.320,0.880,-23.969,-22.687,153.053
2.780,0.095,-0.333,0.903,-24.595,-18.748,154.672
2.780,0.112,-0.340,0.915,-24.702,-14.885,156.046
2.790,0.118,-0.345,0.928,-23.802,-10.901,157.679
2.790,0.132,-0.348,0.943,-22.916,-8.366,158.962
2.800,0.154,-0.344,0.964,-22.321,-7.069,159.359
2.800,0.179,-0.345,0.975,-21.481,-5.664,159.237
2.810,0.225,-0.345,0.989,-19.847,-3.863,157.740
2.810,0.258,-0.339,1.006,-18.031,-2.092,154.992
2.810,0.271,-0.340,0.999,-15.435,-1.282,151.206
2.820,0.281,-0.330,0.994,-13.573,-1.267,146.977
2.820,0.263,-0.320,0.987,-11.420,-2.351,142.412
2.830,0.239,-0.319,0.976,-9.267,-4.733,137.985
2.830,0.206,-0.314,0.947,-7.542,-8.092,134.168
2.840,0.168,-0.302,0.916,-7.206,-12.366,131.038
2.840,0.146,-0.302,0.906,-7.603,-16.382,128.641
2.840,0.126,-0.309,0.889,-8.229,-20.076,126.580
2.850,0.124,-0.315,0.884,-8.382,-22.702,124.443
2.850,0.113,-0.325,0.880,-8.260,-24.611,123.847
2.860,0.097,-0.332,0.876,-8.855,-25.878,124.046
2.860,0.099,-0.336,0.874,-9.725,-25.679,125.863
2.870,0.130,-0.342,0.881,-10.885,-23.893,127.206
2.870,0.172,-0.344,0.886,-12.122,-20.443,127.786
2.870,0.207,-0.344,0.897,-13.084,-17.053,128.031
2.880,0.236,-0.347,0.919,-13.786,-13.008,127.924
2.880,0.264,-0.341,0.932,-13.527,-8.565,127.099
2.890,0.281,-0.333,0.941,-13.130,-5.603,125.786
2.890,0.285,-0.331,0.951,-12.931,-2.840,124.290
2.900,0.295,-0.326,0.953,-12.061,-0.534,122.153
2.900,0.282,-0.322,0.962,-10.779,0.794,120.061
2.900,0.272,-0.313,0.955,-9.405,0.244,117.786
2.910,0.259,-0.307,0.938,-8.427,-1.450,115.221
2.910,0.234,-0.301,0.935,-7.802,-3.710,112.427
2.920,0.221,-0.290,0.912,-7.115,-6.519,109.695
2.920,0.202,-0.284,0.887,-6.947,-8.992,107.374
2.920,0.175,-0.285,0.875,-6.351,-12.122,104.580
2.930,0.154,-0.283,0.855,-6.351,-15.573,102.748
2.930,0.122,-0.278,0.844,-6.366,-19.145,100.855
2.940,0.101,-0.291,0.843,-6.916,-22.489,100.275
2.940,0.093,-0.297,0.840,-7.130,-25.069,100.534
2.950,0.092,-0.308,0.844,-7.603,-25.618,101.893
2.950,0.097,-0.318,0.837,-8.092,-24.534,104.122
2.950,0.123,-0.319,0.845,-9.267,-22.198,106.198
2.960,0.159,-0.329,0.844,-10.336,-19.008,108.015
2.960,0.190,-0.331,0.869,-11.023,-15.237,109.771
2.970,0.253,-0.331,0.897,-11.481,-10.641,111.267
2.970,0.292,-0.339,0.913,-12.672,-3.496,112.168
2.980,0.403,-0.309,0.937,-15.435,20.305,114.580
2.980,0.374,-0.347,0.988,-9.191,21.527,111.954
2.980,0.346,-0.328,0.980,-6.977,14.229,108.031
2.990,0.313,-0.300,0.940,-8.641,8.351,105.664
2.990,0.359,-0.284,0.901,-9.099,13.618,105.786
3.000,0.359,-0.289,0.891,-9.023,9.756,102.046
3.000,0.411,-0.285,0.949,-8.809,5.405,97.267
3.010,0.456,-0.284,0.957,-5.771,4.916,90.794
3.010,0.450,-0.281,0.976,-1.725,4.260,84.504
3.010,0.417,-0.257,0.939,-0.718,1.893,79.603
3.020,0.372,-0.249,0.884,-1.588,-0.672,75.267
3.020,0.324,-0.239,0.862,-1.985,-4.733,71.252
3.030,0.283,-0.241,0.874,-1.496,-11.191,67.237
3.030,0.253,-0.236,0.870,-1.344,-17.710,63.511
3.030,0.243,-0.230,0.843,-1.511,-22.718,60.229
3.040,0.237,-0.230,0.833,-2.840,-26.153,57.252
3.040,0.236,-0.226,0.822,-4.748,-27.389,54.824
3.050,0.227,-0.225,0.825,-5.511,-27.450,53.023
3.050,0.219,-0.234,0.821,-6.275,-25.939,51.588
3.050,0.201,-0.234,0.822,-7.115,-24.290,51.206
3.060,0.180,-0.238,0.827,-7.542,-22.947,52.260
3.060,0.168,-0.243,0.842,-8.061,-21.878,54.015
3.070,0.179,-0.245,0.847,-8.931,-19.389,56.183
3.070,0.208,-0.246,0.851,-9.557,-15.802,58.000
3.080,0.232,-0.248,0.877,-9.863,-12.107,59.053
3.080,0.268,-0.252,0.894,-9.542,-8.382,59.160
3.080,0.292,-0.251,0.911,-9.038,-4.641,58.275
3.090,0.299,-0.244,0.910,-7.908,-1.908,56.916
3.090,0.300,-0.243,0.898,-6.580,-1.313,54.870
3.100,0.303,-0.221,0.892,-6.931,-2.550,52.336
3.100,0.319,-0.216,0.884,-6.595,-2.870,49.374
3.100,0.315,-0.219,0.891,-5.557,-3.695,46.015
3.110,0.300,-0.215,0.891,-4.595,-5.466,42.565
3.110,0.289,-0.204,0.885,-4.092,-7.802,39.145
3.120,0.278,-0.204,0.869,-3.939,-9.634,35.496
3.120,0.257,-0.207,0.852,-4.153,-11.038,32.672
3.120,0.237,-0.206,0.865,-3.802,-11.725,30.779
3.130,0.211,-0.210,0.853,-3.511,-12.153,29.802
3.130,0.177,-0.212,0.847,-3.267,-12.718,30.229
3.140,0.166,-0.210,0.858,-3.985,-11.924,32.260
3.140,0.162,-0.212,0.861,-4.504,-11.511,34.794
3.150,0.182,-0.212,0.865,-5.191,-8.290,37.649
3.150,0.226,-0.215,0.857,-6.672,-4.061,39.115
3.150,0.276,-0.211,0.882,-7.985,-0.382,39.115
3.160,0.327,-0.207,0.894,-8.595,3.344,37.939
3.160,0.356,-0.211,0.913,-8.672,7.008,35.786
3.170,0.357,-0.205,0.936,-8.855,11.160,34.061
3.170,0.364,-0.197,0.946,-8.092,13.847,31.924
3.170,0.356,-0.202,0.969,-6.412,15.374,29.374
3.180,0.341,-0.195,0.970,-4.718,15.237,26.305
3.180,0.323,-0.195,0.958,-2.702,13.588,23.649
3.190,0.304,-0.185,0.934,-1.267,10.977,20.733
3.190,0.293,-0.182,0.934,-0.229,8.351,17.939
3.190,0.277,-0.173,0.945,0.687,5.893,15.298
3.200,0.267,-0.173,0.931,1.573,3.527,12.473
3.200,0.252,-0.174,0.925,2.214,1.466,9.954
3.210,0.246,-0.163,0.915,2.092,-0.992,7.405
3.210,0.248,-0.163,0.911,1.985,-3.496,4.534
3.210,0.241,-0.153,0.900,1.695,-4.565,1.771
3.220,0.231,-0.163,0.898,1.481,-5.237,-0.901
3.220,0.213,-0.159,0.897,1.527,-5.740,-2.931
3.230,0.176,-0.155,0.895,1.527,-6.076,-4.443
3.230,0.157,-0.156,0.885,1.069,-6.840,-5.679
3.230,0.135,-0.158,0.870,0.076,-7.435,-6.214
3.240,0.106,-0.161,0.888,-0.382,-8.427,-6.092
3.240,0.088,-0.163,0.894,-0.260,-8.885,-5.573
3.250,0.067,-0.160,0.887,-0.305,-9.588,-4.168
3.250,0.060,-0.157,0.878,-0.427,-10.122,-2.855
3.250,0.069,-0.165,0.879,-0.702,-11.389,-1.237
3.260,0.063,-0.150,0.872,-1.389,-12.122,-0.076
3.260,0.086,-0.160,0.875,-1.710,-12.229,1.405
3.270,0.094,-0.145,0.887,-2.305,-11.191,2.336
3.270,0.116,-0.142,0.893,-2.351,-9.557,3.389
3.270,0.128,-0.145,0.887,-2.275,-7.802,3.863
3.280,0.137,-0.141,0.895,-2.198,-5.511,4.275
3.280,0.146,-0.141,0.893,-2.000,-3.573,4.473
3.290,0.155,-0.144,0.886,-2.107,-1.924,4.137
3.290,0.160,-0.134,0.885,-2.076,0.901,3.359
3.290,0.161,-0.139,0.888,-1.771,3.664,3.145
3.300,0.150,-0.133,0.894,-1.389,6.076,3.008
3.300,0.134,-0.135,0.895,-0.397,7.664,2.763
3.310,0.127,-0.132,0.880,0.198,8.351,2.412
3.310,0.120,-0.132,0.879,-0.382,7.389,2.061
3.310,0.109,-0.133,0.878,-0.733,5.924,1.374
3.320,0.103,-0.134,0.891,-0.244,5.496,0.916
3.320,0.102,-0.137,0.880,-0.153,4.977,0.489
3.330,0.100,-0.135,0.879,-0.321,3.863,-0.107
3.330,0.084,-0.131,0.866,-0.947,2.687,-0.382
3.330,0.078,-0.130,0.858,-1.267,0.901,-0.672
3.340,0.082,-0.139,0.875,-2.092,-0.763,-0.580
3.340,0.076,-0.130,0.861,-2.427,-1.695,-0.687
3.350,0.070,-0.133,0.857,-2.824,-1.466,0.015
3.350,0.065,-0.131,0.860,-3.328,-1.985,0.565
3.350,0.073,-0.135,0.869,-4.122,-3.023,0.565
3.360,0.088,-0.133,0.880,-4.534,-2.366,0.595
3.360,0.099,-0.137,0.876,-4.840,-0.443,0.763
3.370,0.098,-0.138,0.874,-5.328,0.885,0.840
3.370,0.098,-0.139,0.893,-5.740,1.298,0.855
3.370,0.098,-0.139,0.892,-5.481,2.137,0.718
3.380,0.106,-0.136,0.898,-5.756,3.099,0.473
3.380,0.106,-0.136,0.892,-5.603,3.939,0.153
3.380,0.100,-0.134,0.886,-5.481,3.527,-0.244
3.390,0.101,-0.136,0.891,-5.618,3.435,-0.275
3.390,0.095,-0.128,0.889,-5.557,3.282,-0.336
3.400,0.105,-0.138,0.888,-5.527,3.740,-0.565
3.400,0.098,-0.140,0.901,-4.901,3.481,-0.992
3.400,0.099,-0.137,0.896,-4.702,2.351,-1.527
3.410,0.101,-0.138,0.903,-4.534,1.527,-2.244
3.410,0.103,-0.138,0.889,-4.809,1.160,-2.870
3.420,0.095,-0.136,0.885,-4.885,0.595,-3.084
3.420,0.087,-0.140,0.899,-4.901,-0.061,-3.405
3.420,0.077,-0.142,0.908,-4.351,0.351,-3.084
3.430,0.071,-0.145,0.910,-3.786,0.397,-2.702
3.430,0.058,-0.149,0.909,-3.237,0.443,-1.969
3.440,0.069,-0.153,0.914,-2.855,0.412,-1.328
3.440,0.078,-0.147,0.920,-1.954,0.733,-1.099
3.440,0.084,-0.153,0.932,-0.672,1.313,-0.809
3.450,0.081,-0.159,0.939,0.382,2.443,-0.672
3.450,0.071,-0.165,0.915,1.282,2.702,-0.260
3.460,0.071,-0.159,0.911,1.267,2.137,0.092
3.460,0.076,-0.157,0.918,1.802,1.099,-0.260
3.460,0.081,-0.154,0.921,2.122,0.824,-0.580
3.470,0.070,-0.147,0.917,2.260,0.672,-0.351
3.470,0.074,-0.154,0.914,2.305,0.321,-0.489
3.480,0.072,-0.157,0.911,2.260,0.107,-0.366
3.480,0.091,-0.156,0.903,2.260,0.626,-0.473
3.480,0.088,-0.143,0.900,2.382,1.160,-0.809
3.490,0.076,-0.150,0.894,2.092,1.084,-1.267
3.490,0.068,-0.150,0.896,1.634,0.229,-1.023
3.500,0.066,-0.148,0.888,1.374,-0.031,-0.840
3.500,0.065,-0.149,0.892,1.115,0.443,-0.565
3.500,0.068,-0.146,0.882,0.809,0.611,-0.443
3.510,0.062,-0.151,0.895,0.321,0.427,-0.733
3.510,0.057,-0.149,0.896,0.000,-0.412,-0.672
3.520,0.056,-0.148,0.886,-0.244,-0.748,-0.305
3.520,0.056,-0.151,0.889,-0.519,-0.397,0.244
3.520,0.063,-0.148,0.884,-0.718,0.733,0.641
3.530,0.062,-0.146,0.891,-0.519,0.656,0.931
3.530,0.066,-0.146,0.902,-0.595,0.748,1.282
3.530,0.072,-0.149,0.894,-0.183,1.328,1.435
3.540,0.086,-0.149,0.902,-0.031,2.977,1.878
3.540,0.089,-0.150,0.903,0.473,3.740,1.878
3.550,0.084,-0.154,0.891,0.718,3.740,1.053
3.550,0.086,-0.150,0.894,0.885,2.992,0.748
3.550,0.090,-0.146,0.877,0.305,2.122,0.214
3.560,0.093,-0.143,0.882,-0.122,2.534,-0.107
3.560,0.100,-0.145,0.882,-0.443,5.282,0.504
3.570,0.098,-0.142,0.898,-0.458,8.809,1.115
3.570,0.082,-0.154,0.908,0.366,10.214,1.466
3.570,0.063,-0.150,0.890,0.702,9.328,1.374
3.580,0.052,-0.142,0.886,0.809,7.725,1.588
3.580,0.065,-0.136,0.861,0.229,6.031,1.466
3.590,0.055,-0.138,0.869,-0.321,3.695,0.824
3.590,0.054,-0.140,0.877,-0.779,-0.046,-0.519
3.590,0.068,-0.137,0.873,-1.115,-3.695,-1.603
3.600,0.083,-0.133,0.880,-1.344,-5.542,-2.870
3.600,0.079,-0.137,0.873,-1.160,-6.214,-3.450
3.610,0.077,-0.132,0.889,-1.313,-6.458,-3.466
3.610,0.073,-0.138,0.889,-1.069,-6.718,-3.740
3.610,0.065,-0.134,0.889,-0.962,-6.458,-3.405
3.620,0.060,-0.136,0.877,-0.947,-5.863,-3.130
3.620,0.054,-0.133,0.876,-0.840,-5.191,-2.443
3.630,0.059,-0.131,0.885,-0.885,-4.504,-1.878
3.630,0.069,-0.132,0.884,-0.824,-3.481,-1.588
3.630,0.066,-0.129,0.886,-0.870,-2.794,-1.420
3.640,0.066,-0.131,0.886,-1.038,-1.542,-0.611
3.640,0.064,-0.129,0.880,-1.069,0.061,-0.214
3.650,0.068,-0.129,0.885,-0.962,1.466,0.519
3.650,0.064,-0.121,0.889,-0.550,2.611,0.855
3.650,0.075,-0.127,0.877,-0.214,3.771,1.267
3.660,0.072,-0.121,0.875,-0.198,3.893,1.084
3.660,0.073,-0.121,0.866,-0.351,2.962,0.565
3.670,0.069,-0.119,0.858,-0.366,1.435,0.046
3.670,0.064,-0.120,0.851,-1.420,-0.031,-0.336
3.670,0.077,-0.119,0.865,-2.061,-0.458,-0.931
3.680,0.079,-0.122,0.876,-2.321,-0.519,-0.962
3.680,0.060,-0.123,0.885,-2.122,-0.962,-0.595
3.690,0.049,-0.121,0.882,-2.122,-1.985,0.122
3.690,0.057,-0.120,0.878,-2.840,-2.305,0.366
3.690,0.070,-0.126,0.878,-3.130,-2.214,0.687
3.700,0.069,-0.135,0.892,-3.130,-1.588,1.023
3.700,0.083,-0.141,0.894,-3.527,1.298,1.405
3.710,0.077,-0.136,0.866,-5.389,5.420,2.504
3.710,0.083,-0.141,0.902,-5.924,6.840,2.718
3.710,0.082,-0.150,0.915,-3.420,5.557,1.847
3.720,0.086,-0.155,0.934,-2.061,3.374,0.794
3.720,0.081,-0.151,0.923,-1.542,3.405,0.412
3.730,0.080,-0.144,0.915,-1.176,4.183,0.336
3.730,0.070,-0.144,0.920,-0.870,3.679,0.321
3.730,0.067,-0.152,0.908,-0.260,2.550,-0.290
3.740,0.070,-0.151,0.920,0.504,0.809,-0.794
3.740,0.073,-0.155,0.926,1.130,0.214,-1.634
3.740,0.066,-0.151,0.921,1.710,-0.534,-2.122
3.750,0.061,-0.151,0.913,1.511,-1.511,-2.458
3.750,0.058,-0.154,0.912,2.000,-1.817,-2.947
3.760,0.053,-0.149,0.903,2.397,-2.046,-3.130
3.760,0.043,-0.144,0.898,2.137,-3.313,-3.237
3.760,0.051,-0.140,0.880,1.542,-4.214,-3.817
3.770,0.054,-0.138,0.875,0.519,-4.702,-4.198
3.770,0.067,-0.138,0.890,0.198,-4.763,-4.855
3.780,0.053,-0.132,0.875,0.122,-4.595,-4.992
3.780,0.055,-0.128,0.869,-0.901,-5.374,-5.115
3.780,0.055,-0.120,0.861,-1.939,-5.863,-5.069
3.790,0.060,-0.128,0.867,-2.290,-5.435,-5.328
3.790,0.073,-0.132,0.866,-2.855,-4.779,-5.817
3.800,0.067,-0.131,0.860,-3.450,-4.931,-6.244
3.800,0.070,-0.130,0.870,-3.847,-5.206,-6.702
3.810,0.079,-0.129,0.860,-4.489,-4.687,-7.450
3.810,0.076,-0.133,0.869,-4.611,-4.901,-7.908
3.810,0.079,-0.131,0.882,-4.901,-2.763,-7.786
3.820,0.090,-0.128,0.872,-5.328,1.649,-6.382
3.820,0.051,-0.136,0.878,-5.267,3.664,-4.641
3.830,0.023,-0.150,0.895,-4.137,3.878,-2.534
3.830,0.014,-0.160,0.911,-2.885,4.183,-0.672
3.830,0.041,-0.153,0.918,-1.542,5.786,0.733
3.840,0.065,-0.159,0.923,-1.053,8.107,1.573
3.840,0.065,-0.151,0.918,-0.733,8.809,1.954
3.850,0.053,-0.151,0.912,-0.015,6.229,1.557
3.850,0.057,-0.152,0.905,0.015,2.702,0.550
3.850,0.060,-0.142,0.879,-0.260,0.489,-0.366
3.860,0.070,-0.150,0.885,-0.397,-0.809,-1.008
3.860,0.069,-0.146,0.893,-0.351,-1.588,-1.359
3.870,0.059,-0.153,0.888,0.779,-2.473,-1.725
3.870,0.058,-0.142,0.885,1.053,-3.389,-1.588
3.870,0.062,-0.143,0.867,0.397,-3.557,-1.847
3.880,0.066,-0.135,0.860,0.275,-3.450,-1.466
3.880,0.048,-0.137,0.873,0.641,-4.229,-1.130
3.890,0.050,-0.137,0.869,-0.046,-4.702,-0.840
3.890,0.055,-0.138,0.850,-0.580,-4.260,-0.550
3.890,0.073,-0.132,0.847,-1.649,-3.527,-0.336
3.900,0.076,-0.135,0.861,-2.947,-2.672,-0.534
3.900,0.074,-0.137,0.862,-3.389,-1.939,-0.611
3.910,0.073,-0.142,0.872,-3.481,-1.282,-0.427
3.910,0.078,-0.139,0.865,-4.000,-0.763,-0.107
3.910,0.075,-0.142,0.878,-4.504,-0.443,0.061
3.920,0.067,-0.145,0.882,-3.817,-1.053,0.183
3.920,0.076,-0.148,0.895,-3.084,-1.237,0.290
3.930,0.084,-0.146,0.898,-2.305,-1.893,0.046
3.930,0.090,-0.147,0.893,-1.802,-1.786,-0.366
3.930,0.097,-0.143,0.901,-1.313,-1.374,-0.992
3.940,0.096,-0.140,0.901,-1.130,-0.962,-0.947
3.940,0.090,-0.131,0.897,-0.748,0.687,-1.069
3.950,0.097,-0.140,0.883,-1.420,2.351,-0.855
3.950,0.090,-0.135,0.896,-1.786,4.031,-0.809
3.950,0.080,-0.136,0.905,-1.786,4.153,-0.962
3.960,0.063,-0.134,0.906,-1.649,3.115,-0.809
3.960,0.067,-0.134,0.898,-1.832,2.244,-0.534
3.970,0.066,-0.131,0.888,-2.290,2.855,-0.321
3.970,0.067,-0.130,0.891,-2.656,2.519,-0.412
3.970,0.062,-0.131,0.883,-2.550,1.160,-0.672
3.980,0.054,-0.124,0.887,-2.595,-1.237,-0.824
3.980,0.064,-0.128,0.886,-2.855,-2.290,-0.870
3.990,0.069,-0.127,0.872,-2.748,-2.672,-0.794
3.990,0.069,-0.130,0.896,-2.718,-3.038,-0.870
3.990,0.073,-0.134,0.896,-1.939,-2.611,-0.885
4.000,0.064,-0.132,0.903,-1.481,-2.733,-0.870
4.000,0.069,-0.128,0.890,-1.847,-3.191,-1.160
4.010,0.068,-0.129,0.876,-2.229,-4.046,-1.206
4.010,0.064,-0.128,0.878,-2.412,-4.275,-1.023
4.010,0.062,-0.127,0.879,-2.870,-4.122,-0.580
4.020,0.060,-0.134,0.885,-2.947,-3.725,-0.153
4.020,0.071,-0.125,0.877,-2.962,-2.489,0.229
4.030,0.071,-0.125,0.879,-2.809,-1.832,0.260
4.030,0.061,-0.131,0.870,-3.359,-2.183,0.229
4.030,0.065,-0.125,0.862,-3.634,-2.748,0.351
4.040,0.062,-0.124,0.863,-3.939,-3.527,0.198
4.040,0.072,-0.129,0.884,-4.092,-3.389,0.336
4.050,0.076,-0.135,0.899,-3.695,-2.397,0.366
4.050,0.068,-0.133,0.888,-3.038,-1.786,0.611
4.050,0.059,-0.137,0.877,-2.702,-1.786,1.206
4.060,0.047,-0.139,0.883,-2.443,-2.076,1.740
4.060,0.056,-0.140,0.895,-2.321,-2.107,2.565
4.070,0.063,-0.144,0.885,-2.137,-1.420,2.840
4.070,0.062,-0.142,0.882,-2.321,-1.496,2.779
4.070,0.079,-0.145,0.878,-2.702,-1.084,2.809
4.080,0.075,-0.143,0.884,-3.389,-1.053,2.702
