Time,acce_x,acce_y,acce_z,gyro_x,gyro_y, gyro_z
0.000,-0.040,-0.103,0.882,-0.519,-0.092,-0.122
0.000,-0.036,-0.103,0.889,-0.397,0.458,0.351
0.010,-0.036,-0.102,0.875,-0.107,0.992,0.885
0.010,-0.042,-0.103,0.871,-0.427,0.504,1.176
0.010,-0.037,-0.102,0.879,-0.733,0.840,1.389
0.020,-0.024,-0.107,0.865,-0.885,0.763,1.603
0.020,-0.022,-0.100,0.876,-1.023,1.038,1.618
0.020,-0.022,-0.104,0.876,-1.008,1.115,1.618
0.030,-0.012,-0.104,0.873,-0.931,1.344,1.649
0.030,-0.009,-0.105,0.871,-0.977,1.298,1.542
0.030,-0.013,-0.100,0.876,-0.855,1.023,1.679
0.040,-0.007,-0.101,0.872,-1.466,0.519,1.130
0.040,-0.009,-0.107,0.873,-1.756,-0.107,1.176
0.040,-0.004,-0.103,0.880,-1.817,-0.702,0.687
0.050,-0.006,-0.110,0.885,-1.908,-0.779,0.565
0.050,-0.005,-0.107,0.880,-1.939,-0.580,0.580
0.060,-0.012,-0.101,0.890,-1.802,-0.183,0.580
0.060,-0.011,-0.108,0.892,-1.817,-0.229,0.443
0.060,-0.017,-0.117,0.890,-2.076,-0.412,0.504
0.070,-0.014,-0.111,0.894,-2.427,-0.412,0.275
0.070,-0.021,-0.110,0.894,-2.107,-0.443,0.290
0.080,-0.023,-0.111,0.890,-1.954,-0.519,0.473
0.080,-0.026,-0.116,0.883,-1.847,-1.191,0.214
0.080,-0.027,-0.120,0.883,-2.015,-1.237,0.260
0.090,-0.024,-0.113,0.903,-1.817,-1.115,0.382
0.090,-0.029,-0.116,0.893,-1.450,-0.779,0.504
0.100,-0.023,-0.121,0.896,-1.221,-0.504,0.641
0.100,-0.029,-0.118,0.890,-0.718,-0.504,0.641
0.100,-0.033,-0.115,0.886,-0.779,-0.626,0.809
0.110,-0.032,-0.118,0.875,-0.748,-0.901,1.359
0.110,-0.032,-0.110,0.879,-0.794,-0.779,1.679
0.120,-0.029,-0.106,0.881,-1.130,-0.718,2.183
0.120,-0.023,-0.105,0.877,-1.099,-0.168,2.672
0.130,-0.012,-0.113,0.878,-1.023,0.687,2.748
0.130,-0.008,-0.112,0.875,-1.221,1.084,2.611
0.130,-0.000,-0.107,0.866,-1.740,1.710,2.595
0.140,-0.010,-0.105,0.871,-2.321,1.603,2.397
0.140,-0.005,-0.105,0.873,-2.473,0.870,2.351
0.150,-0.007,-0.108,0.875,-2.977,0.214,1.908
0.150,-0.009,-0.104,0.884,-3.206,0.031,1.679
0.150,-0.002,-0.104,0.887,-3.084,-0.366,1.573
0.160,0.005,-0.108,0.896,-3.038,-0.153,1.435
0.160,0.004,-0.112,0.903,-2.748,0.427,1.099
0.170,0.000,-0.108,0.897,-2.168,-0.015,0.809
0.170,-0.006,-0.107,0.896,-1.954,-0.656,0.412
0.170,-0.003,-0.109,0.896,-2.015,-1.313,-0.046
0.180,-0.006,-0.116,0.885,-1.863,-1.481,-0.412
0.180,-0.010,-0.110,0.887,-1.878,-1.771,-0.489
0.190,-0.023,-0.113,0.888,-1.954,-1.847,-0.489
0.190,-0.018,-0.108,0.889,-1.863,-2.168,-0.321
0.190,-0.026,-0.107,0.886,-2.061,-2.061,-0.168
0.200,-0.029,-0.114,0.887,-1.863,-2.000,0.229
0.200,-0.029,-0.116,0.902,-1.908,-1.496,0.916
0.210,-0.028,-0.115,0.898,-1.710,-0.519,1.328
0.210,-0.023,-0.113,0.892,-1.557,0.076,1.573
0.210,-0.024,-0.112,0.897,-1.313,0.198,1.786
0.220,-0.027,-0.115,0.884,-1.542,-0.031,2.076
0.220,-0.015,-0.117,0.898,-1.863,0.305,2.519
0.230,-0.017,-0.114,0.891,-1.985,0.458,2.840
0.230,-0.013,-0.114,0.900,-1.878,0.473,2.382
0.230,-0.005,-0.109,0.902,-1.802,0.702,2.244
0.240,-0.001,-0.118,0.891,-1.649,1.282,2.260
0.240,-0.001,-0.106,0.887,-1.573,1.237,1.908
0.250,-0.002,-0.107,0.888,-1.649,0.870,1.817
0.250,-0.007,-0.113,0.887,-1.908,-0.061,1.298
0.250,0.009,-0.110,0.898,-1.496,-0.534,0.672
0.260,-0.002,-0.114,0.896,-1.267,-0.763,0.336
0.260,0.001,-0.117,0.904,-0.870,-0.565,0.305
0.270,0.000,-0.111,0.896,-0.626,-0.122,0.260
0.270,-0.009,-0.116,0.894,-0.504,0.122,0.107
0.270,-0.017,-0.115,0.892,-0.519,0.015,-0.046
0.280,-0.020,-0.109,0.891,-0.580,-0.489,0.046
0.280,-0.018,-0.107,0.901,-0.763,-0.626,0.183
0.290,-0.022,-0.116,0.897,-0.504,-0.137,0.275
0.290,-0.025,-0.112,0.893,-0.473,0.473,0.336
0.290,-0.024,-0.112,0.890,-0.244,0.641,0.580
0.300,-0.031,-0.111,0.894,-0.290,0.687,0.595
0.300,-0.038,-0.115,0.892,-0.672,0.107,0.427
0.310,-0.023,-0.120,0.880,-1.069,-0.550,0.351
0.310,-0.040,-0.123,0.889,-1.603,-1.420,0.504
0.310,-0.034,-0.116,0.892,-1.466,-1.618,0.718
0.320,-0.036,-0.124,0.906,-0.931,-1.374,0.947
0.320,-0.039,-0.117,0.904,-0.809,-0.763,1.710
0.330,-0.027,-0.120,0.908,-0.519,-0.107,2.351
0.330,-0.028,-0.111,0.890,-0.443,0.183,2.580
0.340,-0.029,-0.114,0.891,-0.046,-0.183,3.084
0.340,-0.035,-0.110,0.881,-0.107,-0.580,3.420
0.340,-0.019,-0.113,0.880,-0.519,-1.038,3.588
0.350,-0.001,-0.106,0.876,-0.794,-0.702,3.786
0.350,0.011,-0.108,0.887,-0.962,0.046,3.511
0.360,0.018,-0.118,0.878,-1.145,0.427,3.221
0.360,0.021,-0.106,0.891,-1.221,0.992,3.069
0.360,0.022,-0.103,0.878,-1.374,1.527,2.901
0.370,0.028,-0.101,0.876,-1.267,1.679,2.504
0.370,0.027,-0.097,0.866,-1.053,1.725,1.939
0.380,0.021,-0.101,0.875,-1.359,0.473,1.557
0.380,0.019,-0.110,0.879,-1.725,-0.107,0.824
0.380,0.031,-0.105,0.879,-1.924,-0.580,0.168
0.390,0.035,-0.112,0.893,-1.359,-0.458,-0.504
0.390,0.029,-0.107,0.887,-1.344,-0.153,-1.206
0.400,0.038,-0.104,0.892,-1.176,-0.031,-1.786
0.400,0.027,-0.107,0.881,-1.527,-0.214,-2.397
0.400,0.020,-0.112,0.874,-1.740,-0.779,-2.885
0.410,0.012,-0.110,0.875,-1.985,-1.435,-3.206
0.410,0.000,-0.108,0.879,-2.046,-1.603,-3.405
0.420,0.004,-0.113,0.888,-1.954,-1.191,-3.481
0.420,0.004,-0.117,0.890,-1.740,-0.794,-3.542
0.420,-0.004,-0.115,0.894,-1.603,-0.183,-3.603
0.430,-0.001,-0.119,0.896,-1.740,-0.351,-3.527
0.430,-0.014,-0.114,0.883,-1.863,-0.427,-3.359
0.440,-0.015,-0.118,0.889,-1.740,-0.122,-3.328
0.440,-0.017,-0.123,0.896,-1.771,0.397,-2.992
0.440,-0.022,-0.118,0.879,-1.588,0.443,-3.115
0.450,-0.030,-0.109,0.886,-1.649,-0.168,-2.901
0.450,-0.025,-0.118,0.882,-2.244,-1.145,-3.053
0.460,-0.021,-0.117,0.887,-2.519,-1.618,-3.023
0.460,-0.020,-0.120,0.889,-2.351,-1.969,-3.008
0.470,-0.026,-0.118,0.901,-2.122,-1.954,-2.687
0.470,-0.030,-0.113,0.897,-2.107,-1.603,-2.382
0.470,-0.020,-0.111,0.890,-1.969,-1.267,-2.137
0.480,-0.019,-0.110,0.889,-1.863,-0.962,-1.847
0.480,-0.021,-0.109,0.904,-1.435,-0.458,-1.664
0.490,-0.026,-0.112,0.891,-0.794,0.107,-1.344
0.490,-0.029,-0.113,0.901,-1.115,0.626,-0.947
0.490,-0.030,-0.111,0.891,-0.763,0.962,-0.611
0.500,-0.026,-0.110,0.893,-0.977,1.252,-0.260
0.500,-0.029,-0.111,0.883,-1.191,1.206,0.107
0.510,-0.030,-0.111,0.880,-1.542,1.527,0.229
0.510,-0.016,-0.109,0.884,-1.939,1.573,0.305
0.510,-0.021,-0.112,0.866,-2.366,1.786,0.336
0.520,-0.009,-0.110,0.879,-2.870,1.847,0.061
0.520,-0.019,-0.111,0.875,-3.344,1.557,-0.321
0.530,-0.021,-0.116,0.887,-3.679,0.947,-0.427
0.530,-0.024,-0.119,0.897,-3.863,0.641,-0.427
0.530,-0.020,-0.121,0.903,-3.817,0.412,-0.458
0.540,-0.014,-0.126,0.909,-3.389,-0.076,-0.550
0.540,-0.019,-0.121,0.915,-3.038,-0.519,-0.672
0.550,-0.014,-0.125,0.916,-2.290,-0.977,-0.840
0.550,-0.015,-0.125,0.915,-2.122,-1.573,-1.237
0.560,-0.015,-0.120,0.923,-1.740,-1.939,-1.267
0.560,-0.009,-0.120,0.923,-0.611,-2.779,-1.496
0.560,-0.014,-0.121,0.927,0.229,-3.145,-1.771
0.570,-0.009,-0.116,0.917,0.794,-3.130,-1.786
0.570,-0.013,-0.116,0.909,0.992,-2.962,-2.000
0.580,-0.015,-0.109,0.903,1.420,-2.962,-1.771
0.580,-0.015,-0.109,0.891,1.237,-3.542,-1.847
0.580,-0.016,-0.108,0.889,1.069,-3.466,-1.908
0.590,-0.020,-0.104,0.888,1.038,-3.527,-1.725
0.590,-0.024,-0.105,0.884,0.840,-3.618,-1.573
0.600,-0.031,-0.108,0.884,0.229,-3.786,-1.115
0.600,-0.025,-0.101,0.875,-0.122,-4.168,-0.885
0.600,-0.017,-0.099,0.890,-0.275,-3.985,-0.550
0.610,-0.013,-0.108,0.890,-0.260,-3.298,-0.214
0.610,-0.017,-0.110,0.890,0.031,-2.870,-0.229
0.620,-0.004,-0.113,0.893,0.122,-2.275,-0.290
0.620,-0.009,-0.108,0.896,0.504,-1.344,0.015
0.620,-0.002,-0.103,0.900,0.580,0.748,0.244
0.630,0.006,-0.117,0.902,1.176,3.481,0.565
0.630,0.007,-0.110,0.911,1.420,6.916,1.511
0.640,-0.004,-0.104,0.920,2.122,8.794,2.061
0.640,-0.016,-0.116,0.921,3.359,9.282,2.046
0.640,-0.026,-0.111,0.902,3.649,9.008,2.519
0.650,-0.028,-0.104,0.889,3.374,8.321,2.947
0.650,-0.031,-0.098,0.867,2.718,6.733,2.641
0.660,-0.014,-0.089,0.863,1.985,4.702,1.939
0.660,-0.011,-0.093,0.857,1.435,2.427,1.282
0.660,-0.010,-0.085,0.854,1.191,0.550,0.443
0.670,-0.010,-0.081,0.854,0.901,-0.977,-0.031
0.670,-0.008,-0.081,0.840,-0.015,-1.435,-0.489
0.680,-0.006,-0.083,0.833,-0.931,-2.153,-0.977
0.680,-0.024,-0.082,0.840,-1.527,-3.573,-1.206
0.680,-0.023,-0.088,0.853,-1.817,-4.137,-1.282
0.690,-0.025,-0.089,0.862,-1.802,-3.542,-0.779
0.690,-0.023,-0.087,0.868,-1.969,-2.733,-0.244
0.700,-0.023,-0.089,0.873,-1.740,-1.664,0.473
0.700,-0.028,-0.095,0.868,-1.969,-1.145,1.221
0.700,-0.026,-0.097,0.877,-2.275,-0.473,1.893
0.710,-0.003,-0.098,0.881,-2.336,1.145,2.229
0.710,0.000,-0.096,0.895,-1.878,2.565,2.519
0.720,0.006,-0.101,0.899,-1.527,3.191,2.351
0.720,0.008,-0.100,0.881,-1.389,3.405,2.107
0.720,0.005,-0.094,0.871,-1.817,2.901,1.664
0.730,0.007,-0.100,0.874,-1.771,2.321,1.298
0.730,0.013,-0.093,0.888,-1.710,1.267,0.641
0.740,0.006,-0.095,0.874,-1.496,0.321,0.076
0.740,-0.002,-0.104,0.883,-1.344,-0.779,-0.366
0.740,0.007,-0.102,0.878,-1.160,-1.847,-0.809
0.750,0.003,-0.104,0.883,-1.374,-2.321,-1.237
0.750,0.004,-0.108,0.877,-1.847,-2.824,-1.649
0.760,-0.002,-0.107,0.885,-2.046,-3.237,-2.061
0.760,-0.007,-0.108,0.877,-2.336,-2.901,-2.168
0.770,-0.011,-0.116,0.894,-2.412,-2.321,-1.878
0.770,-0.022,-0.118,0.900,-2.229,-1.145,-1.359
0.770,-0.023,-0.123,0.906,-2.122,0.473,-0.885
0.780,-0.027,-0.125,0.900,-1.817,1.557,-0.214
0.780,-0.026,-0.120,0.909,-1.435,2.473,0.183
0.790,-0.024,-0.119,0.903,-1.557,2.626,0.427
0.790,-0.037,-0.117,0.901,-1.328,2.595,0.504
0.790,-0.032,-0.119,0.898,-1.282,2.412,0.840
0.800,-0.032,-0.121,0.898,-1.359,1.603,0.992
0.800,-0.027,-0.119,0.892,-1.237,1.527,1.053
0.810,-0.031,-0.113,0.896,-0.794,1.252,1.053
0.810,-0.022,-0.108,0.896,-0.702,0.870,1.206
0.810,-0.021,-0.110,0.884,-1.130,0.473,0.992
0.820,-0.018,-0.108,0.882,-1.176,0.305,0.809
0.820,-0.022,-0.104,0.885,-1.069,0.015,0.702
0.830,-0.029,-0.103,0.878,-1.038,-0.275,0.809
0.830,-0.028,-0.103,0.880,-1.176,-0.733,0.870
0.830,-0.031,-0.096,0.867,-1.527,-1.466,1.023
0.840,-0.028,-0.101,0.876,-2.046,-1.924,1.206
0.840,-0.014,-0.100,0.889,-2.244,-1.313,1.328
0.850,-0.025,-0.098,0.888,-1.908,-0.275,1.618
0.850,-0.019,-0.096,0.876,-1.756,0.244,1.847
0.850,-0.023,-0.088,0.862,-2.076,0.611,2.260
0.860,-0.021,-0.085,0.853,-2.840,-0.214,2.046
0.860,-0.012,-0.088,0.857,-3.557,-1.282,1.359
0.870,-0.006,-0.094,0.847,-3.847,-2.656,0.748
0.870,-0.007,-0.088,0.852,-4.443,-3.649,-0.046
0.870,0.003,-0.090,0.868,-5.237,-3.420,-0.336
0.880,0.002,-0.095,0.879,-5.267,-2.901,-0.366
0.880,0.014,-0.107,0.895,-4.809,-0.351,0.260
0.890,0.010,-0.102,0.902,-4.107,2.611,0.473
0.890,0.012,-0.100,0.898,-3.725,4.672,1.008
0.890,-0.005,-0.110,0.913,-3.221,4.992,1.405
0.900,-0.021,-0.115,0.919,-2.550,4.611,1.802
0.900,-0.018,-0.110,0.900,-2.473,5.176,2.473
0.910,-0.006,-0.111,0.898,-2.305,5.649,2.550
0.910,-0.011,-0.112,0.893,-2.351,4.672,2.244
0.910,0.001,-0.109,0.903,-2.687,2.870,1.542
0.920,0.002,-0.111,0.912,-2.656,1.908,0.992
0.920,0.000,-0.111,0.913,-2.275,1.878,0.427
0.930,-0.010,-0.112,0.892,-2.031,1.771,0.382
0.930,-0.009,-0.109,0.888,-2.290,1.038,0.153
0.930,-0.022,-0.108,0.895,-2.656,0.168,-0.076
0.940,-0.013,-0.113,0.897,-2.443,-0.687,-0.351
0.940,-0.015,-0.114,0.911,-2.290,-0.901,-0.351
0.950,-0.022,-0.116,0.917,-1.511,-0.427,-0.061
0.950,-0.010,-0.121,0.910,-1.252,0.382,0.015
0.950,-0.021,-0.119,0.905,-1.099,0.840,0.336
0.960,-0.018,-0.122,0.906,-1.099,0.931,0.519
0.960,-0.023,-0.117,0.907,-1.084,0.992,0.870
0.970,-0.021,-0.119,0.911,-1.130,1.221,1.023
0.970,-0.016,-0.122,0.903,-1.252,1.130,1.053
0.970,-0.012,-0.121,0.887,-1.145,1.130,1.145
0.980,-0.015,-0.121,0.900,-1.588,0.962,1.099
0.980,-0.012,-0.120,0.902,-1.618,0.763,1.130
0.990,-0.014,-0.116,0.910,-1.084,0.840,1.115
0.990,-0.015,-0.118,0.906,-0.855,1.542,1.389
0.990,-0.009,-0.116,0.905,-0.748,1.511,1.603
1.000,-0.017,-0.110,0.893,-0.489,0.748,1.298
1.000,-0.016,-0.104,0.882,-0.626,0.061,0.931
1.010,-0.006,-0.100,0.885,-0.580,-0.473,0.855
1.010,-0.004,-0.099,0.886,-0.702,-0.534,0.824
1.010,0.009,-0.098,0.898,-0.611,-0.794,0.427
1.020,0.004,-0.093,0.883,-0.779,-0.214,-0.092
1.020,-0.000,-0.094,0.870,-0.992,-0.015,-0.244
1.030,0.000,-0.091,0.866,-1.038,-0.519,-0.198
1.030,-0.004,-0.092,0.871,-1.527,-0.427,-0.076
1.040,0.003,-0.094,0.868,-1.557,-0.198,0.183
1.040,0.014,-0.094,0.863,-1.863,-0.168,-0.046
1.040,0.014,-0.096,0.862,-2.412,0.107,-0.076
1.050,0.022,-0.102,0.872,-2.656,1.069,-0.412
1.050,0.018,-0.099,0.866,-2.489,1.023,-0.748
1.060,0.008,-0.102,0.870,-2.733,0.824,-1.084
1.060,0.017,-0.100,0.868,-3.328,0.519,-1.389
1.060,0.016,-0.106,0.875,-3.466,0.489,-1.786
1.070,0.016,-0.114,0.879,-3.359,0.427,-2.198
1.070,0.015,-0.113,0.886,-3.237,0.321,-2.626
1.080,0.009,-0.119,0.881,-3.160,0.122,-3.176
1.080,0.002,-0.117,0.891,-3.206,-0.046,-3.420
1.080,-0.006,-0.113,0.889,-3.450,-0.809,-3.893
1.090,-0.005,-0.121,0.883,-3.466,-1.618,-4.565
1.090,-0.012,-0.124,0.899,-3.466,-2.809,-4.992
1.100,-0.022,-0.124,0.898,-3.298,-4.137,-5.267
1.100,-0.031,-0.135,0.902,-3.069,-5.130,-5.023
1.100,-0.029,-0.131,0.903,-2.962,-4.824,-4.931
1.110,-0.024,-0.130,0.896,-3.115,-4.076,-4.748
1.110,-0.032,-0.124,0.897,-2.870,-4.412,-4.580
1.120,-0.036,-0.128,0.900,-2.412,-4.107,-4.397
1.120,-0.035,-0.125,0.914,-2.168,-2.672,-3.786
1.120,-0.037,-0.120,0.901,-1.603,-0.672,-2.824
1.130,-0.044,-0.124,0.906,-1.176,1.191,-2.046
1.130,-0.043,-0.123,0.901,-0.473,1.985,-1.344
1.140,-0.052,-0.123,0.896,-0.626,2.168,-0.824
1.140,-0.053,-0.112,0.885,-1.206,2.183,-0.183
1.150,-0.042,-0.113,0.895,-1.069,2.718,0.031
1.150,-0.040,-0.111,0.890,-0.901,2.855,0.580
1.150,-0.042,-0.110,0.890,-1.069,3.313,1.023
1.160,-0.037,-0.107,0.872,-1.313,3.008,1.145
1.160,-0.032,-0.100,0.864,-1.359,2.901,1.115
1.170,-0.023,-0.101,0.873,-1.939,2.458,1.023
1.170,-0.021,-0.101,0.875,-1.878,2.290,0.885
1.170,-0.018,-0.100,0.876,-1.786,1.954,0.718
1.180,-0.028,-0.099,0.875,-2.076,1.679,0.885
1.180,-0.021,-0.101,0.875,-2.366,1.191,0.870
1.190,-0.021,-0.092,0.870,-2.641,0.763,1.115
1.190,-0.022,-0.096,0.878,-2.885,0.519,1.099
1.190,-0.015,-0.096,0.879,-3.008,1.084,1.405
1.200,-0.010,-0.099,0.895,-3.099,1.908,1.435
1.200,-0.011,-0.099,0.895,-2.809,2.290,1.344
1.210,-0.018,-0.101,0.883,-2.840,1.618,0.809
1.210,-0.019,-0.097,0.891,-2.992,0.794,0.504
1.210,-0.017,-0.102,0.878,-3.084,-0.061,0.305
1.220,-0.015,-0.101,0.901,-2.901,-0.305,-0.061
1.220,-0.016,-0.095,0.906,-2.611,-0.656,-0.275
1.230,-0.019,-0.105,0.898,-2.397,-0.809,-0.611
1.230,-0.019,-0.100,0.896,-1.939,-1.573,-0.962
1.230,-0.025,-0.099,0.885,-2.382,-2.824,-0.870
1.240,-0.018,-0.101,0.885,-2.977,-3.466,-1.023
1.240,-0.026,-0.101,0.886,-3.069,-3.481,-0.947
1.250,-0.024,-0.106,0.893,-2.885,-3.237,-0.626
1.250,-0.022,-0.104,0.889,-2.763,-2.840,-0.229
1.250,-0.012,-0.108,0.891,-2.855,-1.969,0.092
1.260,-0.016,-0.106,0.890,-2.962,-1.481,0.366
1.260,-0.021,-0.108,0.893,-3.023,-1.313,0.580
1.270,-0.019,-0.108,0.896,-2.809,-0.641,0.870
1.270,-0.004,-0.117,0.907,-2.702,0.458,1.237
1.280,-0.013,-0.113,0.908,-1.985,1.191,1.435
1.280,-0.015,-0.110,0.892,-1.954,1.145,1.542
1.280,-0.008,-0.117,0.888,-1.924,0.687,1.603
1.290,-0.010,-0.114,0.903,-2.183,0.260,1.328
1.290,0.005,-0.112,0.903,-1.573,0.489,1.145
1.290,0.000,-0.114,0.909,-1.252,0.504,0.824
1.300,0.007,-0.109,0.904,-0.855,0.718,0.550
1.300,0.001,-0.113,0.888,-0.916,0.092,0.382
1.310,-0.005,-0.113,0.880,-0.916,-0.183,0.183
1.310,-0.009,-0.108,0.886,-1.191,-1.221,0.565
1.310,-0.007,-0.106,0.886,-1.359,-1.069,0.687
1.320,-0.004,-0.102,0.888,-1.282,-1.023,0.702
1.320,0.010,-0.105,0.883,-1.374,-0.809,0.550
1.330,0.022,-0.107,0.876,-1.588,-0.626,0.641
1.330,0.027,-0.109,0.893,-1.756,-0.229,0.366
1.330,0.031,-0.116,0.893,-1.985,0.092,0.305
1.340,0.039,-0.116,0.891,-2.412,-0.076,0.229
1.340,0.039,-0.115,0.895,-2.458,0.489,0.076
1.350,0.053,-0.122,0.897,-2.244,0.885,0.107
1.350,0.056,-0.125,0.900,-2.382,1.221,-0.137
1.350,0.062,-0.129,0.898,-2.336,1.405,-0.504
1.360,0.083,-0.125,0.894,-2.718,1.481,-1.008
1.360,0.088,-0.132,0.909,-2.855,1.481,-1.740
1.370,0.095,-0.135,0.920,-2.260,1.527,-2.504
1.370,0.107,-0.138,0.921,-1.924,1.191,-3.359
1.370,0.121,-0.136,0.922,-1.634,0.763,-4.351
1.380,0.135,-0.137,0.916,-1.435,0.809,-5.603
1.380,0.149,-0.151,0.919,-1.023,0.870,-7.313
1.390,0.153,-0.148,0.916,-0.412,0.137,-8.885
1.390,0.157,-0.154,0.910,-0.473,-1.344,-10.336
1.390,0.159,-0.164,0.914,-0.382,-2.366,-11.908
1.400,0.178,-0.169,0.928,-0.458,-2.519,-13.115
1.400,0.193,-0.173,0.929,-0.290,-2.519,-14.321
1.410,0.204,-0.179,0.939,-0.015,-2.183,-15.649
1.410,0.216,-0.177,0.927,0.122,-1.695,-16.901
1.420,0.224,-0.183,0.927,0.076,-1.374,-18.427
1.420,0.250,-0.182,0.932,0.046,-0.809,-20.137
1.420,0.261,-0.182,0.943,0.275,0.214,-21.679
1.430,0.277,-0.180,0.955,0.672,1.115,-23.206
1.430,0.284,-0.187,0.951,1.221,2.061,-25.191
1.440,0.296,-0.182,0.947,1.374,2.412,-27.130
1.440,0.295,-0.188,0.949,1.786,2.534,-29.115
1.440,0.296,-0.192,0.936,2.366,2.321,-31.115
1.450,0.309,-0.189,0.939,2.382,2.076,-33.420
1.450,0.310,-0.195,0.941,2.229,1.466,-35.710
1.460,0.321,-0.195,0.960,2.580,1.710,-38.061
1.460,0.324,-0.202,0.965,3.481,1.802,-40.504
1.460,0.322,-0.198,0.963,4.076,1.527,-43.099
1.470,0.329,-0.207,0.967,4.122,0.855,-45.756
1.470,0.332,-0.213,0.979,4.870,0.611,-48.504
1.480,0.337,-0.222,0.981,5.893,1.420,-50.718
1.480,0.341,-0.224,0.998,7.176,2.229,-53.481
1.480,0.338,-0.237,0.995,8.031,3.832,-56.198
1.490,0.336,-0.236,0.981,9.344,5.481,-58.855
1.490,0.324,-0.242,0.971,10.031,6.366,-61.664
1.500,0.310,-0.241,0.977,10.534,6.534,-64.718
1.500,0.301,-0.252,0.972,11.023,6.748,-67.237
1.500,0.277,-0.256,0.974,11.939,7.511,-69.496
1.510,0.255,-0.257,0.972,12.809,7.389,-71.527
1.510,0.233,-0.260,0.964,13.511,6.473,-73.649
1.520,0.218,-0.265,0.940,14.244,6.458,-75.328
1.520,0.202,-0.254,0.934,14.550,6.031,-76.687
1.520,0.182,-0.252,0.916,15.191,5.786,-77.847
1.530,0.183,-0.250,0.914,15.328,6.458,-78.672
1.530,0.172,-0.251,0.898,16.046,7.588,-79.313
1.540,0.170,-0.250,0.890,16.427,9.038,-79.939
1.540,0.160,-0.242,0.880,16.718,10.122,-80.733
1.540,0.154,-0.238,0.853,16.260,11.511,-81.008
1.550,0.153,-0.229,0.844,15.038,13.832,-80.947
1.550,0.150,-0.227,0.827,14.000,16.855,-81.023
1.560,0.147,-0.229,0.830,12.580,20.198,-80.947
1.560,0.143,-0.218,0.817,11.618,22.901,-81.008
1.570,0.128,-0.220,0.801,10.626,25.298,-81.191
1.570,0.124,-0.208,0.784,8.824,26.763,-81.405
1.570,0.115,-0.207,0.764,6.443,27.771,-81.664
1.580,0.116,-0.199,0.778,4.153,29.206,-81.939
1.580,0.124,-0.209,0.774,2.824,31.496,-81.893
1.590,0.159,-0.215,0.804,2.504,34.397,-82.916
1.590,0.164,-0.213,0.797,0.748,36.076,-84.153
1.590,0.157,-0.199,0.789,-0.687,37.405,-85.115
1.600,0.159,-0.201,0.798,-1.893,40.137,-85.969
1.600,0.146,-0.209,0.811,-2.305,39.710,-87.573
1.610,0.143,-0.208,0.827,-3.023,37.908,-89.725
1.610,0.152,-0.208,0.818,-3.389,35.328,-92.489
1.620,0.150,-0.210,0.823,-3.740,32.656,-94.992
1.620,0.169,-0.213,0.841,-4.458,31.542,-97.786
1.620,0.175,-0.216,0.856,-4.061,31.038,-100.809
1.630,0.171,-0.225,0.874,-2.962,29.557,-104.015
1.630,0.157,-0.219,0.864,-2.076,26.916,-107.008
1.640,0.126,-0.227,0.876,-1.313,22.947,-110.427
1.640,0.122,-0.227,0.873,-0.458,18.595,-113.649
1.640,0.107,-0.239,0.893,0.733,14.000,-116.718
1.650,0.077,-0.246,0.885,1.969,9.542,-119.298
1.650,0.062,-0.258,0.899,3.053,5.649,-121.206
1.660,0.055,-0.265,0.903,3.679,1.969,-123.389
1.660,0.041,-0.267,0.904,4.626,-0.611,-124.611
1.670,0.027,-0.274,0.911,5.481,-2.931,-125.206
1.670,0.017,-0.283,0.908,5.756,-4.321,-125.130
1.670,0.002,-0.283,0.901,6.122,-4.992,-124.458
1.680,-0.004,-0.281,0.894,5.832,-5.069,-123.298
1.680,0.007,-0.288,0.900,5.099,-3.710,-122.061
1.690,0.027,-0.296,0.916,5.344,-0.748,-120.992
1.690,0.033,-0.300,0.945,5.603,2.473,-119.695
1.690,0.041,-0.306,0.950,5.847,6.275,-118.763
1.700,0.045,-0.309,0.956,6.305,10.672,-117.374
1.700,0.050,-0.315,0.969,7.008,15.145,-116.229
1.710,0.061,-0.319,0.980,7.878,18.595,-115.237
1.710,0.062,-0.324,0.969,8.794,20.809,-115.084
1.720,0.073,-0.329,0.982,9.420,22.885,-115.069
1.720,0.074,-0.322,0.981,10.443,24.504,-115.527
1.720,0.060,-0.331,0.985,11.847,25.496,-116.198
1.730,0.050,-0.335,0.973,12.977,25.267,-116.702
1.730,0.045,-0.331,0.973,13.832,24.534,-117.359
1.740,0.053,-0.330,0.960,14.443,23.695,-118.473
1.740,0.062,-0.334,0.954,15.527,22.687,-120.305
1.740,0.065,-0.333,0.947,16.641,21.313,-122.275
1.750,0.055,-0.332,0.940,16.809,19.527,-124.214
1.750,0.052,-0.337,0.934,17.450,17.908,-127.008
1.760,0.044,-0.340,0.934,18.061,15.878,-129.634
1.760,0.031,-0.336,0.933,18.321,13.008,-132.412
1.770,0.009,-0.337,0.930,18.672,10.595,-135.023
1.770,-0.007,-0.334,0.932,19.176,8.244,-137.176
1.770,-0.033,-0.332,0.915,19.725,5.618,-139.023
1.780,-0.055,-0.324,0.915,20.427,3.145,-140.122
1.780,-0.075,-0.330,0.917,21.130,0.565,-140.763
1.790,-0.094,-0.316,0.895,21.389,-1.588,-140.733
1.790,-0.093,-0.314,0.896,21.496,-2.763,-140.458
1.800,-0.091,-0.308,0.883,21.725,-2.748,-139.603
1.800,-0.092,-0.302,0.879,21.542,-2.382,-139.313
1.800,-0.089,-0.301,0.870,21.038,-2.000,-138.687
1.810,-0.089,-0.296,0.857,20.321,-1.221,-137.557
1.810,-0.089,-0.294,0.858,19.664,0.412,-136.229
1.820,-0.083,-0.289,0.858,18.656,2.977,-134.931
1.820,-0.072,-0.288,0.877,18.351,6.000,-133.588
1.830,-0.065,-0.287,0.877,17.908,8.931,-132.626
1.830,-0.069,-0.292,0.879,17.344,11.359,-131.695
1.830,-0.074,-0.297,0.882,17.389,13.282,-130.916
1.840,-0.078,-0.295,0.885,17.710,14.015,-130.137
1.840,-0.074,-0.283,0.885,17.313,13.557,-129.802
1.850,-0.058,-0.278,0.882,16.977,13.511,-130.122
1.850,-0.050,-0.283,0.881,17.664,14.153,-130.519
1.860,-0.053,-0.281,0.900,18.305,14.153,-130.840
1.860,-0.052,-0.280,0.883,19.099,14.947,-131.359
1.870,-0.055,-0.270,0.875,19.817,15.221,-131.863
1.870,-0.066,-0.271,0.851,20.382,13.740,-132.763
1.870,-0.067,-0.275,0.848,19.817,11.740,-134.107
1.880,-0.060,-0.278,0.845,19.420,10.397,-135.160
1.880,-0.059,-0.277,0.850,18.992,9.038,-136.626
1.890,-0.054,-0.274,0.845,18.321,7.511,-138.092
1.890,-0.055,-0.281,0.850,17.389,6.183,-139.618
1.900,-0.063,-0.285,0.854,16.565,4.443,-141.450
1.900,-0.073,-0.296,0.865,15.863,2.443,-142.595
1.900,-0.089,-0.300,0.870,15.145,1.313,-143.206
1.910,-0.097,-0.300,0.882,15.466,0.718,-143.542
1.910,-0.106,-0.304,0.903,15.985,0.336,-143.771
1.920,-0.112,-0.316,0.909,17.023,-0.595,-143.603
1.920,-0.120,-0.312,0.917,17.863,-1.115,-142.947
1.930,-0.120,-0.309,0.928,19.008,-0.382,-142.244
1.930,-0.120,-0.311,0.917,19.740,1.618,-141.389
1.930,-0.122,-0.305,0.902,20.534,4.092,-140.489
1.940,-0.128,-0.297,0.906,21.298,6.000,-139.527
1.940,-0.130,-0.294,0.905,22.168,7.939,-138.458
1.950,-0.146,-0.282,0.903,23.191,10.412,-136.855
1.950,-0.146,-0.278,0.883,23.481,13.237,-135.176
1.960,-0.147,-0.269,0.860,23.344,16.260,-133.481
1.960,-0.149,-0.263,0.837,23.313,18.473,-131.863
1.960,-0.146,-0.255,0.812,22.687,19.679,-130.290
1.970,-0.135,-0.241,0.781,21.298,20.641,-129.145
1.970,-0.131,-0.227,0.759,19.542,21.481,-128.733
1.980,-0.124,-0.221,0.751,17.634,21.557,-128.489
1.980,-0.120,-0.221,0.756,15.634,22.214,-128.229
1.990,-0.110,-0.217,0.752,14.366,23.084,-127.649
1.990,-0.111,-0.223,0.741,13.160,25.145,-126.916
1.990,-0.100,-0.210,0.737,11.664,27.191,-126.931
2.000,-0.101,-0.217,0.724,9.939,26.672,-127.542
2.000,-0.109,-0.217,0.729,8.260,24.962,-128.977
2.010,-0.112,-0.227,0.749,6.656,22.550,-130.168
2.010,-0.125,-0.229,0.757,6.137,19.939,-131.878
2.020,-0.107,-0.228,0.788,5.786,17.221,-133.924
2.020,-0.103,-0.230,0.786,5.481,14.901,-136.550
2.020,-0.090,-0.231,0.785,4.672,13.466,-139.573
2.030,-0.099,-0.219,0.778,4.000,11.374,-142.595
2.030,-0.109,-0.227,0.785,3.115,9.481,-145.649
2.040,-0.120,-0.217,0.801,3.679,8.550,-147.863
2.040,-0.121,-0.216,0.798,3.695,6.000,-150.244
2.050,-0.137,-0.213,0.817,3.527,3.817,-152.137
2.050,-0.145,-0.208,0.815,4.504,3.313,-153.450
2.050,-0.156,-0.203,0.822,5.573,2.992,-153.695
2.060,-0.177,-0.200,0.819,6.427,2.412,-153.252
2.060,-0.182,-0.198,0.830,7.008,3.267,-152.153
2.070,-0.172,-0.192,0.834,7.695,5.053,-151.099
2.070,-0.180,-0.201,0.826,8.641,6.595,-149.786
2.070,-0.197,-0.181,0.839,8.718,7.191,-148.275
2.080,-0.219,-0.183,0.829,8.931,8.672,-145.863
2.080,-0.235,-0.181,0.810,9.710,11.237,-142.580
2.090,-0.259,-0.187,0.822,10.229,14.351,-138.733
2.090,-0.276,-0.177,0.812,10.382,16.718,-134.733
2.100,-0.283,-0.167,0.788,10.702,18.611,-131.008
2.100,-0.287,-0.158,0.766,10.290,18.092,-127.908
2.100,-0.296,-0.148,0.734,8.244,15.664,-125.466
2.110,-0.281,-0.139,0.723,6.107,15.069,-123.939
2.110,-0.263,-0.138,0.684,3.649,15.038,-123.115
2.120,-0.254,-0.140,0.674,-0.290,13.466,-122.977
2.120,-0.260,-0.130,0.684,-3.267,12.198,-123.221
2.130,-0.250,-0.127,0.696,-5.786,11.771,-123.618
2.130,-0.247,-0.129,0.718,-8.443,11.542,-124.351
2.130,-0.246,-0.128,0.730,-9.603,10.931,-124.718
2.140,-0.256,-0.135,0.752,-10.473,7.847,-125.847
2.140,-0.262,-0.126,0.744,-11.389,4.718,-126.870
2.150,-0.273,-0.126,0.762,-11.939,2.824,-127.282
2.150,-0.278,-0.127,0.760,-12.122,0.855,-127.160
2.160,-0.300,-0.129,0.780,-11.527,-1.496,-126.366
2.160,-0.318,-0.127,0.786,-11.115,-3.878,-124.321
2.160,-0.334,-0.128,0.797,-10.962,-5.023,-121.008
2.170,-0.348,-0.130,0.815,-9.527,-3.725,-116.504
2.170,-0.356,-0.125,0.840,-8.000,-0.947,-111.206
2.180,-0.351,-0.124,0.826,-6.458,3.634,-105.435
2.180,-0.335,-0.120,0.811,-5.939,8.977,-100.061
2.190,-0.320,-0.116,0.784,-5.954,14.351,-95.252
2.190,-0.305,-0.127,0.764,-7.099,19.511,-90.626
2.190,-0.307,-0.133,0.745,-8.687,24.382,-87.328
2.200,-0.299,-0.157,0.723,-10.061,26.626,-85.832
2.200,-0.299,-0.175,0.702,-12.275,25.511,-85.786
2.210,-0.310,-0.182,0.708,-17.115,22.305,-85.420
2.210,-0.331,-0.212,0.707,-20.489,20.168,-84.656
2.220,-0.340,-0.229,0.736,-23.573,17.282,-83.786
2.220,-0.349,-0.250,0.769,-26.397,12.137,-83.450
2.230,-0.344,-0.270,0.802,-28.885,7.649,-82.901
2.230,-0.335,-0.288,0.846,-30.061,5.221,-82.687
2.230,-0.319,-0.300,0.886,-29.481,3.832,-81.740
2.240,-0.317,-0.312,0.903,-28.733,2.947,-80.565
2.240,-0.315,-0.308,0.917,-28.092,2.092,-79.328
2.250,-0.297,-0.313,0.935,-27.267,3.237,-77.344
2.250,-0.296,-0.314,0.952,-25.664,5.710,-74.443
2.260,-0.290,-0.312,0.974,-23.817,9.298,-70.992
2.260,-0.276,-0.292,1.008,-21.374,12.214,-63.908
2.260,-0.268,-0.303,1.005,-19.023,19.298,-61.740
2.270,-0.288,-0.305,0.991,-17.298,25.221,-56.870
2.270,-0.273,-0.284,0.988,-15.649,29.634,-52.168
2.280,-0.250,-0.280,0.986,-14.122,34.901,-47.542
2.280,-0.225,-0.274,0.985,-12.046,40.321,-43.710
2.290,-0.205,-0.267,0.964,-10.351,45.771,-40.641
2.290,-0.190,-0.268,0.957,-9.756,50.168,-38.107
2.290,-0.187,-0.264,0.933,-9.359,52.977,-36.962
2.300,-0.190,-0.267,0.913,-8.840,53.435,-36.168
2.300,-0.197,-0.276,0.903,-9.679,51.725,-35.878
2.310,-0.197,-0.264,0.913,-11.374,50.779,-35.557
2.310,-0.200,-0.268,0.922,-11.786,49.084,-35.649
2.320,-0.210,-0.269,0.944,-11.374,46.260,-35.817
2.320,-0.217,-0.273,0.953,-10.519,43.969,-35.664
2.320,-0.227,-0.269,0.950,-9.893,41.832,-35.359
2.330,-0.233,-0.260,0.957,-9.023,39.939,-34.947
2.330,-0.245,-0.260,0.956,-7.328,37.130,-34.824
2.340,-0.244,-0.257,0.960,-6.061,34.473,-34.870
2.340,-0.245,-0.239,0.948,-4.947,33.053,-34.947
2.350,-0.248,-0.239,0.950,-3.298,32.473,-34.580
2.350,-0.250,-0.227,0.962,-0.809,31.435,-34.931
2.350,-0.276,-0.211,0.944,1.084,29.252,-35.084
2.360,-0.285,-0.194,0.911,1.771,26.565,-35.145
2.360,-0.292,-0.184,0.887,2.000,23.756,-35.206
2.370,-0.306,-0.168,0.888,2.947,21.053,-35.496
2.370,-0.321,-0.161,0.886,4.305,18.244,-35.802
2.370,-0.339,-0.148,0.884,5.130,15.695,-35.542
2.380,-0.353,-0.123,0.863,5.344,13.908,-34.962
2.380,-0.367,-0.111,0.855,5.374,12.336,-34.198
2.390,-0.382,-0.095,0.841,5.008,10.473,-33.786
2.390,-0.404,-0.092,0.829,4.229,7.985,-33.344
2.400,-0.408,-0.096,0.841,3.603,6.015,-32.748
2.400,-0.420,-0.109,0.852,3.863,4.809,-31.939
2.400,-0.427,-0.124,0.877,4.733,3.969,-30.855
2.410,-0.432,-0.141,0.875,5.954,3.420,-29.557
2.410,-0.449,-0.142,0.874,6.504,2.748,-28.458
2.420,-0.452,-0.147,0.887,6.687,2.412,-26.870
2.420,-0.457,-0.161,0.877,7.374,2.275,-25.740
2.420,-0.471,-0.170,0.889,7.893,1.206,-24.351
2.430,-0.481,-0.179,0.873,8.031,-0.779,-23.069
2.430,-0.496,-0.190,0.879,8.244,-2.656,-21.053
2.440,-0.511,-0.194,0.881,8.260,-4.427,-18.611
2.440,-0.506,-0.199,0.892,8.000,-4.962,-16.122
2.440,-0.514,-0.206,0.888,8.229,-5.405,-13.359
2.450,-0.510,-0.207,0.885,8.718,-5.985,-10.031
2.450,-0.524,-0.208,0.889,9.374,-6.489,-6.702
2.460,-0.507,-0.211,0.884,10.092,-7.069,-3.191
2.460,-0.500,-0.206,0.887,10.565,-7.298,-0.137
2.470,-0.484,-0.206,0.872,11.069,-6.550,3.328
2.470,-0.462,-0.206,0.865,11.527,-4.885,6.351
2.470,-0.454,-0.207,0.854,12.198,-3.282,9.328
2.480,-0.435,-0.198,0.842,12.840,-1.252,12.351
2.480,-0.424,-0.191,0.825,12.229,0.137,15.237
2.490,-0.420,-0.177,0.815,11.893,0.290,17.893
2.490,-0.409,-0.177,0.790,11.466,0.656,20.336
2.490,-0.396,-0.172,0.778,10.565,0.794,22.336
2.500,-0.379,-0.170,0.767,9.511,0.412,24.519
2.500,-0.367,-0.157,0.755,8.305,-0.183,25.908
2.510,-0.352,-0.156,0.751,7.115,-0.382,27.863
2.510,-0.335,-0.152,0.746,6.229,0.244,29.344
2.510,-0.330,-0.150,0.752,5.374,0.198,30.443
2.520,-0.322,-0.145,0.736,4.412,-0.183,31.160
2.520,-0.315,-0.145,0.737,3.679,-1.466,31.786
2.530,-0.302,-0.142,0.742,2.534,-2.901,32.260
2.530,-0.297,-0.143,0.744,1.893,-4.076,32.336
2.530,-0.288,-0.151,0.757,1.573,-5.084,32.611
2.540,-0.278,-0.143,0.771,1.328,-5.771,32.718
2.540,-0.275,-0.142,0.751,1.191,-6.504,32.763
2.550,-0.271,-0.145,0.757,0.733,-8.122,32.290
2.550,-0.275,-0.150,0.769,0.794,-9.145,32.198
2.560,-0.282,-0.155,0.759,0.824,-10.351,32.183
2.560,-0.279,-0.148,0.760,0.763,-11.634,32.183
2.560,-0.280,-0.146,0.751,0.794,-12.473,32.519
2.570,-0.292,-0.150,0.748,0.489,-13.618,32.840
2.570,-0.305,-0.153,0.751,0.122,-14.763,33.557
2.580,-0.298,-0.151,0.760,-0.412,-16.031,34.550
2.580,-0.294,-0.154,0.758,-0.947,-16.275,35.939
2.580,-0.290,-0.160,0.757,-1.435,-15.557,37.145
2.590,-0.288,-0.162,0.762,-1.969,-14.855,38.397
2.590,-0.292,-0.162,0.767,-2.977,-15.130,39.466
2.600,-0.287,-0.165,0.765,-4.076,-15.588,40.580
2.600,-0.285,-0.167,0.797,-4.748,-14.794,42.061
2.610,-0.284,-0.170,0.802,-5.221,-13.160,43.725
2.610,-0.274,-0.172,0.818,-5.527,-11.145,45.298
2.610,-0.270,-0.171,0.807,-5.573,-9.664,46.626
2.620,-0.271,-0.165,0.820,-5.847,-8.931,47.664
2.620,-0.280,-0.167,0.818,-6.275,-8.702,48.336
2.630,-0.286,-0.168,0.826,-6.336,-8.565,49.313
2.630,-0.291,-0.171,0.850,-5.679,-8.656,50.397
2.630,-0.295,-0.163,0.840,-4.641,-8.275,51.939
2.640,-0.297,-0.163,0.833,-4.840,-7.969,53.771
2.640,-0.282,-0.170,0.834,-5.115,-7.405,55.557
2.650,-0.270,-0.173,0.829,-5.435,-6.519,56.870
2.650,-0.255,-0.175,0.829,-5.679,-4.824,58.183
2.660,-0.247,-0.175,0.834,-6.229,-3.160,59.466
2.660,-0.255,-0.176,0.840,-7.069,-1.282,61.038
2.660,-0.258,-0.177,0.858,-6.763,1.527,62.718
2.670,-0.250,-0.192,0.855,-6.397,4.015,63.924
2.670,-0.250,-0.190,0.851,-6.626,5.176,64.656
2.680,-0.256,-0.193,0.863,-7.252,5.740,65.557
2.680,-0.249,-0.187,0.866,-7.145,6.244,66.107
2.680,-0.255,-0.193,0.895,-6.534,6.901,66.687
2.690,-0.252,-0.184,0.894,-6.244,6.260,67.191
2.690,-0.258,-0.192,0.889,-5.664,6.122,67.374
2.700,-0.262,-0.188,0.886,-5.038,6.611,67.679
2.700,-0.265,-0.187,0.895,-4.046,6.015,68.061
2.700,-0.269,-0.187,0.904,-3.588,3.710,67.389
2.710,-0.274,-0.183,0.894,-2.550,0.580,66.672
2.710,-0.282,-0.169,0.886,-1.863,-1.634,66.305
2.720,-0.287,-0.167,0.875,-1.618,-3.145,66.229
2.720,-0.284,-0.160,0.883,-0.290,-4.595,65.939
2.730,-0.300,-0.157,0.879,0.855,-6.382,65.450
2.730,-0.316,-0.151,0.861,1.679,-7.908,65.344
2.730,-0.324,-0.146,0.840,2.061,-9.389,65.328
2.740,-0.344,-0.139,0.834,2.473,-10.550,65.466
2.740,-0.356,-0.139,0.814,2.809,-11.817,66.107
2.750,-0.382,-0.126,0.782,2.687,-13.145,67.053
2.750,-0.400,-0.123,0.756,2.137,-15.237,68.382
2.750,-0.406,-0.112,0.740,0.779,-17.634,69.542
2.760,-0.417,-0.115,0.718,-1.008,-19.634,71.359
2.760,-0.414,-0.118,0.719,-3.282,-21.008,73.145
2.770,-0.416,-0.125,0.729,-5.405,-21.893,75.160
2.770,-0.404,-0.136,0.732,-7.038,-22.031,77.344
2.780,-0.419,-0.136,0.722,-8.977,-22.214,79.878
2.780,-0.428,-0.134,0.707,-11.435,-23.420,82.809
2.780,-0.427,-0.145,0.720,-15.267,-24.687,86.351
2.790,-0.406,-0.150,0.734,-18.092,-24.382,89.847
2.790,-0.379,-0.167,0.773,-20.061,-22.855,93.069
2.800,-0.373,-0.174,0.808,-20.992,-21.618,96.275
2.800,-0.368,-0.178,0.821,-21.557,-20.260,98.840
2.810,-0.360,-0.181,0.833,-21.542,-18.656,103.130
2.810,-0.337,-0.192,0.870,-21.252,-16.931,106.122
2.810,-0.321,-0.197,0.883,-20.336,-15.038,108.473
2.820,-0.298,-0.211,0.906,-18.611,-13.237,110.000
2.820,-0.288,-0.217,0.903,-15.908,-11.145,110.885
2.830,-0.283,-0.222,0.896,-14.183,-10.168,111.664
2.830,-0.285,-0.216,0.882,-13.038,-10.702,111.802
2.840,-0.289,-0.218,0.876,-11.664,-12.519,111.725
2.840,-0.298,-0.218,0.858,-11.252,-15.282,111.313
2.850,-0.310,-0.214,0.851,-10.611,-17.557,111.496
2.850,-0.303,-0.212,0.843,-10.397,-19.481,111.893
2.850,-0.303,-0.196,0.824,-10.702,-21.008,112.336
2.860,-0.301,-0.195,0.813,-11.786,-22.580,112.977
2.860,-0.292,-0.193,0.792,-12.534,-23.282,114.031
2.870,-0.294,-0.186,0.789,-13.328,-24.183,115.191
2.870,-0.288,-0.184,0.787,-14.382,-24.626,116.412
2.880,-0.283,-0.190,0.778,-15.771,-25.542,117.496
2.880,-0.293,-0.187,0.781,-16.931,-26.107,118.718
2.890,-0.280,-0.193,0.783,-17.863,-25.985,120.458
2.890,-0.278,-0.196,0.784,-18.611,-25.176,122.244
2.890,-0.276,-0.194,0.794,-19.786,-24.290,124.015
2.900,-0.263,-0.204,0.801,-20.260,-22.794,125.786
2.900,-0.248,-0.219,0.812,-21.527,-21.679,127.038
2.910,-0.239,-0.216,0.812,-22.290,-20.397,128.214
2.910,-0.231,-0.219,0.831,-22.046,-18.641,128.901
2.920,-0.229,-0.230,0.843,-21.298,-17.420,129.588
2.920,-0.240,-0.230,0.837,-20.992,-16.595,130.672
2.930,-0.236,-0.229,0.839,-20.977,-17.099,131.237
2.930,-0.223,-0.236,0.841,-21.084,-17.802,131.817
2.930,-0.229,-0.240,0.848,-20.885,-18.137,132.031
2.940,-0.230,-0.229,0.849,-20.229,-19.206,132.290
2.940,-0.237,-0.229,0.820,-20.275,-20.962,132.718
2.950,-0.239,-0.234,0.834,-20.519,-22.718,133.344
2.950,-0.226,-0.235,0.841,-19.863,-22.901,133.817
2.960,-0.224,-0.246,0.852,-19.069,-22.733,134.550
2.960,-0.225,-0.250,0.850,-18.412,-23.038,135.313
2.970,-0.226,-0.262,0.832,-17.863,-23.725,135.710
2.970,-0.228,-0.257,0.827,-17.588,-24.137,136.397
2.970,-0.224,-0.264,0.819,-17.008,-24.947,137.420
2.980,-0.232,-0.266,0.826,-17.099,-25.924,138.901
2.980,-0.218,-0.272,0.820,-17.313,-25.802,140.580
2.990,-0.209,-0.275,0.814,-17.847,-25.389,142.214
2.990,-0.193,-0.284,0.803,-19.023,-25.511,143.328
3.000,-0.179,-0.290,0.804,-19.969,-25.481,144.351
3.000,-0.172,-0.296,0.806,-20.489,-25.481,144.809
3.010,-0.159,-0.302,0.818,-21.328,-24.962,145.008
3.010,-0.145,-0.303,0.830,-21.435,-23.374,145.298
3.010,-0.143,-0.311,0.828,-21.191,-21.695,145.267
3.020,-0.145,-0.300,0.837,-21.328,-20.565,145.389
3.020,-0.153,-0.303,0.822,-21.771,-20.443,144.947
3.030,-0.164,-0.300,0.823,-21.771,-21.069,144.962
3.030,-0.172,-0.303,0.828,-21.603,-22.275,144.763
3.040,-0.178,-0.304,0.818,-21.695,-24.015,144.260
3.040,-0.188,-0.305,0.793,-22.076,-26.840,143.985
3.040,-0.185,-0.310,0.789,-23.130,-29.924,143.740
3.050,-0.196,-0.326,0.806,-23.237,-32.885,144.931
3.050,-0.182,-0.336,0.805,-24.061,-34.000,147.557
3.060,-0.150,-0.347,0.838,-24.702,-33.160,150.763
3.060,-0.111,-0.359,0.848,-24.962,-29.481,154.153
3.070,-0.081,-0.375,0.878,-25.511,-26.061,157.389
3.070,-0.039,-0.378,0.897,-25.786,-21.435,159.832
3.080,0.010,-0.384,0.926,-25.802,-15.069,161.908
3.080,0.035,-0.383,0.948,-25.160,-8.733,163.115
3.080,0.062,-0.384,0.969,-24.122,-2.229,163.496
3.090,0.075,-0.377,0.976,-22.244,2.214,162.611
3.090,0.085,-0.375,0.967,-21.527,4.702,160.550
3.100,0.084,-0.369,0.975,-20.183,5.954,157.634
3.100,0.081,-0.371,0.977,-17.282,6.107,153.924
3.110,0.077,-0.357,0.987,-14.962,4.687,149.344
3.110,0.047,-0.352,0.955,-12.595,1.634,144.626
3.110,0.021,-0.348,0.937,-10.107,-3.313,139.679
3.120,-0.022,-0.347,0.913,-8.214,-9.954,134.718
3.120,-0.056,-0.340,0.888,-6.565,-18.000,130.122
3.130,-0.096,-0.340,0.869,-5.557,-26.122,126.351
3.130,-0.133,-0.338,0.838,-4.931,-34.183,123.618
3.140,-0.155,-0.343,0.825,-4.595,-41.634,122.840
3.140,-0.166,-0.339,0.813,-5.237,-47.298,123.710
3.140,-0.148,-0.344,0.795,-7.481,-50.260,125.252
3.150,-0.106,-0.341,0.805,-10.779,-50.427,127.573
3.150,-0.061,-0.350,0.823,-13.313,-47.725,129.527
3.160,-0.002,-0.350,0.862,-15.664,-41.618,131.252
3.160,0.023,-0.349,0.876,-17.603,-33.649,132.901
3.170,0.047,-0.344,0.892,-18.580,-24.458,135.145
3.170,0.052,-0.340,0.903,-19.053,-14.794,136.763
3.170,0.054,-0.335,0.921,-18.870,-6.702,138.061
3.180,0.050,-0.332,0.930,-17.985,-1.038,138.489
3.180,0.043,-0.323,0.920,-16.840,2.855,138.168
3.190,0.020,-0.315,0.931,-15.069,4.153,137.084
3.190,0.013,-0.310,0.918,-13.634,3.038,135.466
3.200,-0.013,-0.298,0.879,-12.382,-0.718,133.435
3.200,-0.036,-0.295,0.864,-11.099,-6.458,131.008
3.200,-0.040,-0.288,0.850,-10.473,-12.489,128.962
3.210,-0.046,-0.300,0.808,-10.015,-18.183,126.565
3.210,-0.057,-0.301,0.810,-9.542,-23.832,125.420
3.220,-0.053,-0.306,0.801,-9.756,-28.580,125.420
3.220,-0.034,-0.305,0.801,-11.328,-31.496,126.153
3.230,0.004,-0.314,0.799,-13.252,-32.443,127.374
3.230,0.039,-0.320,0.818,-15.634,-31.176,128.290
3.230,0.089,-0.330,0.839,-17.634,-28.015,129.237
3.240,0.124,-0.327,0.854,-19.435,-23.649,129.710
3.240,0.155,-0.326,0.861,-21.481,-18.214,129.969
3.250,0.176,-0.317,0.892,-23.069,-12.580,130.260
3.250,0.191,-0.327,0.917,-23.542,-7.145,129.710
3.260,0.200,-0.324,0.929,-23.771,-1.740,129.252
3.260,0.194,-0.325,0.930,-23.786,4.107,128.504
3.270,0.178,-0.322,0.946,-23.527,9.237,127.863
3.270,0.155,-0.318,0.946,-22.885,13.008,127.282
3.270,0.123,-0.319,0.944,-21.954,14.611,126.290
3.280,0.085,-0.314,0.940,-20.626,14.595,125.099
3.280,0.070,-0.303,0.925,-19.710,12.336,123.588
3.290,0.036,-0.294,0.918,-19.160,8.687,121.954
3.290,0.021,-0.297,0.917,-18.321,4.565,120.382
3.290,0.012,-0.300,0.919,-17.710,0.336,118.794
3.300,0.012,-0.299,0.900,-17.298,-3.466,117.176
3.300,0.027,-0.294,0.883,-18.305,-6.809,116.031
3.310,0.037,-0.303,0.882,-18.840,-10.031,114.626
3.310,0.042,-0.305,0.889,-19.618,-13.160,113.267
3.320,0.063,-0.305,0.903,-20.214,-14.901,111.802
3.320,0.069,-0.312,0.901,-20.153,-15.282,110.702
3.320,0.076,-0.299,0.903,-20.168,-14.092,109.908
3.330,0.091,-0.304,0.907,-20.718,-13.954,108.489
3.330,0.114,-0.294,0.917,-21.038,-14.260,106.000
3.340,0.138,-0.294,0.942,-20.076,-13.267,103.328
3.340,0.132,-0.284,0.944,-18.458,-12.382,100.687
3.350,0.113,-0.260,0.950,-16.351,-12.382,97.634
3.350,0.100,-0.260,0.944,-14.611,-12.519,95.710
3.350,0.095,-0.251,0.918,-12.733,-12.626,94.519
3.360,0.087,-0.239,0.896,-11.328,-14.305,91.710
3.360,0.085,-0.225,0.875,-10.397,-16.183,89.206
3.370,0.078,-0.228,0.869,-9.389,-18.015,87.206
3.370,0.079,-0.231,0.850,-8.534,-19.817,86.000
3.380,0.076,-0.232,0.841,-8.519,-20.718,84.947
3.380,0.088,-0.227,0.822,-9.603,-20.947,84.046
3.380,0.103,-0.225,0.807,-10.962,-20.809,83.008
3.390,0.121,-0.226,0.813,-12.901,-21.206,81.267
3.390,0.132,-0.232,0.828,-15.053,-21.618,79.847
3.400,0.151,-0.252,0.843,-16.534,-17.863,79.099
3.400,0.270,-0.215,0.849,-19.924,-5.344,80.168
3.410,0.192,-0.259,0.951,-15.832,-2.107,78.992
3.410,0.203,-0.281,0.980,-14.901,-3.191,76.702
3.410,0.140,-0.262,0.999,-16.626,-11.969,74.565
3.420,0.199,-0.254,0.986,-13.924,-4.611,74.595
3.420,0.183,-0.255,0.948,-9.237,-1.954,72.595
3.430,0.172,-0.241,0.938,-10.244,-12.244,68.321
3.430,0.219,-0.226,0.934,-11.069,-18.550,63.893
3.430,0.273,-0.225,0.978,-8.733,-15.221,59.985
3.440,0.254,-0.228,1.013,-3.924,-9.389,56.977
3.440,0.218,-0.215,1.001,0.489,-7.679,53.939
3.450,0.174,-0.205,0.952,2.122,-10.580,50.931
3.450,0.145,-0.181,0.903,1.710,-13.053,48.565
3.460,0.135,-0.177,0.892,2.260,-13.527,46.809
3.460,0.125,-0.184,0.893,3.557,-14.076,45.206
3.460,0.114,-0.183,0.886,4.947,-15.466,43.863
3.470,0.115,-0.177,0.854,4.504,-17.527,42.931
3.470,0.139,-0.167,0.823,1.771,-17.221,42.534
3.480,0.139,-0.175,0.803,0.458,-17.450,41.771
3.480,0.159,-0.173,0.795,-2.687,-16.809,41.435
3.480,0.166,-0.169,0.819,-5.924,-15.802,41.069
3.490,0.193,-0.172,0.827,-8.046,-11.878,40.763
3.490,0.220,-0.179,0.855,-8.885,-7.542,39.863
3.500,0.219,-0.176,0.894,-9.176,-5.420,38.763
3.500,0.226,-0.180,0.907,-9.130,-3.176,37.725
3.500,0.221,-0.174,0.911,-8.962,-0.489,36.473
3.510,0.217,-0.177,0.932,-8.458,1.435,35.115
3.510,0.209,-0.176,0.933,-7.313,2.031,33.481
3.520,0.208,-0.178,0.943,-5.802,1.786,31.405
3.520,0.205,-0.177,0.942,-4.702,1.344,28.794
3.520,0.201,-0.165,0.938,-3.679,1.099,26.229
3.530,0.189,-0.164,0.939,-2.427,0.595,23.756
3.530,0.172,-0.156,0.933,-0.870,-0.733,21.221
3.540,0.157,-0.152,0.923,-0.092,-3.282,18.550
3.540,0.149,-0.150,0.899,0.229,-5.847,15.466
3.540,0.145,-0.152,0.892,0.504,-8.611,12.550
3.550,0.132,-0.145,0.875,0.733,-11.099,9.634
3.550,0.122,-0.146,0.871,0.931,-12.580,7.450
3.560,0.104,-0.151,0.864,1.099,-13.740,5.863
3.560,0.087,-0.142,0.870,0.763,-14.397,4.336
3.560,0.092,-0.147,0.873,0.305,-14.076,3.588
3.570,0.077,-0.150,0.871,0.137,-12.809,2.901
3.570,0.066,-0.152,0.871,0.076,-11.450,2.931
3.580,0.054,-0.152,0.874,-0.229,-9.634,3.191
3.580,0.043,-0.156,0.879,-0.718,-7.817,4.107
3.580,0.035,-0.150,0.874,-1.359,-5.878,5.191
3.590,0.037,-0.152,0.871,-1.969,-3.695,6.275
3.590,0.035,-0.161,0.889,-2.519,-1.389,7.328
3.600,0.040,-0.161,0.884,-3.405,0.702,8.061
3.600,0.036,-0.160,0.891,-3.359,2.641,8.916
3.600,0.034,-0.167,0.893,-3.588,4.244,9.527
3.610,0.038,-0.160,0.891,-4.183,5.328,9.725
3.610,0.041,-0.162,0.908,-4.534,6.275,9.847
3.620,0.045,-0.167,0.911,-4.443,6.702,9.420
3.620,0.045,-0.162,0.916,-4.351,6.916,8.916
3.620,0.038,-0.160,0.922,-3.924,6.443,8.290
3.630,0.036,-0.155,0.915,-3.786,5.740,7.405
3.630,0.037,-0.151,0.912,-3.679,4.916,6.183
3.640,0.029,-0.154,0.917,-3.191,3.985,5.145
3.640,0.027,-0.147,0.928,-2.260,3.374,4.092
3.640,0.014,-0.142,0.919,-1.847,2.824,2.626
3.650,0.010,-0.135,0.905,-1.527,2.366,1.939
3.650,-0.003,-0.138,0.906,-1.191,1.634,0.824
3.660,-0.007,-0.139,0.910,-0.565,0.382,0.076
3.660,-0.011,-0.145,0.905,-0.260,-0.412,-0.641
3.660,-0.018,-0.147,0.913,0.336,-0.855,-1.206
3.670,-0.019,-0.140,0.912,1.053,-1.252,-1.160
3.670,-0.030,-0.145,0.913,0.916,-1.130,-0.992
3.680,-0.024,-0.142,0.905,1.359,-0.840,-0.947
3.680,-0.035,-0.147,0.904,1.405,-0.443,-0.351
3.680,-0.031,-0.141,0.886,0.931,-0.748,-0.092
3.690,-0.030,-0.135,0.900,0.794,0.137,0.458
3.690,-0.023,-0.133,0.883,0.702,0.962,0.702
3.700,-0.026,-0.130,0.879,0.672,1.191,0.565
3.700,-0.022,-0.129,0.880,0.183,0.824,0.641
3.700,-0.036,-0.117,0.872,-0.718,0.733,0.580
3.710,-0.031,-0.115,0.873,-0.977,1.374,0.595
3.710,-0.027,-0.112,0.891,-0.427,2.580,0.687
3.720,-0.027,-0.114,0.885,-0.122,3.450,0.611
3.720,-0.022,-0.110,0.885,-0.046,4.214,0.412
3.720,-0.021,-0.108,0.881,0.092,5.679,0.305
3.730,-0.027,-0.110,0.886,0.489,6.779,0.290
3.730,-0.046,-0.109,0.885,0.611,7.924,0.718
3.740,-0.053,-0.110,0.882,1.282,8.473,1.069
3.740,-0.057,-0.110,0.890,1.359,8.641,1.756
3.740,-0.052,-0.111,0.880,1.878,8.702,2.031
3.750,-0.063,-0.115,0.872,1.832,8.198,2.137
3.750,-0.061,-0.105,0.871,1.939,7.237,2.366
3.750,-0.068,-0.111,0.875,1.908,6.153,2.550
3.760,-0.062,-0.110,0.862,1.817,4.947,2.718
3.760,-0.055,-0.106,0.865,1.481,3.924,2.794
3.770,-0.050,-0.108,0.866,1.237,3.374,2.870
3.770,-0.046,-0.109,0.866,1.160,2.489,2.840
3.770,-0.048,-0.108,0.863,0.947,2.168,3.145
3.780,-0.048,-0.107,0.871,0.641,2.168,3.435
3.780,-0.036,-0.107,0.861,0.244,2.580,3.664
3.790,-0.028,-0.103,0.865,-0.061,3.252,4.031
3.790,-0.028,-0.101,0.879,-0.321,4.122,4.275
3.790,-0.029,-0.095,0.871,-0.504,4.931,4.412
3.800,-0.027,-0.093,0.878,-0.977,5.252,4.305
3.800,-0.034,-0.095,0.870,-1.191,5.359,4.168
3.810,-0.041,-0.092,0.848,-1.695,4.611,4.214
3.810,-0.039,-0.086,0.845,-3.130,2.580,3.817
3.810,-0.034,-0.091,0.852,-4.397,1.038,3.084
3.820,-0.020,-0.090,0.871,-4.595,0.718,2.443
3.820,-0.029,-0.097,0.887,-4.168,0.534,2.137
3.830,-0.035,-0.104,0.879,-3.756,0.504,1.725
3.830,-0.047,-0.101,0.871,-3.542,-0.611,1.481
3.830,-0.053,-0.104,0.871,-4.137,-2.366,0.977
3.840,-0.044,-0.108,0.882,-4.260,-3.695,0.885
3.840,-0.044,-0.107,0.899,-3.389,-3.863,0.947
3.850,-0.042,-0.110,0.904,-2.611,-3.313,1.023
3.850,-0.045,-0.119,0.898,-2.397,-2.702,1.206
3.850,-0.046,-0.115,0.894,-2.229,-2.305,1.298
3.860,-0.048,-0.116,0.880,-2.214,-2.489,1.710
3.860,-0.057,-0.122,0.893,-2.260,-2.321,1.985
3.870,-0.056,-0.121,0.887,-2.305,-2.702,2.305
3.870,-0.042,-0.124,0.886,-3.023,-2.504,2.855
3.870,-0.036,-0.122,0.899,-3.145,-1.695,3.298
3.880,-0.032,-0.123,0.901,-2.779,-0.443,3.588
3.880,-0.031,-0.126,0.907,-2.565,0.626,4.046
3.890,-0.032,-0.123,0.901,-2.534,1.313,4.122
3.890,-0.021,-0.125,0.903,-2.733,2.031,4.244
3.890,-0.021,-0.124,0.906,-2.626,2.763,4.137
3.900,-0.021,-0.123,0.905,-2.305,2.489,3.893
3.900,-0.022,-0.120,0.911,-2.229,2.519,3.664
3.910,-0.032,-0.122,0.918,-1.817,2.443,3.450
3.910,-0.037,-0.129,0.907,-1.084,1.802,2.870
3.910,-0.050,-0.122,0.889,-0.794,0.427,2.718
3.920,-0.043,-0.114,0.894,-1.466,-0.901,2.351
3.920,-0.031,-0.117,0.901,-1.588,-1.496,1.664
3.930,-0.030,-0.118,0.906,-0.809,-1.924,1.344
3.930,-0.033,-0.124,0.914,0.046,-1.206,1.008
3.930,-0.037,-0.118,0.901,0.458,-0.443,1.115
3.940,-0.040,-0.113,0.883,0.534,0.275,1.328
3.940,-0.049,-0.116,0.877,0.229,0.351,1.176
3.950,-0.048,-0.117,0.885,0.046,0.397,1.405
3.950,-0.046,-0.121,0.883,0.076,0.397,1.603
3.950,-0.048,-0.122,0.894,-0.397,0.626,1.771
3.960,-0.047,-0.120,0.888,-0.214,1.328,2.000
3.960,-0.050,-0.127,0.882,0.198,1.634,2.260
3.970,-0.057,-0.115,0.865,-0.489,0.489,2.382
3.970,-0.061,-0.105,0.850,-1.603,-1.145,2.275
3.970,-0.046,-0.106,0.852,-2.351,-1.802,2.443
3.980,-0.034,-0.118,0.871,-1.908,-1.191,2.519
3.980,-0.039,-0.131,0.888,-1.664,-0.214,2.672
3.990,-0.037,-0.129,0.879,-1.359,0.458,2.733
3.990,-0.029,-0.127,0.868,-1.573,0.687,2.595
3.990,-0.027,-0.127,0.864,-1.939,0.061,2.031
4.000,-0.034,-0.128,0.868,-2.290,-0.748,1.573
4.000,-0.042,-0.134,0.883,-2.412,-1.053,1.740
4.010,-0.035,-0.130,0.897,-2.351,-0.931,1.618
4.010,-0.031,-0.136,0.892,-2.336,-0.366,1.634
4.020,-0.029,-0.130,0.905,-1.756,-0.244,1.481
4.020,-0.021,-0.131,0.908,-1.725,0.351,1.420
4.020,-0.026,-0.130,0.895,-1.481,0.672,1.160
4.030,-0.026,-0.121,0.895,-1.206,0.901,1.038
4.030,-0.029,-0.120,0.895,-1.008,0.947,0.824
4.040,-0.028,-0.125,0.889,-0.672,1.206,0.779
4.040,-0.026,-0.120,0.883,-0.519,1.802,0.672
4.040,-0.032,-0.116,0.880,-0.580,1.985,0.855
4.050,-0.044,-0.115,0.869,-0.794,1.954,1.206
4.050,-0.048,-0.109,0.872,-1.160,1.359,1.435
4.060,-0.038,-0.111,0.853,-1.740,1.267,1.756
4.060,-0.023,-0.110,0.865,-2.214,2.122,1.542
4.060,-0.022,-0.112,0.872,-2.305,2.534,1.237
4.070,-0.029,-0.110,0.871,-2.550,3.023,0.962
4.070,-0.027,-0.115,0.864,-3.008,3.344,0.718
4.070,-0.028,-0.119,0.865,-3.435,3.008,0.321
4.080,-0.042,-0.120,0.872,-3.481,1.802,-0.275
4.080,-0.047,-0.114,0.865,-3.756,0.321,-0.458
4.090,-0.048,-0.121,0.876,-3.832,-0.580,-0.718
4.090,-0.053,-0.126,0.879,-3.954,-0.870,-0.931
4.100,-0.040,-0.124,0.896,-3.771,-0.885,-0.916
4.100,-0.042,-0.129,0.896,-3.588,-0.947,-1.084
4.100,-0.039,-0.133,0.891,-3.267,-1.145,-1.557
4.110,-0.045,-0.124,0.897,-3.466,-1.588,-1.542
4.110,-0.052,-0.132,0.905,-3.435,-1.588,-1.573
4.120,-0.047,-0.137,0.912,-2.931,-1.511,-1.206
4.120,-0.040,-0.138,0.912,-2.275,-1.130,-1.023
