Time,acce_x,acce_y,acce_z,gyro_x,gyro_y,gyro_z
0.000,-0.038,-0.156,0.888,0.656,1.466,0.443
0.000,-0.043,-0.154,0.879,0.855,1.603,0.351
0.010,-0.038,-0.152,0.882,0.916,2.061,0.641
0.010,-0.043,-0.149,0.880,1.053,2.626,0.748
0.010,-0.048,-0.149,0.878,1.053,2.977,0.794
0.020,-0.056,-0.151,0.872,0.916,2.656,0.824
0.020,-0.050,-0.145,0.865,0.473,2.061,0.779
0.020,-0.049,-0.142,0.869,-0.076,1.496,0.687
0.030,-0.043,-0.141,0.875,-0.336,1.725,0.656
0.030,-0.047,-0.138,0.885,-0.305,1.893,0.473
0.030,-0.040,-0.148,0.885,-0.183,1.878,0.198
0.040,-0.048,-0.139,0.874,-0.244,1.802,-0.198
0.040,-0.054,-0.138,0.851,-0.489,0.794,-0.336
0.040,-0.055,-0.138,0.848,-0.947,-0.046,-0.534
0.050,-0.059,-0.137,0.848,-1.573,-1.069,-0.687
0.050,-0.064,-0.138,0.867,-1.802,-1.847,-0.656
0.060,-0.065,-0.146,0.865,-1.908,-1.802,-0.427
0.060,-0.066,-0.140,0.867,-1.832,-1.298,0.076
0.060,-0.065,-0.139,0.854,-1.634,-0.824,0.641
0.070,-0.074,-0.137,0.848,-2.168,-1.176,0.718
0.070,-0.073,-0.138,0.856,-2.687,-2.076,1.221
0.080,-0.066,-0.140,0.856,-2.931,-3.145,1.130
0.080,-0.056,-0.139,0.872,-3.053,-2.519,1.298
0.080,-0.049,-0.146,0.884,-3.053,-1.527,1.832
0.090,-0.052,-0.152,0.869,-2.855,-0.595,2.061
0.090,-0.047,-0.147,0.871,-2.962,-0.153,2.366
0.100,-0.050,-0.146,0.867,-3.130,0.366,2.427
0.100,-0.042,-0.144,0.875,-3.527,-0.183,2.366
0.100,-0.040,-0.140,0.867,-4.305,-0.382,2.336
0.110,-0.031,-0.141,0.880,-4.305,-0.046,2.336
0.110,-0.022,-0.156,0.899,-3.710,1.160,2.351
0.120,-0.017,-0.155,0.899,-3.435,1.679,2.046
0.120,-0.016,-0.151,0.899,-3.130,1.954,1.649
0.120,-0.018,-0.150,0.880,-2.977,1.908,1.069
0.130,-0.018,-0.146,0.887,-2.733,1.588,0.458
0.130,-0.023,-0.146,0.892,-2.550,1.099,-0.061
0.140,-0.024,-0.142,0.890,-2.534,0.458,-0.290
0.140,-0.025,-0.153,0.898,-2.076,0.504,-0.321
0.140,-0.024,-0.144,0.904,-1.542,1.252,-0.336
0.150,-0.034,-0.143,0.903,-1.206,1.603,-0.427
0.150,-0.034,-0.144,0.903,-1.282,1.740,-0.611
0.160,-0.047,-0.144,0.883,-1.221,1.450,-0.580
0.160,-0.054,-0.147,0.875,-1.573,0.473,-0.763
0.170,-0.054,-0.140,0.886,-1.939,-0.626,-0.779
0.170,-0.048,-0.149,0.889,-1.908,-1.328,-1.160
0.170,-0.048,-0.143,0.891,-1.924,-1.252,-1.008
0.180,-0.049,-0.154,0.881,-2.351,-0.443,-0.870
0.180,-0.050,-0.155,0.882,-2.092,-0.168,-0.626
0.190,-0.052,-0.159,0.896,-2.122,-0.718,-0.901
0.190,-0.051,-0.157,0.900,-1.985,-1.053,-0.840
0.190,-0.056,-0.160,0.893,-2.046,-0.626,-0.580
0.200,-0.070,-0.160,0.896,-1.618,-1.267,-0.580
0.200,-0.074,-0.160,0.889,-1.191,-2.351,-0.504
0.210,-0.064,-0.163,0.886,-1.817,-4.198,-0.733
0.210,-0.054,-0.158,0.889,-2.076,-4.870,-0.840
0.220,-0.047,-0.161,0.904,-2.183,-3.939,-0.947
0.220,-0.038,-0.158,0.918,-1.435,-2.916,-0.718
0.220,-0.040,-0.164,0.911,-0.519,-1.664,-0.473
0.230,-0.042,-0.158,0.891,-0.244,-1.328,-0.122
0.230,-0.043,-0.154,0.871,-0.366,-1.450,0.076
0.240,-0.045,-0.152,0.886,-0.885,-1.542,0.183
0.240,-0.044,-0.146,0.895,-0.519,-1.450,0.198
0.240,-0.042,-0.158,0.900,0.000,-0.748,0.031
0.250,-0.040,-0.153,0.887,0.351,0.153,0.168
0.250,-0.041,-0.150,0.883,0.443,-0.244,-0.382
0.260,-0.039,-0.151,0.885,-0.076,-1.847,-0.977
0.260,-0.048,-0.146,0.862,-0.763,-3.573,-1.511
0.260,-0.048,-0.152,0.883,-1.374,-4.611,-1.573
0.270,-0.042,-0.149,0.890,-0.870,-4.504,-1.542
0.270,-0.042,-0.158,0.889,-0.489,-4.260,-1.527
0.280,-0.032,-0.160,0.882,-0.489,-3.771,-1.542
0.280,-0.043,-0.157,0.876,-0.275,-3.206,-1.206
0.290,-0.041,-0.160,0.877,-0.244,-2.809,-0.809
0.290,-0.034,-0.166,0.889,0.000,-1.985,-0.672
0.290,-0.037,-0.161,0.900,0.153,-1.237,-0.565
0.300,-0.028,-0.161,0.896,0.336,-0.443,-0.305
0.300,-0.029,-0.158,0.892,0.534,0.565,-0.031
0.310,-0.031,-0.156,0.890,0.580,1.160,0.076
0.310,-0.024,-0.158,0.881,0.260,1.405,-0.229
0.310,-0.036,-0.160,0.876,-0.046,0.962,-0.443
0.320,-0.038,-0.155,0.874,-0.458,0.534,-0.550
0.320,-0.040,-0.151,0.879,-0.443,0.076,-0.763
0.330,-0.035,-0.149,0.894,-0.397,-0.214,-1.008
0.330,-0.039,-0.150,0.886,-0.641,-1.237,-1.115
0.330,-0.025,-0.151,0.883,-0.565,-0.962,-1.420
0.340,-0.036,-0.152,0.890,-0.321,-0.626,-1.450
0.340,-0.029,-0.151,0.884,-0.092,-0.427,-1.527
0.350,-0.034,-0.147,0.883,0.305,-0.855,-1.649
0.350,-0.033,-0.146,0.879,0.031,-1.511,-1.908
0.350,-0.037,-0.140,0.875,-0.076,-1.802,-2.183
0.360,-0.042,-0.148,0.869,-0.397,-2.153,-2.397
0.360,-0.040,-0.135,0.874,-0.702,-2.672,-2.092
0.370,-0.038,-0.136,0.876,-0.779,-2.198,-1.817
0.370,-0.036,-0.138,0.868,-0.779,-1.511,-1.664
0.380,-0.040,-0.131,0.870,-0.901,-1.786,-1.649
0.380,-0.033,-0.128,0.873,-1.649,-2.107,-1.664
0.380,-0.042,-0.128,0.875,-1.985,-2.015,-1.679
0.390,-0.029,-0.135,0.871,-1.908,-1.557,-1.710
0.390,-0.036,-0.136,0.876,-1.863,-1.038,-1.573
0.400,-0.045,-0.131,0.870,-2.000,-0.733,-1.481
0.400,-0.038,-0.132,0.875,-2.137,-0.351,-1.282
0.400,-0.036,-0.138,0.876,-2.198,-0.519,-1.328
0.410,-0.036,-0.148,0.871,-2.168,-0.427,-1.588
0.410,-0.031,-0.138,0.875,-2.275,-0.611,-1.527
0.420,-0.044,-0.143,0.885,-2.290,-0.351,-1.588
0.420,-0.045,-0.146,0.876,-2.534,-0.290,-1.527
0.430,-0.054,-0.146,0.886,-2.534,-0.076,-1.435
0.430,-0.060,-0.147,0.896,-2.565,-0.229,-1.176
0.430,-0.065,-0.151,0.896,-2.122,-0.702,-0.733
0.440,-0.063,-0.145,0.893,-2.000,-0.702,-0.305
0.440,-0.053,-0.145,0.894,-2.107,-1.130,0.015
0.450,-0.051,-0.149,0.892,-1.557,-0.794,0.046
0.450,-0.047,-0.144,0.909,-1.206,-0.595,0.000
0.450,-0.053,-0.155,0.908,-0.809,-0.183,0.321
0.460,-0.061,-0.149,0.897,-0.351,0.519,0.763
0.460,-0.055,-0.151,0.884,-0.595,0.687,1.252
0.470,-0.061,-0.146,0.876,-0.962,0.321,1.344
0.470,-0.060,-0.152,0.880,-0.962,-0.336,1.374
0.470,-0.062,-0.140,0.872,-1.221,-0.992,1.405
0.480,-0.051,-0.139,0.892,-1.328,-1.328,1.405
0.480,-0.050,-0.141,0.885,-1.817,-1.695,1.237
0.490,-0.052,-0.147,0.879,-1.771,-1.817,0.992
0.490,-0.048,-0.140,0.878,-2.092,-2.351,0.931
0.490,-0.045,-0.136,0.881,-2.534,-2.962,0.916
0.500,-0.048,-0.141,0.895,-2.504,-2.870,0.901
0.500,-0.039,-0.140,0.893,-1.939,-2.565,0.885
0.510,-0.038,-0.144,0.888,-1.878,-2.427,1.145
0.510,-0.042,-0.145,0.888,-1.695,-2.580,1.206
0.520,-0.045,-0.146,0.881,-1.863,-3.267,1.160
0.520,-0.038,-0.141,0.881,-2.031,-3.008,1.328
0.520,-0.027,-0.145,0.891,-1.939,-2.092,1.511
0.530,-0.037,-0.153,0.886,-1.145,-1.221,1.817
0.530,-0.025,-0.150,0.902,-0.718,-0.977,2.015
0.540,-0.024,-0.147,0.888,-0.824,-0.855,1.695
0.540,-0.022,-0.143,0.886,-1.084,-0.962,1.389
0.540,-0.024,-0.149,0.881,-1.115,-1.145,1.282
0.550,-0.023,-0.152,0.896,-0.794,-1.344,1.466
0.550,-0.026,-0.152,0.891,-0.565,-0.626,1.313
0.560,-0.017,-0.153,0.889,-0.107,0.031,1.389
0.560,-0.020,-0.156,0.885,0.000,0.244,1.298
0.560,-0.021,-0.156,0.871,-0.031,-0.015,1.115
0.570,-0.029,-0.156,0.864,-0.321,-1.130,0.702
0.570,-0.021,-0.150,0.870,-1.053,-1.924,0.489
0.580,-0.014,-0.145,0.876,-1.359,-1.939,0.427
0.580,-0.017,-0.148,0.886,-0.809,-1.374,0.504
0.580,-0.020,-0.150,0.884,-0.626,-1.038,0.275
0.590,-0.015,-0.149,0.882,-0.779,-1.160,0.137
0.590,-0.021,-0.144,0.869,-0.824,-0.901,0.229
0.600,-0.024,-0.139,0.875,-1.328,-0.763,0.321
0.600,-0.023,-0.140,0.862,-1.405,-0.534,0.351
0.600,-0.013,-0.136,0.869,-1.267,-0.260,0.214
0.610,-0.016,-0.134,0.862,-1.237,-0.321,-0.214
0.610,-0.017,-0.128,0.855,-1.863,-0.840,-0.336
0.620,-0.014,-0.134,0.858,-2.519,-1.221,-0.885
0.620,-0.014,-0.138,0.865,-2.901,-1.389,-1.221
0.630,-0.017,-0.141,0.871,-2.809,-1.038,-1.389
0.630,-0.021,-0.146,0.878,-2.763,-1.008,-1.511
0.630,-0.025,-0.152,0.885,-2.687,-0.473,-1.618
0.640,-0.030,-0.149,0.877,-2.565,-0.229,-1.527
0.640,-0.037,-0.150,0.878,-2.626,-0.611,-1.634
0.650,-0.037,-0.153,0.887,-2.947,-1.038,-1.573
0.650,-0.035,-0.155,0.900,-2.687,-0.992,-1.618
0.650,-0.031,-0.165,0.898,-2.366,-0.641,-1.420
0.660,-0.038,-0.160,0.903,-1.863,0.366,-1.221
0.660,-0.035,-0.159,0.897,-1.527,0.931,-1.221
0.670,-0.041,-0.155,0.892,-1.527,0.687,-0.962
0.670,-0.046,-0.154,0.887,-1.863,-0.076,-1.038
0.680,-0.048,-0.161,0.880,-2.275,-0.427,-0.931
0.680,-0.038,-0.153,0.894,-2.122,-0.397,-1.176
0.680,-0.049,-0.158,0.895,-1.863,-0.046,-0.870
0.690,-0.040,-0.150,0.893,-1.847,0.473,-0.595
0.690,-0.043,-0.146,0.887,-2.000,0.794,-0.244
0.700,-0.044,-0.146,0.900,-2.000,0.305,-0.397
0.700,-0.046,-0.149,0.891,-2.061,0.076,-0.229
0.700,-0.048,-0.150,0.895,-2.076,-0.137,-0.260
0.710,-0.041,-0.152,0.890,-1.893,0.076,0.061
0.710,-0.044,-0.152,0.893,-1.740,0.382,0.595
0.720,-0.046,-0.152,0.892,-1.420,0.656,0.611
0.720,-0.039,-0.151,0.900,-1.160,0.290,0.305
0.720,-0.038,-0.154,0.893,-1.053,-0.275,0.214
0.730,-0.040,-0.151,0.899,-0.977,-1.038,-0.092
0.730,-0.048,-0.145,0.890,-1.160,-1.511,-0.015
0.740,-0.037,-0.149,0.893,-0.824,-1.328,-0.046
0.740,-0.030,-0.148,0.902,-0.168,-1.344,0.031
0.740,-0.028,-0.149,0.904,0.061,-1.145,0.076
0.750,-0.033,-0.154,0.896,0.412,-0.534,0.107
0.750,-0.032,-0.149,0.901,0.641,-0.015,-0.153
0.760,-0.034,-0.155,0.894,1.206,0.168,-0.061
0.760,-0.037,-0.147,0.883,1.252,-0.260,-0.168
0.770,-0.043,-0.141,0.891,1.084,-0.947,-0.305
0.770,-0.033,-0.142,0.865,0.824,-2.244,-0.962
0.770,-0.040,-0.141,0.863,0.015,-3.649,-1.344
0.780,-0.033,-0.140,0.866,-0.672,-4.290,-1.908
0.780,-0.036,-0.139,0.882,-0.672,-4.061,-2.046
0.790,-0.039,-0.145,0.885,-0.412,-3.527,-1.710
0.790,-0.041,-0.144,0.881,-0.427,-2.458,-0.870
0.790,-0.052,-0.141,0.863,-0.733,-2.153,-0.382
0.800,-0.043,-0.138,0.870,-0.824,-1.664,0.214
0.800,-0.037,-0.144,0.874,-0.931,-1.344,0.595
0.810,-0.038,-0.135,0.880,-1.237,-0.962,0.718
0.810,-0.040,-0.146,0.869,-1.115,-0.550,1.038
0.810,-0.039,-0.140,0.872,-1.115,0.031,1.237
0.820,-0.028,-0.142,0.869,-1.389,-0.031,1.237
0.820,-0.031,-0.138,0.863,-2.153,-0.458,1.038
0.830,-0.018,-0.145,0.869,-2.733,-0.489,0.901
0.830,-0.023,-0.144,0.880,-2.595,-0.305,0.931
0.830,-0.016,-0.155,0.881,-2.489,0.366,1.160
0.840,-0.019,-0.152,0.869,-2.595,0.870,1.160
0.840,-0.018,-0.154,0.871,-2.550,0.748,1.160
0.850,-0.015,-0.155,0.879,-2.366,0.107,0.794
0.850,-0.022,-0.147,0.885,-2.275,-0.504,0.427
0.850,-0.019,-0.154,0.886,-2.336,-0.763,0.229
0.860,-0.027,-0.147,0.882,-2.534,-0.809,0.229
0.860,-0.022,-0.147,0.890,-2.153,-0.870,-0.046
0.870,-0.020,-0.154,0.892,-1.618,-0.763,-0.092
0.870,-0.025,-0.143,0.872,-1.756,-0.855,-0.122
0.880,-0.026,-0.143,0.872,-2.198,-0.855,-0.366
0.880,-0.015,-0.143,0.878,-2.336,-0.672,-0.305
0.880,-0.030,-0.151,0.904,-1.954,-0.504,-0.382
0.890,-0.028,-0.151,0.885,-1.496,-0.183,-0.183
0.890,-0.027,-0.143,0.889,-1.511,0.183,0.015
0.900,-0.033,-0.153,0.879,-1.542,0.473,-0.015
0.900,-0.030,-0.148,0.883,-1.679,0.076,0.168
0.900,-0.027,-0.152,0.883,-1.847,0.229,0.183
0.910,-0.024,-0.155,0.883,-1.481,0.595,0.137
0.910,-0.022,-0.142,0.860,-1.710,-0.168,-0.198
0.920,-0.022,-0.147,0.864,-2.931,-1.023,-0.702
0.920,-0.017,-0.157,0.886,-3.115,-1.466,-1.145
0.920,-0.018,-0.156,0.886,-2.733,-1.802,-1.542
0.930,-0.018,-0.153,0.899,-2.626,-1.511,-1.511
0.930,-0.020,-0.148,0.888,-2.580,-1.130,-1.405
0.940,-0.021,-0.151,0.885,-2.687,-0.962,-1.420
0.940,-0.019,-0.154,0.898,-2.748,-1.435,-1.496
0.950,-0.025,-0.150,0.907,-2.122,-1.603,-1.328
0.950,-0.028,-0.151,0.897,-1.405,-0.947,-1.420
0.950,-0.020,-0.149,0.901,-1.267,-0.412,-1.160
0.960,-0.025,-0.145,0.902,-0.748,0.183,-0.992
0.960,-0.028,-0.148,0.898,-0.626,0.214,-1.038
0.970,-0.025,-0.143,0.885,-0.366,0.565,-0.992
0.970,-0.030,-0.145,0.877,-0.198,0.931,-0.809
0.970,-0.030,-0.142,0.880,-0.275,0.992,-0.672
0.980,-0.030,-0.134,0.875,-0.595,1.725,-0.427
0.980,-0.033,-0.145,0.882,-0.321,1.679,-0.229
0.990,-0.038,-0.142,0.870,-0.565,1.725,-0.046
0.990,-0.035,-0.138,0.865,-1.130,1.221,0.229
0.990,-0.031,-0.140,0.869,-1.634,1.786,0.321
1.000,-0.030,-0.148,0.878,-1.878,2.626,0.519
1.000,-0.031,-0.148,0.875,-1.832,3.405,0.718
1.010,-0.027,-0.143,0.881,-1.969,3.359,0.809
1.010,-0.036,-0.142,0.891,-2.031,3.160,0.840
1.010,-0.037,-0.144,0.880,-2.122,2.733,0.779
1.020,-0.033,-0.145,0.880,-2.229,1.344,0.382
1.020,-0.028,-0.151,0.874,-3.252,-1.389,-1.008
1.030,-0.024,-0.145,0.878,-3.863,-3.573,-2.244
1.030,-0.019,-0.143,0.884,-3.908,-4.779,-3.099
1.040,-0.023,-0.148,0.897,-3.328,-4.992,-3.374
1.040,-0.023,-0.147,0.907,-2.702,-4.229,-3.298
1.040,-0.032,-0.153,0.901,-2.443,-3.527,-2.977
1.050,-0.032,-0.152,0.907,-1.924,-3.298,-2.718
1.050,-0.034,-0.152,0.900,-1.710,-3.328,-2.687
1.060,-0.024,-0.143,0.896,-1.344,-2.931,-2.595
1.060,-0.025,-0.148,0.907,-1.191,-2.351,-2.412
1.060,-0.033,-0.154,0.896,-0.611,-1.588,-2.473
1.070,-0.029,-0.145,0.889,-0.824,-1.847,-2.611
1.070,-0.011,-0.143,0.897,-1.099,-2.015,-2.870
1.080,-0.021,-0.147,0.888,-0.885,-1.756,-3.115
1.080,-0.028,-0.155,0.887,-0.550,-1.145,-3.084
1.090,-0.031,-0.155,0.888,-0.504,-1.420,-2.626
1.090,-0.026,-0.152,0.891,-0.824,-1.405,-2.321
1.090,-0.022,-0.161,0.895,-0.427,-1.359,-2.092
1.100,-0.014,-0.162,0.897,0.107,-1.038,-1.771
1.100,-0.014,-0.157,0.896,0.519,-0.076,-1.328
1.110,-0.006,-0.156,0.897,0.855,1.160,-1.069
1.110,0.000,-0.158,0.895,1.053,1.496,-1.313
1.110,0.010,-0.159,0.894,1.008,1.817,-1.466
1.120,0.010,-0.161,0.897,1.420,1.771,-1.634
1.120,0.008,-0.156,0.901,1.420,1.618,-2.168
1.130,0.008,-0.155,0.897,1.466,0.992,-2.489
1.130,0.009,-0.151,0.890,1.298,0.229,-2.916
1.130,0.017,-0.148,0.881,0.885,-0.427,-3.786
1.140,0.026,-0.154,0.896,0.916,-1.313,-4.809
1.140,0.020,-0.158,0.902,1.130,-2.000,-5.893
1.150,0.020,-0.152,0.893,1.221,-2.260,-6.244
1.150,0.010,-0.154,0.891,1.481,-2.702,-6.641
1.150,0.010,-0.152,0.884,1.023,-3.603,-7.145
1.160,0.017,-0.144,0.883,0.641,-4.168,-7.618
1.160,0.018,-0.148,0.883,0.489,-4.901,-8.137
1.170,0.024,-0.152,0.887,0.763,-5.053,-8.641
1.170,0.019,-0.154,0.885,1.008,-6.092,-9.359
1.170,0.015,-0.150,0.872,0.702,-7.634,-10.260
1.180,0.018,-0.152,0.884,0.702,-8.641,-11.053
1.180,0.031,-0.151,0.880,0.641,-9.542,-11.679
1.190,0.032,-0.148,0.888,0.412,-10.076,-12.153
1.190,0.034,-0.152,0.901,0.794,-9.710,-12.733
1.190,0.035,-0.156,0.903,1.359,-9.679,-12.977
1.200,0.029,-0.156,0.903,1.832,-9.756,-13.603
1.200,0.029,-0.153,0.898,1.878,-9.725,-13.786
1.210,0.029,-0.156,0.895,2.107,-9.282,-13.939
1.210,0.042,-0.154,0.905,2.473,-9.282,-14.198
1.210,0.032,-0.157,0.899,2.229,-10.076,-14.427
1.220,0.037,-0.145,0.894,2.092,-10.214,-14.458
1.220,0.049,-0.153,0.894,2.046,-9.053,-14.519
1.230,0.047,-0.156,0.902,1.985,-8.519,-14.916
1.230,0.058,-0.158,0.901,1.679,-8.702,-15.710
1.230,0.056,-0.153,0.883,1.053,-9.084,-17.084
1.240,0.057,-0.155,0.903,1.038,-9.985,-17.496
1.240,0.056,-0.158,0.891,1.221,-10.718,-18.305
1.250,0.054,-0.153,0.909,1.206,-11.511,-18.977
1.250,0.067,-0.156,0.909,1.603,-11.802,-19.695
1.260,0.064,-0.155,0.905,2.183,-13.237,-20.794
1.260,0.062,-0.156,0.894,2.214,-15.389,-21.725
1.260,0.065,-0.160,0.906,2.595,-17.038,-22.427
1.270,0.089,-0.156,0.900,2.718,-17.710,-22.824
1.270,0.105,-0.155,0.896,2.015,-17.893,-23.420
1.280,0.136,-0.159,0.903,1.679,-16.473,-24.275
1.280,0.159,-0.161,0.912,1.664,-14.824,-25.389
1.280,0.164,-0.165,0.935,2.046,-13.603,-26.885
1.290,0.164,-0.165,0.951,2.840,-12.641,-28.229
1.290,0.168,-0.174,0.951,3.557,-12.519,-29.420
1.300,0.182,-0.176,0.953,4.458,-12.183,-30.489
1.300,0.183,-0.177,0.956,4.977,-11.420,-31.527
1.310,0.195,-0.182,0.957,5.603,-10.137,-32.214
1.310,0.207,-0.183,0.944,6.443,-9.221,-33.527
1.310,0.221,-0.182,0.939,6.870,-8.366,-34.702
1.320,0.227,-0.176,0.943,7.221,-8.137,-36.382
1.320,0.240,-0.176,0.939,7.328,-7.237,-37.969
1.330,0.229,-0.188,0.936,7.832,-7.313,-39.710
1.330,0.231,-0.188,0.944,8.290,-7.527,-41.420
1.330,0.233,-0.192,0.941,8.779,-8.336,-43.206
1.340,0.243,-0.184,0.929,8.656,-9.771,-45.450
1.340,0.238,-0.195,0.928,9.023,-11.267,-48.153
1.350,0.230,-0.188,0.916,9.130,-13.145,-50.382
1.350,0.211,-0.190,0.904,8.901,-16.000,-52.611
1.350,0.206,-0.184,0.916,8.336,-18.412,-54.656
1.360,0.202,-0.196,0.928,9.328,-20.031,-56.305
1.360,0.201,-0.218,0.931,11.130,-20.947,-57.389
1.370,0.198,-0.203,0.922,11.145,-22.260,-58.244
1.370,0.201,-0.210,0.904,10.962,-22.458,-58.687
1.380,0.210,-0.220,0.892,11.084,-21.802,-58.824
1.380,0.216,-0.211,0.908,11.328,-20.473,-58.168
1.380,0.236,-0.212,0.906,11.191,-18.687,-57.420
1.390,0.264,-0.217,0.886,10.519,-14.992,-56.626
1.390,0.291,-0.216,0.872,9.664,-11.344,-56.550
1.400,0.307,-0.214,0.874,8.733,-9.267,-56.565
1.400,0.346,-0.219,0.883,7.527,-6.046,-56.031
1.400,0.377,-0.217,0.886,6.153,-1.908,-55.847
1.410,0.407,-0.216,0.898,5.298,2.824,-56.122
1.410,0.434,-0.213,0.894,4.611,6.550,-57.176
1.420,0.448,-0.220,0.909,3.863,8.672,-58.962
1.420,0.474,-0.212,0.912,3.252,10.962,-61.313
1.430,0.495,-0.219,0.914,3.084,12.794,-64.702
1.430,0.498,-0.228,0.923,3.511,14.260,-68.672
1.430,0.500,-0.223,0.921,3.618,14.305,-72.962
1.440,0.497,-0.225,0.915,4.061,13.649,-77.878
1.440,0.484,-0.231,0.909,4.366,12.763,-82.779
1.450,0.472,-0.238,0.916,5.191,10.489,-88.198
1.450,0.446,-0.240,0.920,5.847,6.565,-93.557
1.450,0.419,-0.249,0.916,6.290,1.832,-98.595
1.460,0.390,-0.251,0.907,6.763,-2.962,-103.206
1.460,0.369,-0.256,0.885,6.595,-7.924,-107.679
1.470,0.346,-0.258,0.896,6.198,-12.840,-111.786
1.470,0.331,-0.273,0.904,6.076,-16.656,-115.542
1.470,0.312,-0.279,0.902,5.939,-18.687,-118.015
1.480,0.287,-0.294,0.900,5.511,-19.374,-120.061
1.480,0.281,-0.302,0.907,5.313,-19.786,-121.695
1.490,0.273,-0.307,0.910,4.916,-19.802,-123.389
1.490,0.265,-0.314,0.923,5.053,-18.809,-124.260
1.500,0.257,-0.317,0.929,5.160,-17.450,-124.992
1.500,0.250,-0.330,0.934,5.191,-15.206,-125.374
1.500,0.250,-0.322,0.947,5.328,-12.275,-125.206
1.510,0.251,-0.330,0.953,6.137,-8.550,-125.496
1.510,0.243,-0.328,0.939,6.504,-5.313,-125.496
1.520,0.240,-0.324,0.927,7.038,-2.260,-125.344
1.520,0.244,-0.323,0.923,7.649,0.580,-125.649
1.520,0.248,-0.315,0.914,7.802,3.115,-125.924
1.530,0.248,-0.309,0.902,7.954,5.542,-126.153
1.530,0.249,-0.309,0.903,8.183,8.519,-126.275
1.540,0.251,-0.306,0.912,8.382,11.893,-126.321
1.540,0.258,-0.307,0.904,8.809,15.618,-125.863
1.550,0.253,-0.305,0.900,8.672,19.389,-125.298
1.550,0.245,-0.303,0.879,8.702,22.580,-125.939
1.550,0.243,-0.311,0.874,8.046,24.061,-127.130
1.560,0.239,-0.314,0.862,7.160,24.947,-129.008
1.560,0.225,-0.313,0.871,6.763,24.748,-131.282
1.570,0.205,-0.321,0.881,6.992,23.313,-133.771
1.570,0.200,-0.328,0.888,7.298,19.756,-137.130
1.570,0.183,-0.336,0.899,7.160,14.641,-140.947
1.580,0.166,-0.343,0.898,6.672,8.718,-145.099
1.580,0.154,-0.350,0.927,7.206,3.115,-148.489
1.590,0.139,-0.367,0.957,8.061,-1.221,-151.053
1.590,0.132,-0.369,0.961,9.344,-4.137,-153.023
1.600,0.127,-0.368,0.959,10.137,-5.786,-154.427
1.600,0.121,-0.372,0.959,11.038,-6.641,-155.466
1.600,0.104,-0.368,0.955,11.863,-7.298,-155.527
1.610,0.096,-0.365,0.964,12.809,-6.824,-155.099
1.610,0.090,-0.360,0.967,14.000,-4.458,-154.000
1.620,0.095,-0.353,0.980,14.977,-0.809,-152.244
1.620,0.105,-0.349,0.960,15.053,4.092,-150.947
1.620,0.118,-0.341,0.954,15.603,9.924,-149.573
1.630,0.111,-0.333,0.942,15.832,15.863,-148.290
1.630,0.101,-0.318,0.934,16.458,21.313,-146.931
1.640,0.066,-0.315,0.932,16.824,26.962,-144.809
1.640,0.039,-0.307,0.908,17.496,33.008,-141.466
1.650,0.026,-0.300,0.905,17.863,38.641,-137.649
1.650,0.021,-0.283,0.875,17.664,43.878,-133.710
1.650,0.005,-0.274,0.855,17.435,49.832,-130.458
1.660,0.007,-0.272,0.849,17.450,55.267,-127.634
1.660,0.006,-0.275,0.827,17.771,57.832,-126.947
1.670,-0.030,-0.282,0.806,18.137,55.252,-128.489
1.670,-0.041,-0.283,0.798,17.527,47.985,-130.947
1.680,-0.058,-0.288,0.802,15.771,39.298,-133.588
1.680,-0.042,-0.290,0.825,14.427,30.992,-136.794
1.680,-0.033,-0.301,0.841,13.130,23.038,-140.504
1.690,-0.032,-0.312,0.860,11.664,14.885,-144.824
1.690,-0.042,-0.319,0.888,11.298,6.168,-149.603
1.700,-0.064,-0.322,0.924,12.244,-3.069,-153.450
1.700,-0.092,-0.319,0.928,13.191,-11.573,-156.153
1.710,-0.119,-0.320,0.940,13.954,-18.076,-157.053
1.710,-0.117,-0.316,0.953,14.229,-22.046,-157.359
1.720,-0.103,-0.307,0.958,15.450,-23.038,-156.870
1.720,-0.109,-0.307,0.978,17.298,-22.611,-155.832
1.720,-0.120,-0.292,0.967,18.626,-20.473,-153.908
1.730,-0.109,-0.278,0.958,19.588,-16.275,-151.145
1.730,-0.102,-0.264,0.954,19.832,-10.794,-147.832
1.740,-0.085,-0.249,0.930,19.420,-4.565,-144.489
1.740,-0.077,-0.245,0.926,18.992,2.015,-141.282
1.750,-0.078,-0.236,0.917,19.252,8.351,-137.878
1.750,-0.078,-0.225,0.908,19.084,14.321,-134.153
1.750,-0.082,-0.210,0.900,18.916,19.832,-130.641
1.760,-0.083,-0.204,0.880,18.672,24.076,-127.481
1.760,-0.071,-0.191,0.891,19.176,27.069,-124.885
1.770,-0.056,-0.188,0.892,20.137,28.519,-122.962
1.770,-0.044,-0.177,0.890,20.733,30.275,-122.336
1.780,-0.036,-0.165,0.876,21.786,31.328,-122.092
1.780,-0.039,-0.173,0.858,22.122,30.763,-122.992
1.790,-0.053,-0.164,0.826,22.412,27.771,-125.252
1.790,-0.075,-0.172,0.795,22.122,22.565,-127.679
1.790,-0.102,-0.174,0.784,21.038,15.191,-129.969
1.800,-0.122,-0.169,0.781,19.374,8.519,-131.450
1.800,-0.122,-0.163,0.793,17.588,3.053,-133.069
1.810,-0.120,-0.167,0.789,16.076,-1.252,-134.656
1.810,-0.133,-0.168,0.796,14.794,-6.595,-135.954
1.820,-0.145,-0.164,0.811,13.817,-11.221,-136.489
1.820,-0.142,-0.155,0.811,12.748,-14.015,-135.679
1.820,-0.128,-0.156,0.809,12.031,-13.588,-134.107
1.830,-0.090,-0.147,0.796,9.832,-10.947,-132.504
1.830,-0.074,-0.142,0.810,8.275,-7.466,-130.992
1.840,-0.063,-0.140,0.821,7.374,-3.206,-129.328
1.840,-0.066,-0.133,0.826,6.397,1.679,-126.992
1.850,-0.058,-0.136,0.835,5.679,7.405,-124.702
1.850,-0.057,-0.128,0.829,5.084,12.534,-122.595
1.850,-0.050,-0.115,0.836,4.565,16.702,-120.718
1.860,-0.066,-0.116,0.834,4.656,20.137,-118.870
1.860,-0.079,-0.108,0.832,4.779,23.145,-116.611
1.870,-0.083,-0.097,0.822,5.405,24.687,-114.763
1.870,-0.090,-0.098,0.819,5.924,24.687,-113.115
1.880,-0.088,-0.097,0.816,6.702,23.878,-112.168
1.880,-0.078,-0.092,0.804,6.977,22.504,-111.847
1.880,-0.064,-0.091,0.777,6.748,19.985,-112.382
1.890,-0.051,-0.078,0.768,6.260,17.145,-114.122
1.890,-0.049,-0.083,0.767,5.496,13.740,-115.710
1.900,-0.075,-0.099,0.761,4.427,8.947,-117.466
1.900,-0.079,-0.100,0.767,3.847,3.588,-119.298
1.900,-0.083,-0.118,0.768,2.931,-1.664,-120.779
1.910,-0.067,-0.123,0.781,1.542,-5.221,-122.137
1.910,-0.064,-0.131,0.797,0.244,-6.992,-123.099
1.920,-0.070,-0.136,0.823,-0.260,-8.687,-123.786
1.920,-0.075,-0.145,0.833,-0.565,-9.756,-124.244
1.930,-0.076,-0.146,0.836,-0.977,-10.137,-123.771
1.930,-0.085,-0.138,0.847,-1.496,-8.916,-122.763
1.940,-0.085,-0.142,0.845,-1.817,-6.305,-121.267
1.940,-0.086,-0.139,0.859,-1.756,-3.847,-119.557
1.940,-0.089,-0.152,0.872,-1.847,-0.901,-117.450
1.950,-0.100,-0.138,0.865,-1.802,2.336,-115.191
1.950,-0.113,-0.140,0.870,-1.298,5.588,-112.824
1.960,-0.119,-0.139,0.869,-0.733,7.802,-110.779
1.960,-0.135,-0.132,0.872,0.061,8.809,-108.962
1.960,-0.145,-0.132,0.858,0.763,8.687,-107.435
1.970,-0.137,-0.127,0.841,0.748,7.878,-106.107
1.970,-0.137,-0.137,0.855,1.359,7.740,-104.534
1.980,-0.144,-0.146,0.861,2.626,8.580,-103.206
1.980,-0.142,-0.148,0.863,3.603,9.786,-101.863
1.990,-0.138,-0.155,0.855,3.313,9.405,-100.809
1.990,-0.123,-0.157,0.839,2.290,9.084,-100.260
1.990,-0.127,-0.163,0.828,1.374,8.214,-99.863
2.000,-0.131,-0.162,0.841,0.962,6.855,-99.832
2.000,-0.126,-0.159,0.853,0.763,4.840,-99.832
2.010,-0.149,-0.152,0.850,0.076,2.809,-99.466
2.010,-0.142,-0.146,0.848,-1.160,1.252,-98.412
2.010,-0.137,-0.144,0.838,-2.687,1.130,-97.328
2.020,-0.133,-0.138,0.840,-3.863,1.710,-96.412
2.020,-0.127,-0.132,0.844,-4.916,2.626,-95.267
2.030,-0.122,-0.130,0.849,-6.092,3.878,-94.229
2.030,-0.125,-0.125,0.838,-6.626,6.107,-92.916
2.040,-0.140,-0.128,0.855,-6.550,7.664,-91.771
2.040,-0.143,-0.123,0.861,-6.641,8.443,-90.321
2.040,-0.145,-0.111,0.865,-6.809,9.115,-89.298
2.050,-0.145,-0.109,0.875,-6.198,10.092,-88.687
2.050,-0.157,-0.106,0.890,-4.855,10.534,-87.649
2.060,-0.182,-0.103,0.899,-3.496,10.076,-86.550
2.060,-0.191,-0.107,0.895,-1.969,9.115,-85.389
2.060,-0.205,-0.095,0.876,-0.855,8.168,-83.985
2.070,-0.202,-0.095,0.872,-0.107,7.435,-82.519
2.070,-0.196,-0.095,0.869,0.550,7.359,-81.725
2.080,-0.203,-0.098,0.865,1.588,6.183,-80.992
2.080,-0.226,-0.087,0.855,1.710,4.031,-79.786
2.090,-0.225,-0.088,0.848,1.145,2.779,-78.840
2.090,-0.222,-0.085,0.844,0.779,2.443,-77.496
2.090,-0.223,-0.084,0.846,0.580,2.382,-76.137
2.100,-0.230,-0.088,0.858,0.015,2.351,-74.443
2.100,-0.232,-0.083,0.844,-0.397,2.580,-73.099
2.110,-0.235,-0.087,0.855,-0.977,3.511,-71.374
2.110,-0.240,-0.074,0.840,-1.618,4.214,-69.588
2.110,-0.237,-0.070,0.838,-2.412,4.718,-68.015
2.120,-0.245,-0.063,0.842,-2.885,4.687,-66.565
2.120,-0.252,-0.059,0.837,-3.313,3.939,-65.481
2.130,-0.251,-0.058,0.837,-3.802,3.130,-63.847
2.130,-0.253,-0.057,0.832,-4.397,2.260,-62.550
2.140,-0.244,-0.046,0.816,-4.855,1.847,-61.023
2.140,-0.246,-0.040,0.817,-5.298,1.435,-59.969
2.140,-0.258,-0.032,0.796,-5.908,0.458,-58.901
2.150,-0.253,-0.029,0.795,-6.504,-1.267,-57.802
2.150,-0.260,-0.020,0.791,-7.527,-2.656,-56.489
2.160,-0.254,-0.020,0.783,-8.534,-2.733,-54.473
2.160,-0.249,-0.011,0.779,-9.344,-2.885,-52.763
2.160,-0.250,-0.008,0.774,-10.687,-2.733,-50.641
2.170,-0.240,-0.004,0.770,-12.321,-2.061,-48.641
2.170,-0.228,-0.011,0.783,-13.985,-1.542,-47.099
2.180,-0.219,-0.027,0.782,-15.710,-1.145,-45.542
2.180,-0.213,-0.024,0.787,-17.496,-1.023,-44.214
2.190,-0.205,-0.034,0.787,-19.557,-0.504,-43.160
2.190,-0.202,-0.057,0.820,-20.702,-0.382,-41.878
2.190,-0.207,-0.066,0.835,-21.511,-0.687,-40.611
2.200,-0.199,-0.074,0.862,-21.985,-1.298,-39.344
2.200,-0.193,-0.087,0.860,-22.412,-2.336,-38.565
2.210,-0.189,-0.089,0.873,-22.595,-3.847,-37.786
2.210,-0.177,-0.106,0.895,-22.992,-4.901,-36.870
2.220,-0.164,-0.119,0.917,-22.092,-4.595,-36.153
2.220,-0.160,-0.126,0.947,-20.901,-3.634,-35.084
2.230,-0.155,-0.137,0.961,-19.786,-2.779,-34.015
2.230,-0.163,-0.137,0.961,-18.687,-2.473,-33.069
2.230,-0.161,-0.154,0.961,-17.817,-2.595,-32.183
2.240,-0.153,-0.156,0.962,-17.053,-2.672,-31.298
2.240,-0.146,-0.164,0.959,-16.107,-2.443,-30.489
2.250,-0.146,-0.155,0.957,-15.496,-2.000,-30.168
2.250,-0.136,-0.158,0.949,-14.962,-2.153,-29.725
2.260,-0.141,-0.166,0.961,-14.718,-1.771,-29.542
2.260,-0.135,-0.166,0.952,-14.061,-0.824,-29.115
2.260,-0.139,-0.166,0.948,-13.710,0.214,-28.611
2.270,-0.148,-0.160,0.961,-13.466,0.779,-27.603
2.270,-0.153,-0.153,0.967,-12.397,1.710,-26.305
2.280,-0.159,-0.151,0.962,-11.405,3.191,-24.870
2.280,-0.169,-0.145,0.952,-10.366,4.168,-23.115
2.290,-0.172,-0.133,0.945,-9.634,4.351,-21.221
2.290,-0.167,-0.131,0.938,-9.221,4.412,-19.908
2.290,-0.160,-0.117,0.926,-8.962,4.580,-18.626
2.300,-0.154,-0.111,0.914,-8.718,5.084,-16.885
2.300,-0.149,-0.102,0.924,-8.336,5.863,-15.466
2.310,-0.131,-0.096,0.913,-7.908,6.489,-14.519
2.310,-0.116,-0.094,0.908,-8.000,6.840,-13.924
2.310,-0.117,-0.092,0.894,-8.000,6.702,-13.649
2.320,-0.102,-0.091,0.902,-8.397,5.603,-13.908
2.320,-0.096,-0.087,0.901,-8.565,4.198,-14.351
2.330,-0.099,-0.073,0.891,-8.641,2.794,-14.489
2.330,-0.094,-0.076,0.896,-8.748,1.924,-14.427
2.340,-0.092,-0.076,0.896,-8.840,0.351,-14.458
2.340,-0.097,-0.065,0.885,-8.809,-1.298,-14.260
2.340,-0.088,-0.058,0.883,-9.618,-2.947,-14.260
2.350,-0.085,-0.059,0.884,-10.107,-3.527,-14.427
2.350,-0.080,-0.056,0.898,-9.924,-3.893,-14.366
2.360,-0.081,-0.054,0.906,-9.344,-4.382,-14.198
2.360,-0.081,-0.052,0.919,-9.008,-4.580,-13.954
2.370,-0.078,-0.051,0.909,-8.351,-4.733,-13.527
2.370,-0.074,-0.047,0.915,-7.756,-4.580,-12.824
2.370,-0.084,-0.043,0.912,-6.824,-4.626,-12.198
2.380,-0.085,-0.051,0.916,-6.229,-4.733,-11.634
2.380,-0.080,-0.053,0.905,-5.450,-5.069,-11.420
2.390,-0.084,-0.058,0.901,-5.023,-5.450,-10.962
2.390,-0.081,-0.053,0.895,-4.656,-5.802,-10.641
2.400,-0.095,-0.061,0.891,-4.382,-5.588,-9.863
2.400,-0.102,-0.058,0.902,-4.031,-5.985,-8.992
2.400,-0.103,-0.064,0.895,-3.389,-5.985,-8.122
2.410,-0.105,-0.073,0.909,-2.550,-6.183,-7.069
2.410,-0.104,-0.072,0.904,-2.504,-6.550,-6.351
2.420,-0.095,-0.072,0.900,-2.718,-6.504,-5.496
2.420,-0.089,-0.076,0.902,-2.153,-6.107,-4.824
2.420,-0.090,-0.085,0.914,-1.481,-5.771,-4.000
2.430,-0.090,-0.087,0.906,-0.885,-6.031,-3.679
2.430,-0.085,-0.083,0.903,-0.840,-5.939,-2.977
2.440,-0.089,-0.085,0.906,-0.901,-5.756,-2.489
2.440,-0.086,-0.088,0.909,-0.397,-5.832,-1.802
2.450,-0.083,-0.097,0.914,-0.122,-5.740,-1.267
2.450,-0.091,-0.092,0.908,0.580,-6.321,-0.443
2.450,-0.090,-0.094,0.903,0.962,-6.443,0.534
2.460,-0.078,-0.102,0.900,0.947,-6.519,1.527
2.460,-0.070,-0.103,0.905,1.313,-5.466,2.427
2.470,-0.057,-0.093,0.906,1.802,-4.702,3.282
2.470,-0.056,-0.101,0.904,1.740,-4.046,4.275
2.470,-0.036,-0.095,0.897,1.496,-2.763,4.947
2.480,-0.015,-0.094,0.899,1.817,-1.252,5.191
2.480,-0.007,-0.092,0.900,1.924,0.046,5.176
2.490,-0.002,-0.091,0.887,2.107,0.794,5.008
2.490,-0.008,-0.089,0.887,1.985,0.611,4.443
2.490,-0.009,-0.090,0.882,2.000,0.809,4.092
2.500,-0.013,-0.084,0.883,2.260,0.931,4.046
2.500,-0.030,-0.087,0.876,2.351,0.550,3.985
2.500,-0.035,-0.087,0.878,2.214,-0.580,3.893
2.510,-0.047,-0.085,0.864,2.305,-1.511,3.664
2.510,-0.053,-0.085,0.857,2.260,-2.427,3.542
2.520,-0.049,-0.088,0.871,2.015,-3.237,3.649
2.520,-0.055,-0.086,0.858,1.908,-3.511,3.985
2.520,-0.061,-0.086,0.849,2.031,-3.725,4.580
2.530,-0.054,-0.081,0.862,1.756,-3.405,4.901
2.530,-0.048,-0.089,0.855,1.664,-3.618,5.176
2.540,-0.048,-0.092,0.863,1.344,-3.511,5.420
2.540,-0.045,-0.095,0.865,1.145,-3.298,5.649
2.540,-0.049,-0.093,0.866,1.237,-3.115,5.786
2.550,-0.057,-0.092,0.866,1.084,-3.649,6.214
2.550,-0.073,-0.097,0.866,1.053,-3.740,6.779
2.560,-0.073,-0.098,0.873,1.099,-3.786,7.802
2.560,-0.076,-0.097,0.875,1.542,-4.305,8.153
2.560,-0.072,-0.094,0.886,1.389,-4.611,8.840
2.570,-0.084,-0.094,0.871,1.389,-4.626,9.389
2.570,-0.093,-0.096,0.873,1.344,-4.229,9.954
2.580,-0.111,-0.102,0.883,1.969,-4.168,10.748
2.580,-0.127,-0.108,0.887,2.489,-4.672,11.450
2.580,-0.147,-0.109,0.880,2.977,-5.466,12.748
2.590,-0.158,-0.109,0.873,3.374,-6.122,14.580
2.590,-0.177,-0.111,0.877,3.145,-6.489,16.122
2.600,-0.172,-0.105,0.866,3.023,-6.473,17.985
2.600,-0.169,-0.110,0.872,2.931,-6.519,19.466
2.610,-0.166,-0.109,0.867,2.931,-6.519,20.702
2.610,-0.166,-0.108,0.860,2.672,-6.641,21.664
2.610,-0.156,-0.107,0.852,2.229,-6.733,22.382
2.620,-0.165,-0.106,0.847,1.664,-7.420,22.992
2.620,-0.174,-0.103,0.857,1.221,-8.366,23.664
2.630,-0.181,-0.099,0.859,1.038,-9.069,24.809
2.630,-0.181,-0.101,0.872,0.779,-9.420,25.878
2.630,-0.183,-0.094,0.868,0.687,-10.229,27.053
2.640,-0.191,-0.094,0.870,0.336,-11.053,28.580
2.640,-0.201,-0.099,0.866,0.046,-11.053,30.275
2.650,-0.200,-0.094,0.876,0.244,-10.504,32.153
2.650,-0.215,-0.104,0.885,1.053,-10.626,33.847
2.650,-0.223,-0.093,0.873,0.763,-10.107,35.939
2.660,-0.227,-0.094,0.866,1.160,-8.733,37.863
2.660,-0.227,-0.092,0.875,1.099,-8.198,39.710
2.670,-0.236,-0.094,0.873,0.992,-8.000,41.252
2.670,-0.255,-0.092,0.865,0.992,-7.878,43.298
2.680,-0.272,-0.094,0.868,0.824,-7.634,45.954
2.680,-0.277,-0.090,0.867,0.656,-6.870,49.344
2.680,-0.277,-0.085,0.871,0.046,-5.328,53.069
2.690,-0.273,-0.086,0.866,-0.214,-3.405,56.198
2.690,-0.258,-0.088,0.854,-0.901,-2.214,59.817
2.700,-0.237,-0.092,0.862,-1.954,-0.733,62.794
2.700,-0.225,-0.094,0.884,-2.168,1.786,65.496
2.700,-0.214,-0.102,0.905,-1.664,3.893,68.137
2.710,-0.203,-0.094,0.913,-1.130,5.084,70.260
2.710,-0.196,-0.106,0.906,-0.687,6.595,71.863
2.720,-0.183,-0.098,0.910,-0.458,6.718,73.221
2.720,-0.175,-0.098,0.905,-0.015,6.412,74.153
2.720,-0.171,-0.109,0.906,0.489,5.115,74.702
2.730,-0.169,-0.108,0.912,0.977,3.939,74.855
2.730,-0.154,-0.112,0.906,1.328,2.580,74.580
2.740,-0.139,-0.105,0.905,1.817,0.809,73.740
2.740,-0.136,-0.101,0.889,1.893,-1.740,72.153
2.740,-0.142,-0.097,0.891,1.878,-4.748,70.779
2.750,-0.150,-0.101,0.885,1.359,-7.374,69.435
2.750,-0.156,-0.101,0.872,1.252,-9.359,68.565
2.760,-0.159,-0.105,0.889,1.313,-12.076,67.420
2.760,-0.179,-0.102,0.873,1.435,-15.802,66.504
2.760,-0.198,-0.098,0.866,1.313,-19.313,65.969
2.770,-0.204,-0.102,0.869,0.473,-22.718,65.802
2.770,-0.215,-0.113,0.849,0.092,-25.557,65.679
2.780,-0.228,-0.121,0.837,-0.183,-28.656,66.366
2.780,-0.230,-0.117,0.848,-1.237,-31.252,67.374
2.790,-0.240,-0.126,0.842,-1.588,-33.557,69.084
2.790,-0.255,-0.133,0.839,-2.504,-34.809,71.771
2.790,-0.252,-0.148,0.844,-3.527,-34.550,75.252
2.800,-0.251,-0.152,0.842,-4.763,-33.664,79.450
2.800,-0.245,-0.155,0.847,-6.321,-32.427,83.481
2.810,-0.210,-0.161,0.861,-7.756,-30.290,86.977
2.810,-0.179,-0.166,0.878,-9.053,-27.176,89.740
2.820,-0.161,-0.174,0.890,-9.313,-23.466,92.412
2.820,-0.155,-0.176,0.919,-9.634,-20.626,95.359
2.820,-0.137,-0.178,0.921,-9.527,-15.939,97.756
2.830,-0.129,-0.178,0.930,-8.824,-12.092,98.305
2.830,-0.135,-0.184,0.933,-8.244,-10.779,99.466
2.840,-0.130,-0.177,0.947,-7.389,-10.641,100.504
2.840,-0.134,-0.176,0.958,-5.817,-9.771,101.344
2.850,-0.148,-0.173,0.963,-3.664,-9.023,102.260
2.850,-0.156,-0.178,0.968,-1.802,-9.450,103.634
2.850,-0.168,-0.171,0.964,0.168,-11.710,104.656
2.860,-0.176,-0.171,0.962,2.702,-13.023,106.229
2.860,-0.166,-0.166,0.948,4.641,-13.160,108.076
2.870,-0.151,-0.161,0.921,6.198,-12.092,110.092
2.870,-0.152,-0.155,0.914,7.817,-11.511,111.771
2.880,-0.152,-0.156,0.898,8.824,-11.542,112.992
2.880,-0.152,-0.155,0.881,9.450,-11.725,114.443
2.880,-0.155,-0.147,0.849,9.374,-12.290,116.000
2.890,-0.156,-0.143,0.833,8.748,-12.748,117.588
2.890,-0.164,-0.134,0.834,8.061,-12.977,119.481
2.900,-0.163,-0.138,0.797,6.916,-13.450,121.282
2.900,-0.168,-0.132,0.786,5.389,-13.695,122.626
2.910,-0.168,-0.132,0.764,3.634,-14.061,124.076
2.910,-0.172,-0.135,0.748,1.313,-14.885,125.649
2.910,-0.176,-0.138,0.766,-0.794,-15.481,127.038
2.920,-0.169,-0.148,0.774,-1.939,-15.328,128.672
2.920,-0.166,-0.151,0.770,-2.885,-15.084,130.763
2.930,-0.169,-0.158,0.783,-3.817,-14.412,133.252
2.930,-0.161,-0.166,0.792,-4.305,-14.015,135.847
2.940,-0.158,-0.174,0.794,-4.672,-13.939,138.168
2.940,-0.150,-0.180,0.796,-5.740,-14.351,140.916
2.940,-0.130,-0.181,0.811,-6.382,-13.756,143.023
2.950,-0.111,-0.190,0.825,-6.214,-12.153,145.069
2.950,-0.087,-0.192,0.840,-6.000,-10.168,146.931
2.960,-0.071,-0.196,0.844,-5.786,-8.076,148.366
2.960,-0.072,-0.200,0.842,-5.573,-6.641,149.603
2.970,-0.073,-0.196,0.827,-5.740,-6.015,150.855
2.970,-0.069,-0.201,0.832,-5.740,-5.511,151.893
2.970,-0.074,-0.200,0.824,-5.817,-5.130,152.947
2.980,-0.063,-0.199,0.818,-6.122,-5.450,153.618
2.980,-0.054,-0.205,0.812,-6.260,-6.321,153.557
2.990,-0.064,-0.212,0.809,-6.809,-7.634,153.405
2.990,-0.057,-0.213,0.799,-7.191,-8.885,153.252
3.000,-0.058,-0.220,0.797,-7.802,-10.397,153.069
3.000,-0.060,-0.233,0.794,-8.336,-12.763,152.992
3.000,-0.058,-0.236,0.803,-8.947,-15.405,153.115
3.010,-0.042,-0.236,0.805,-10.061,-17.145,153.252
3.010,-0.016,-0.249,0.832,-10.626,-17.710,153.359
3.020,0.003,-0.255,0.853,-10.183,-17.328,153.603
3.020,0.019,-0.266,0.868,-9.420,-16.626,153.725
3.030,0.035,-0.269,0.870,-8.931,-16.443,153.954
3.030,0.057,-0.266,0.865,-9.069,-15.695,154.107
3.030,0.079,-0.274,0.875,-9.466,-14.076,154.656
3.040,0.085,-0.273,0.881,-9.389,-11.847,154.687
3.040,0.097,-0.271,0.900,-8.824,-9.359,154.855
3.050,0.104,-0.274,0.918,-8.061,-7.511,154.779
3.050,0.110,-0.275,0.918,-7.084,-5.038,154.672
3.060,0.110,-0.274,0.926,-6.580,-3.145,154.122
3.060,0.103,-0.271,0.921,-5.802,-1.664,153.176
3.060,0.102,-0.268,0.925,-4.412,-0.885,151.786
3.070,0.099,-0.267,0.928,-3.557,-0.382,150.046
3.070,0.088,-0.267,0.925,-2.061,-0.397,148.687
3.080,0.059,-0.268,0.923,-0.534,-1.130,147.435
3.080,0.046,-0.263,0.920,0.870,-2.611,146.733
3.080,0.035,-0.268,0.912,1.939,-4.473,145.695
3.090,0.040,-0.268,0.893,2.382,-6.885,144.595
3.090,0.031,-0.271,0.889,3.344,-10.580,143.405
3.100,0.035,-0.277,0.893,3.573,-14.198,142.901
3.100,0.050,-0.285,0.884,3.481,-16.214,143.160
3.110,0.098,-0.289,0.898,2.794,-15.511,143.298
3.110,0.122,-0.296,0.916,2.733,-13.496,143.679
3.110,0.150,-0.291,0.934,2.992,-10.214,144.076
3.120,0.179,-0.295,0.934,2.718,-5.893,144.046
3.120,0.196,-0.289,0.935,2.656,-1.008,143.603
3.130,0.201,-0.290,0.950,2.977,3.878,143.252
3.130,0.196,-0.286,0.942,3.053,8.229,142.977
3.130,0.189,-0.276,0.943,2.809,12.183,142.718
3.140,0.181,-0.261,0.936,2.672,15.527,141.664
3.140,0.173,-0.262,0.929,2.672,17.130,140.412
3.150,0.156,-0.255,0.924,2.763,17.725,138.931
3.150,0.133,-0.249,0.919,2.931,17.405,137.267
3.150,0.107,-0.247,0.917,3.679,16.244,135.374
3.160,0.089,-0.235,0.915,4.000,14.473,133.313
3.160,0.069,-0.237,0.904,5.160,12.427,131.435
3.170,0.038,-0.236,0.910,6.336,9.130,129.420
3.170,0.020,-0.234,0.891,7.618,5.298,128.198
3.170,-0.000,-0.240,0.884,8.275,0.885,127.221
3.180,-0.014,-0.231,0.871,7.985,-3.588,126.626
3.180,0.002,-0.241,0.854,7.008,-5.985,126.107
3.190,0.013,-0.245,0.844,6.092,-7.008,126.046
3.190,0.016,-0.253,0.848,4.641,-7.756,126.168
3.190,0.030,-0.250,0.835,2.733,-7.389,126.534
3.200,0.042,-0.250,0.850,1.221,-5.969,127.206
3.200,0.056,-0.252,0.854,-0.382,-4.092,127.725
3.210,0.062,-0.256,0.854,-2.198,-2.244,128.366
3.210,0.070,-0.252,0.854,-4.046,0.046,128.794
3.220,0.085,-0.246,0.855,-5.634,2.290,128.901
3.220,0.085,-0.247,0.851,-6.626,4.626,129.008
3.220,0.062,-0.249,0.881,-6.931,6.534,129.176
3.230,0.061,-0.251,0.885,-6.458,7.267,129.450
3.230,0.054,-0.249,0.878,-6.107,7.084,129.786
3.240,0.059,-0.249,0.876,-5.924,6.565,129.725
3.240,0.058,-0.247,0.872,-6.046,5.588,129.710
3.240,0.058,-0.243,0.863,-6.412,4.458,129.237
3.250,0.063,-0.247,0.862,-6.351,2.947,128.458
3.250,0.069,-0.253,0.870,-5.710,1.359,127.298
3.260,0.065,-0.253,0.871,-5.496,-1.450,126.412
3.260,0.070,-0.257,0.870,-5.588,-4.260,126.015
3.260,0.090,-0.264,0.863,-6.366,-6.412,125.710
3.270,0.118,-0.260,0.854,-6.992,-8.260,124.534
3.270,0.155,-0.268,0.866,-7.969,-9.679,123.038
3.280,0.175,-0.270,0.871,-8.748,-11.008,121.252
3.280,0.191,-0.276,0.874,-9.298,-12.015,119.527
3.290,0.210,-0.267,0.883,-10.565,-11.771,117.771
3.290,0.236,-0.264,0.895,-11.389,-10.870,115.893
3.290,0.254,-0.269,0.910,-11.038,-9.618,113.557
3.300,0.260,-0.266,0.917,-10.504,-8.107,111.221
3.300,0.257,-0.252,0.925,-10.076,-6.977,108.427
3.310,0.249,-0.255,0.920,-9.527,-6.458,106.046
3.310,0.234,-0.245,0.916,-8.672,-6.198,103.679
3.320,0.223,-0.241,0.896,-8.122,-6.809,101.359
3.320,0.201,-0.233,0.887,-8.015,-7.771,99.725
3.320,0.176,-0.233,0.867,-8.031,-7.954,96.809
3.330,0.151,-0.224,0.851,-8.000,-9.115,95.985
3.330,0.127,-0.231,0.847,-8.122,-11.893,94.015
3.340,0.112,-0.231,0.848,-8.336,-14.443,93.542
3.340,0.101,-0.237,0.849,-8.718,-15.740,93.603
3.340,0.121,-0.246,0.857,-9.618,-15.206,94.137
3.350,0.135,-0.243,0.854,-10.519,-13.450,95.405
3.350,0.159,-0.249,0.865,-10.962,-11.053,95.527
3.360,0.175,-0.253,0.886,-11.176,-8.748,94.031
3.360,0.181,-0.244,0.903,-11.145,-6.168,93.573
3.370,0.187,-0.238,0.900,-11.038,-3.237,93.298
3.370,0.189,-0.221,0.900,-10.733,-0.809,92.977
3.370,0.198,-0.206,0.910,-10.275,0.885,91.786
3.380,0.188,-0.202,0.895,-9.450,1.649,90.305
3.380,0.182,-0.197,0.894,-8.794,1.740,88.702
3.390,0.173,-0.187,0.873,-8.519,0.794,86.687
3.390,0.159,-0.180,0.864,-7.710,-0.855,84.244
3.390,0.147,-0.175,0.852,-7.435,-2.962,81.863
3.400,0.138,-0.176,0.839,-7.237,-5.847,79.786
3.400,0.132,-0.179,0.838,-6.855,-8.550,77.893
3.410,0.140,-0.177,0.832,-6.351,-10.962,76.290
3.410,0.148,-0.180,0.840,-6.672,-11.771,75.160
3.410,0.157,-0.188,0.826,-7.084,-12.244,73.878
3.420,0.170,-0.192,0.827,-7.664,-12.641,72.962
3.420,0.167,-0.193,0.833,-8.611,-12.580,72.443
3.430,0.172,-0.197,0.839,-9.511,-10.916,72.748
3.430,0.185,-0.199,0.849,-9.771,-8.122,73.374
3.430,0.230,-0.212,0.864,-10.122,-1.588,74.550
3.440,0.304,-0.181,0.833,-12.855,15.237,76.473
3.440,0.256,-0.201,0.940,-10.290,18.000,74.733
3.450,0.143,-0.231,0.956,-7.618,2.427,71.573
3.450,0.103,-0.196,0.863,-11.023,-2.626,72.901
3.460,0.165,-0.169,0.771,-14.748,11.328,76.992
3.460,0.205,-0.185,0.795,-14.168,15.511,75.893
3.460,0.204,-0.198,0.912,-13.023,2.427,70.092
3.470,0.241,-0.190,0.917,-12.351,-1.298,66.198
3.470,0.258,-0.188,0.869,-11.481,6.687,64.656
3.480,0.213,-0.183,0.839,-12.718,10.809,64.595
3.480,0.170,-0.183,0.842,-14.733,8.061,64.458
3.480,0.172,-0.195,0.875,-15.038,5.939,63.725
3.490,0.215,-0.205,0.883,-14.595,5.740,62.427
3.490,0.229,-0.213,0.925,-15.008,5.328,61.130
3.500,0.259,-0.213,0.944,-15.282,5.985,59.695
3.500,0.276,-0.225,0.938,-14.718,8.015,58.122
3.500,0.278,-0.219,0.934,-15.206,8.183,56.214
3.510,0.281,-0.220,0.950,-15.328,8.244,54.794
3.510,0.285,-0.224,0.996,-14.122,8.321,53.115
3.520,0.284,-0.231,1.008,-12.214,8.107,51.191
3.520,0.294,-0.223,1.007,-10.763,7.450,49.023
3.530,0.300,-0.208,0.998,-9.420,7.664,46.656
3.530,0.312,-0.207,0.994,-8.504,8.168,44.107
3.530,0.299,-0.211,0.992,-6.809,8.031,41.573
3.540,0.281,-0.209,0.976,-5.328,7.405,39.359
3.540,0.265,-0.199,0.984,-3.863,6.107,36.595
3.550,0.252,-0.205,0.960,-3.252,4.809,34.351
3.550,0.238,-0.192,0.942,-3.130,3.298,31.756
3.550,0.225,-0.190,0.927,-3.282,1.344,29.191
3.560,0.212,-0.182,0.912,-3.847,-0.870,26.260
3.560,0.209,-0.187,0.911,-3.634,-2.168,23.985
3.570,0.187,-0.189,0.902,-3.878,-3.206,22.107
3.570,0.167,-0.197,0.912,-3.740,-4.779,20.336
3.570,0.156,-0.197,0.898,-3.832,-6.656,19.282
3.580,0.130,-0.201,0.903,-3.985,-8.977,18.336
3.580,0.127,-0.204,0.903,-3.878,-10.305,18.290
3.590,0.136,-0.204,0.905,-3.725,-10.031,18.626
3.590,0.134,-0.209,0.906,-3.679,-9.450,18.809
3.590,0.133,-0.210,0.897,-4.015,-8.519,19.450
3.600,0.143,-0.208,0.903,-4.885,-6.977,20.183
3.600,0.154,-0.206,0.915,-5.176,-4.260,20.901
3.610,0.161,-0.207,0.924,-5.145,-1.130,21.557
3.610,0.178,-0.203,0.923,-5.527,2.840,22.290
3.610,0.182,-0.201,0.933,-5.847,6.275,22.718
3.620,0.181,-0.193,0.930,-5.832,9.267,22.885
3.620,0.172,-0.193,0.933,-5.267,11.145,22.748
3.630,0.174,-0.185,0.932,-4.901,11.603,21.893
3.630,0.170,-0.186,0.937,-4.763,11.359,20.672
3.630,0.172,-0.178,0.910,-4.779,10.870,19.145
3.640,0.172,-0.171,0.927,-4.427,9.832,17.725
3.640,0.151,-0.173,0.922,-3.725,7.954,16.061
3.650,0.148,-0.171,0.923,-3.282,5.725,14.504
3.650,0.144,-0.171,0.906,-3.008,4.183,12.656
3.650,0.134,-0.163,0.916,-2.733,2.443,11.267
3.660,0.124,-0.169,0.920,-2.122,1.069,9.924
3.660,0.116,-0.173,0.917,-1.359,-0.244,8.382
3.670,0.105,-0.165,0.905,-0.916,-1.038,7.481
3.670,0.102,-0.174,0.900,-1.069,-1.374,6.870
3.670,0.100,-0.168,0.916,-0.885,-0.855,6.412
3.680,0.102,-0.173,0.920,-0.382,0.595,6.321
3.680,0.091,-0.167,0.921,-0.076,1.924,6.336
3.690,0.088,-0.169,0.913,-0.336,3.099,6.595
3.690,0.079,-0.153,0.905,-0.870,4.489,6.992
3.690,0.077,-0.148,0.903,-1.069,5.679,7.206
3.700,0.082,-0.148,0.905,-0.916,6.977,7.466
3.700,0.080,-0.146,0.914,-0.702,7.618,7.450
3.710,0.079,-0.145,0.901,-0.702,7.389,6.931
3.710,0.069,-0.134,0.902,-1.359,6.916,6.275
3.710,0.079,-0.134,0.902,-1.374,6.458,5.679
3.720,0.079,-0.133,0.915,-0.794,6.519,4.809
3.720,0.074,-0.132,0.927,-0.198,6.443,3.740
3.730,0.069,-0.124,0.917,0.198,5.939,2.534
3.730,0.069,-0.121,0.909,0.412,4.916,1.618
3.730,0.067,-0.120,0.902,0.427,4.122,0.366
3.740,0.062,-0.122,0.911,0.977,3.145,-0.580
3.740,0.048,-0.121,0.913,1.221,2.916,-1.374
3.740,0.039,-0.127,0.906,1.863,2.672,-2.214
3.750,0.023,-0.122,0.903,2.489,2.519,-2.656
3.750,0.004,-0.125,0.888,2.504,1.450,-2.840
3.760,-0.006,-0.124,0.866,1.802,-0.580,-2.824
3.760,-0.005,-0.124,0.877,1.130,-2.229,-2.794
3.760,-0.011,-0.125,0.889,0.733,-3.053,-2.397
3.770,-0.019,-0.130,0.884,0.870,-2.656,-1.496
3.770,-0.011,-0.129,0.891,0.855,-1.313,-0.031
3.780,-0.002,-0.123,0.887,0.672,0.550,1.115
3.780,0.019,-0.124,0.884,0.305,2.504,1.817
3.780,0.023,-0.126,0.887,0.198,4.351,2.733
3.790,0.025,-0.126,0.885,-0.046,6.763,3.191
3.790,0.028,-0.130,0.898,0.092,8.733,3.618
3.800,0.031,-0.127,0.912,0.290,9.817,3.710
3.800,0.026,-0.124,0.904,0.397,10.198,3.588
3.800,0.025,-0.119,0.886,0.519,10.443,3.267
3.810,0.022,-0.117,0.888,0.595,9.954,3.176
3.810,0.016,-0.110,0.885,0.473,8.718,2.748
3.820,0.015,-0.098,0.871,-0.183,7.771,2.595
3.820,0.021,-0.100,0.880,-0.443,6.947,2.137
3.820,0.022,-0.101,0.882,0.031,7.023,1.863
3.830,0.022,-0.095,0.885,0.611,7.298,1.450
3.830,0.021,-0.104,0.885,0.947,6.916,0.931
3.830,0.011,-0.108,0.874,1.023,6.473,0.305
3.840,0.011,-0.108,0.867,0.824,5.313,-0.305
3.840,0.001,-0.107,0.871,0.595,4.321,-0.550
3.850,-0.004,-0.108,0.881,0.534,3.786,-0.473
3.850,0.001,-0.112,0.881,0.290,4.015,-0.260
3.850,0.006,-0.115,0.884,0.427,4.351,0.290
3.860,0.006,-0.114,0.871,0.336,5.038,0.580
3.860,0.007,-0.124,0.889,0.244,5.649,0.977
3.870,0.008,-0.122,0.871,-0.397,6.000,1.160
3.870,0.004,-0.133,0.886,-0.473,6.458,1.328
3.870,0.016,-0.128,0.876,-1.053,6.031,1.267
3.880,0.008,-0.136,0.886,-1.863,4.595,0.748
3.880,0.011,-0.134,0.888,-2.244,3.008,0.382
3.890,0.013,-0.136,0.902,-2.260,1.466,-0.366
3.890,0.015,-0.134,0.904,-2.580,0.641,-0.687
3.890,0.021,-0.138,0.906,-2.626,0.168,-1.176
3.900,0.019,-0.138,0.917,-2.611,-0.153,-1.649
3.900,0.011,-0.140,0.912,-2.153,-0.702,-1.893
3.910,0.011,-0.144,0.917,-1.557,-0.656,-1.893
3.910,-0.001,-0.142,0.926,-1.069,-0.076,-1.710
3.910,0.003,-0.141,0.923,0.000,0.855,-1.221
3.920,-0.005,-0.130,0.908,0.443,1.206,-0.962
3.920,-0.008,-0.128,0.906,0.641,0.962,-0.611
3.930,-0.011,-0.115,0.899,0.809,1.176,-0.214
3.930,-0.000,-0.115,0.899,1.328,2.214,0.107
3.930,0.010,-0.110,0.896,1.710,4.107,0.809
3.940,0.002,-0.100,0.881,1.863,6.076,1.542
3.940,-0.000,-0.097,0.864,1.389,7.176,1.725
3.940,-0.005,-0.086,0.856,1.038,7.664,1.985
3.950,-0.007,-0.085,0.857,0.687,7.817,2.351
3.950,-0.005,-0.083,0.854,0.061,7.634,2.321
3.960,-0.006,-0.085,0.847,-0.214,7.481,2.473
3.960,-0.001,-0.077,0.858,-0.656,7.069,2.366
3.960,0.007,-0.086,0.846,-1.298,6.992,2.015
3.970,0.003,-0.096,0.846,-1.908,6.443,1.603
3.970,0.016,-0.094,0.850,-2.916,5.756,0.977
3.980,0.012,-0.099,0.863,-3.405,4.763,0.153
3.980,0.007,-0.108,0.857,-4.076,4.122,-0.336
3.980,-0.001,-0.104,0.869,-4.809,3.511,-0.748
3.990,-0.004,-0.114,0.893,-5.038,3.267,-0.885
3.990,0.000,-0.117,0.901,-4.824,3.573,-1.282
4.000,0.000,-0.125,0.917,-4.290,3.832,-1.282
4.000,-0.001,-0.120,0.905,-3.603,3.450,-1.359
4.000,-0.014,-0.122,0.924,-3.374,2.580,-1.725
4.010,-0.016,-0.130,0.925,-2.580,1.435,-1.817
4.010,-0.024,-0.127,0.925,-1.985,0.702,-1.969
4.020,-0.023,-0.124,0.909,-1.069,0.550,-1.908
4.020,-0.022,-0.132,0.912,-0.244,0.519,-1.557
4.020,-0.032,-0.137,0.905,-0.412,-0.366,-1.328
4.030,-0.032,-0.131,0.900,-0.702,-0.626,-1.252
4.030,-0.038,-0.135,0.898,-0.534,0.504,-0.763
4.040,-0.043,-0.138,0.914,-0.076,1.939,0.305
4.040,-0.050,-0.138,0.910,0.672,3.435,1.221
4.050,-0.050,-0.138,0.905,0.855,4.641,2.275
4.050,-0.048,-0.144,0.891,1.267,5.221,2.870
4.050,-0.055,-0.146,0.880,1.252,4.794,2.992
4.060,-0.048,-0.141,0.879,0.565,4.076,3.725
4.060,-0.039,-0.144,0.883,-0.015,3.802,3.878
4.060,-0.035,-0.148,0.889,0.229,3.344,4.321
4.070,-0.022,-0.154,0.888,0.626,3.649,4.641
4.070,-0.025,-0.149,0.891,0.702,4.153,5.069
4.080,-0.014,-0.149,0.888,0.244,4.565,5.771
4.080,-0.003,-0.149,0.883,-0.183,5.191,6.061
4.080,0.004,-0.154,0.885,-0.122,5.313,6.015
4.090,0.017,-0.151,0.892,0.290,6.183,5.908
4.090,0.016,-0.158,0.897,0.366,6.580,6.076
4.100,0.026,-0.146,0.889,0.198,6.870,5.893
4.100,0.045,-0.149,0.891,0.061,7.038,5.511
4.100,0.044,-0.135,0.887,-0.031,7.008,4.611
4.110,0.053,-0.132,0.899,0.260,6.290,3.588
