Time,acce_x,acce_y,acce_z,gyro_x,gyro_y,gyro_z
0.000,-0.001,-0.093,0.887,-0.901,-0.229,1.267
0.000,0.004,-0.097,0.895,-0.733,0.702,1.420
0.010,0.003,-0.090,0.893,-0.504,1.069,1.435
0.010,0.000,-0.094,0.883,-0.733,1.008,1.527
0.010,0.008,-0.092,0.877,-0.947,0.763,1.557
0.020,0.013,-0.085,0.865,-1.099,0.947,1.481
0.020,0.011,-0.090,0.864,-1.160,0.824,1.008
0.020,0.014,-0.090,0.859,-1.298,0.580,0.855
0.030,0.006,-0.090,0.870,-1.969,0.137,0.626
0.030,0.012,-0.087,0.865,-2.076,-0.366,0.305
0.030,0.023,-0.100,0.874,-2.214,-0.214,0.290
0.040,0.005,-0.096,0.869,-2.229,-0.107,0.183
0.040,0.019,-0.095,0.878,-2.565,0.015,0.000
0.040,0.016,-0.088,0.876,-2.840,-0.061,0.076
0.050,0.016,-0.096,0.875,-2.672,-0.427,-0.061
0.050,0.004,-0.106,0.890,-1.863,-2.779,-0.718
0.050,-0.003,-0.106,0.926,0.031,-7.954,-1.389
0.060,0.009,-0.123,0.991,5.802,-11.420,-3.695
0.060,0.011,-0.100,0.895,4.885,-11.450,-2.870
0.070,0.017,-0.085,0.816,-0.061,-3.084,-1.374
0.070,0.017,-0.099,0.835,-2.122,-0.794,-0.412
0.080,0.006,-0.107,0.902,-2.168,-2.733,-0.534
0.080,0.015,-0.116,0.927,-1.328,-3.969,-0.916
0.080,0.024,-0.111,0.934,-0.611,-3.573,-0.763
0.090,0.021,-0.113,0.926,0.504,-3.588,-1.359
0.090,0.019,-0.110,0.903,1.588,-3.282,-1.115
0.100,0.016,-0.108,0.890,-0.489,-0.305,-0.260
0.100,0.013,-0.106,0.873,-2.046,2.656,0.916
0.100,0.010,-0.113,0.893,-1.649,3.389,1.282
0.110,0.004,-0.114,0.916,-1.145,2.809,1.466
0.110,0.002,-0.106,0.923,-0.656,2.916,1.542
0.120,0.007,-0.105,0.909,-0.748,2.718,1.847
0.120,0.004,-0.105,0.897,-1.252,2.137,1.878
0.120,0.011,-0.105,0.893,-1.710,1.420,1.527
0.130,0.018,-0.097,0.892,-1.878,0.687,1.145
0.130,0.017,-0.097,0.899,-1.939,0.092,0.870
0.130,0.016,-0.102,0.898,-1.878,-0.092,0.565
0.140,0.023,-0.094,0.892,-1.832,-0.656,0.397
0.140,0.015,-0.090,0.895,-1.618,-1.511,0.290
0.150,0.023,-0.091,0.891,-1.435,-2.153,-0.260
0.150,0.038,-0.092,0.893,-1.038,-1.557,-0.641
0.150,0.033,-0.090,0.889,-0.718,-0.916,-0.687
0.160,0.025,-0.091,0.893,-0.809,-0.611,-0.702
0.160,0.028,-0.095,0.893,-0.641,0.092,-0.550
0.170,0.030,-0.090,0.888,-0.275,0.977,-0.534
0.170,0.020,-0.090,0.888,-0.397,1.008,-0.565
0.170,0.025,-0.096,0.889,-0.794,1.069,-0.779
0.180,0.020,-0.083,0.892,-1.053,0.870,-0.885
0.180,0.022,-0.088,0.892,-1.160,1.267,-1.023
0.190,0.024,-0.090,0.892,-1.420,1.359,-0.824
0.190,0.023,-0.087,0.894,-1.374,1.664,-0.947
0.190,0.016,-0.093,0.882,-1.221,1.802,-1.206
0.200,0.017,-0.094,0.893,-1.252,1.389,-1.527
0.200,0.016,-0.101,0.881,-1.527,0.641,-2.076
0.210,0.015,-0.104,0.884,-1.374,0.168,-2.489
0.210,0.007,-0.103,0.881,-1.618,-0.122,-2.519
0.210,-0.001,-0.099,0.885,-1.939,-0.611,-2.382
0.220,-0.001,-0.097,0.892,-1.802,-1.008,-2.168
0.220,0.002,-0.096,0.894,-1.695,-1.145,-1.802
0.230,-0.001,-0.089,0.900,-1.863,-1.267,-1.435
0.230,-0.007,-0.097,0.895,-1.817,-0.763,-0.947
0.240,-0.001,-0.092,0.881,-1.740,-0.183,-0.473
0.240,0.000,-0.099,0.891,-1.420,0.168,-0.214
0.240,-0.007,-0.094,0.886,-1.679,0.137,-0.061
0.250,-0.004,-0.089,0.865,-2.336,-0.137,0.153
0.250,-0.006,-0.095,0.891,-2.107,-0.076,0.336
0.260,-0.004,-0.093,0.890,-2.244,0.061,0.504
0.260,-0.008,-0.087,0.888,-2.214,-0.473,0.687
0.260,0.000,-0.079,0.884,-2.687,-0.336,0.962
0.270,0.011,-0.079,0.875,-2.504,0.015,1.221
0.270,0.015,-0.076,0.885,-2.076,0.656,1.298
0.280,0.009,-0.076,0.874,-1.710,1.145,1.756
0.280,0.005,-0.073,0.868,-1.511,1.542,1.466
0.280,0.012,-0.080,0.860,-1.710,1.420,1.176
0.290,0.013,-0.086,0.861,-2.290,0.366,0.198
0.290,0.017,-0.084,0.863,-3.145,-0.962,-0.397
0.300,0.022,-0.085,0.874,-3.908,-1.603,-0.809
0.300,0.017,-0.091,0.878,-4.061,-1.267,-1.069
0.300,0.018,-0.087,0.905,-4.321,-1.191,-1.038
0.310,0.007,-0.096,0.906,-4.366,-1.374,-0.763
0.310,0.008,-0.095,0.907,-4.153,-0.779,-0.397
0.320,0.010,-0.092,0.911,-3.832,0.565,0.305
0.320,0.007,-0.095,0.909,-3.557,1.313,0.733
0.320,0.011,-0.102,0.906,-3.389,1.863,0.916
0.330,0.005,-0.105,0.908,-2.840,2.214,1.191
0.330,0.004,-0.101,0.923,-2.412,2.015,1.115
0.340,0.005,-0.108,0.918,-2.534,1.237,0.641
0.340,0.002,-0.105,0.912,-1.450,0.809,0.336
0.340,-0.027,-0.104,0.913,-2.489,-1.542,0.244
0.350,-0.024,-0.092,0.912,-3.527,-5.863,0.137
0.350,-0.000,-0.109,0.922,-2.687,-6.672,-0.397
0.360,0.020,-0.105,0.939,-1.740,-5.771,-0.947
0.360,0.012,-0.099,0.919,-1.267,-5.725,-1.053
0.360,0.010,-0.099,0.916,-1.130,-5.603,-1.008
0.370,0.003,-0.103,0.916,-0.397,-6.092,-0.962
0.370,0.008,-0.105,0.907,0.031,-5.924,-0.779
0.380,0.015,-0.103,0.902,0.519,-4.763,-0.397
0.380,0.008,-0.103,0.909,1.069,-3.634,0.305
0.380,-0.003,-0.104,0.897,1.084,-3.298,0.779
0.390,-0.003,-0.098,0.904,1.374,-2.687,1.328
0.390,-0.003,-0.099,0.899,1.466,-2.580,1.664
0.400,0.015,-0.105,0.889,1.130,-2.931,1.099
0.400,0.021,-0.091,0.896,0.809,-2.244,0.763
0.400,0.025,-0.104,0.883,0.656,-0.885,0.947
0.410,0.011,-0.098,0.893,0.931,-1.069,0.748
0.410,0.011,-0.105,0.884,0.794,-2.076,0.672
0.420,0.012,-0.100,0.882,0.840,-2.519,0.443
0.420,0.017,-0.094,0.870,0.824,-2.519,0.321
0.420,0.019,-0.099,0.864,0.687,-2.656,0.427
0.430,0.021,-0.096,0.876,0.641,-3.038,0.412
0.430,0.019,-0.093,0.857,0.290,-3.160,0.550
0.430,0.022,-0.101,0.870,0.260,-3.053,0.718
0.440,0.021,-0.096,0.863,-0.107,-2.855,0.733
0.440,0.023,-0.095,0.861,-0.702,-2.901,0.702
0.450,0.025,-0.102,0.863,-1.237,-2.748,0.550
0.450,0.030,-0.098,0.864,-1.863,-2.458,0.580
0.450,0.027,-0.097,0.861,-1.954,-1.740,0.519
0.460,0.026,-0.096,0.861,-2.412,-1.328,0.473
0.460,0.030,-0.092,0.865,-3.099,-1.084,0.397
0.470,0.033,-0.091,0.879,-3.176,-0.183,0.382
0.470,0.031,-0.091,0.875,-3.511,0.702,0.351
0.470,0.024,-0.094,0.863,-3.618,0.580,0.519
0.480,0.022,-0.097,0.876,-3.573,0.962,0.763
0.480,0.025,-0.106,0.886,-3.573,1.176,0.733
0.490,0.029,-0.101,0.884,-3.176,2.046,1.069
0.490,0.022,-0.096,0.879,-2.931,2.565,1.313
0.490,0.020,-0.102,0.887,-2.962,2.550,1.511
0.500,0.025,-0.093,0.886,-2.992,2.550,1.328
0.500,0.027,-0.104,0.885,-2.763,2.321,1.481
0.510,0.031,-0.096,0.891,-3.160,1.695,0.962
0.510,0.029,-0.095,0.881,-3.237,1.725,0.687
0.510,0.032,-0.098,0.885,-3.511,1.466,0.489
0.520,0.028,-0.097,0.884,-3.496,1.160,0.092
0.520,0.034,-0.093,0.901,-3.420,0.855,-0.382
0.530,0.035,-0.091,0.894,-3.435,0.962,-0.870
0.530,0.034,-0.086,0.898,-3.435,1.069,-0.992
0.530,0.035,-0.091,0.903,-3.206,1.130,-1.282
0.540,0.022,-0.089,0.887,-3.359,0.198,-1.435
0.540,0.025,-0.091,0.898,-3.618,-0.718,-2.107
0.550,0.029,-0.088,0.892,-3.557,-0.824,-2.595
0.550,0.027,-0.090,0.903,-3.435,-0.198,-2.656
0.550,0.022,-0.085,0.894,-3.374,-0.489,-2.748
0.560,0.015,-0.089,0.908,-3.252,-0.656,-2.748
0.560,0.015,-0.093,0.905,-2.962,-0.427,-2.626
0.570,0.018,-0.093,0.898,-2.992,0.031,-2.275
0.570,0.007,-0.096,0.894,-2.656,0.641,-2.015
0.570,0.003,-0.090,0.899,-2.397,0.748,-1.618
0.580,0.008,-0.093,0.896,-2.321,0.580,-1.649
0.580,0.013,-0.088,0.894,-2.260,0.443,-1.481
0.590,0.014,-0.092,0.891,-2.489,0.748,-1.374
0.590,0.021,-0.088,0.888,-2.672,1.191,-1.481
0.590,0.015,-0.095,0.900,-2.885,1.481,-1.191
0.600,0.019,-0.094,0.891,-2.473,1.771,-1.252
0.600,0.017,-0.092,0.907,-2.305,2.229,-0.931
0.610,0.016,-0.095,0.900,-2.351,2.214,-0.992
0.610,0.031,-0.097,0.903,-1.969,2.733,-1.053
0.610,0.017,-0.100,0.905,-1.267,2.611,-0.824
0.620,0.017,-0.096,0.913,-1.145,2.580,-0.336
0.620,0.034,-0.099,0.907,-0.779,2.947,-0.626
0.630,0.052,-0.107,0.910,-0.473,3.420,-1.527
0.630,0.036,-0.100,0.902,-0.458,3.115,-2.076
0.630,0.027,-0.100,0.906,-0.305,2.489,-2.168
0.640,0.016,-0.106,0.893,-0.076,1.267,-2.718
0.640,0.026,-0.098,0.907,-0.779,-0.061,-2.901
0.650,0.040,-0.109,0.905,-0.885,-0.015,-3.282
0.650,0.025,-0.108,0.903,-0.809,-0.107,-3.618
0.650,0.014,-0.108,0.909,-0.840,-0.885,-3.557
0.660,-0.001,-0.111,0.907,-1.130,-2.427,-3.557
0.660,0.003,-0.105,0.900,-1.130,-3.313,-3.679
0.670,0.009,-0.112,0.905,-1.679,-3.511,-3.756
0.670,0.007,-0.115,0.909,-1.847,-3.634,-3.756
0.670,0.004,-0.112,0.904,-1.466,-3.756,-3.893
0.680,-0.002,-0.108,0.914,-1.252,-4.214,-3.420
0.680,-0.001,-0.108,0.909,-1.298,-3.878,-3.191
0.690,-0.006,-0.108,0.906,-0.931,-3.557,-2.534
0.690,-0.004,-0.104,0.907,-0.595,-3.130,-2.015
0.700,-0.003,-0.106,0.897,-0.473,-2.977,-1.679
0.700,-0.001,-0.110,0.888,-0.504,-3.298,-1.618
0.700,0.001,-0.106,0.893,-0.611,-3.328,-1.099
0.710,0.012,-0.100,0.893,-0.779,-3.237,-0.916
0.710,0.016,-0.102,0.897,-0.580,-3.237,-0.718
0.720,0.017,-0.099,0.900,-0.687,-3.130,-0.748
0.720,0.035,-0.099,0.887,-0.656,-3.435,-0.748
0.720,0.030,-0.099,0.882,-1.038,-3.145,-1.008
0.730,0.032,-0.092,0.880,-1.160,-2.519,-1.115
0.730,0.037,-0.090,0.879,-1.176,-1.954,-0.962
0.740,0.036,-0.093,0.883,-1.237,-1.038,-0.992
0.740,0.040,-0.082,0.883,-1.191,-0.687,-0.702
0.740,0.049,-0.083,0.865,-1.634,-0.336,-1.069
0.750,0.047,-0.089,0.866,-1.603,0.137,-1.710
0.750,0.037,-0.083,0.872,-2.000,-0.519,-2.168
0.760,0.034,-0.081,0.878,-2.351,-1.618,-2.672
0.760,0.037,-0.091,0.887,-2.534,-1.176,-2.824
0.760,0.034,-0.098,0.894,-2.214,-0.763,-3.191
0.770,0.024,-0.088,0.889,-2.061,-0.489,-3.191
0.770,0.025,-0.092,0.882,-1.985,-0.794,-3.084
0.780,0.026,-0.098,0.886,-1.771,-1.023,-3.282
0.780,0.012,-0.102,0.885,-1.618,-0.687,-3.023
0.790,0.019,-0.102,0.884,-1.756,-0.779,-2.962
0.790,0.021,-0.097,0.891,-1.634,-1.099,-2.870
0.790,0.017,-0.101,0.885,-1.756,-0.809,-2.809
0.800,0.006,-0.101,0.879,-2.092,-1.298,-2.626
0.800,0.006,-0.099,0.877,-2.260,-1.771,-2.656
0.810,0.016,-0.096,0.885,-2.397,-2.092,-2.794
0.810,0.014,-0.103,0.885,-2.519,-2.290,-2.504
0.810,0.013,-0.093,0.897,-2.153,-2.107,-2.427
0.820,0.012,-0.097,0.891,-1.908,-1.359,-1.924
0.820,0.021,-0.088,0.891,-1.664,-0.885,-1.756
0.830,0.026,-0.090,0.886,-1.099,0.183,-1.695
0.830,0.024,-0.092,0.887,-0.947,0.336,-1.832
0.830,0.027,-0.093,0.880,-1.282,-0.061,-2.168
0.840,0.027,-0.087,0.868,-1.863,0.092,-2.595
0.840,0.035,-0.082,0.877,-1.969,0.244,-2.504
0.850,0.022,-0.093,0.874,-1.954,0.580,-2.489
0.850,0.012,-0.093,0.877,-1.969,1.130,-2.183
0.850,0.024,-0.087,0.890,-2.122,0.870,-1.863
0.860,0.023,-0.084,0.881,-2.198,1.344,-1.679
0.860,0.031,-0.092,0.888,-2.000,1.802,-1.695
0.870,0.034,-0.083,0.883,-2.015,2.107,-1.603
0.870,0.037,-0.098,0.875,-2.260,2.702,-1.618
0.870,0.045,-0.101,0.887,-1.695,3.450,-1.802
0.880,0.040,-0.095,0.881,-1.527,3.893,-2.061
0.880,0.034,-0.101,0.881,-1.725,4.229,-2.015
0.890,0.038,-0.100,0.887,-2.031,3.847,-1.832
0.890,0.049,-0.103,0.879,-2.076,4.015,-2.000
0.890,0.051,-0.100,0.880,-2.031,3.893,-2.519
0.900,0.047,-0.095,0.883,-2.137,3.893,-2.916
0.900,0.042,-0.103,0.890,-2.336,3.481,-3.145
0.910,0.054,-0.099,0.885,-2.351,3.328,-3.481
0.910,0.051,-0.096,0.893,-2.321,3.542,-3.802
0.910,0.054,-0.098,0.885,-2.366,3.710,-4.076
0.920,0.062,-0.097,0.886,-2.046,4.779,-4.046
0.920,0.057,-0.096,0.879,-2.336,4.748,-4.214
0.930,0.053,-0.093,0.886,-2.748,4.198,-4.290
0.930,0.043,-0.095,0.888,-2.748,3.786,-4.412
0.930,0.059,-0.095,0.881,-2.901,4.198,-4.458
0.940,0.071,-0.096,0.884,-3.221,5.145,-4.382
0.940,0.075,-0.096,0.882,-3.435,5.710,-4.733
0.950,0.079,-0.103,0.889,-3.573,6.458,-4.718
0.950,0.083,-0.096,0.891,-3.573,6.885,-5.206
0.950,0.093,-0.111,0.897,-3.588,7.435,-5.588
0.960,0.094,-0.111,0.895,-3.435,7.557,-6.397
0.960,0.097,-0.104,0.898,-3.160,7.282,-6.840
0.970,0.102,-0.101,0.920,-2.931,7.008,-7.450
0.970,0.111,-0.116,0.912,-2.519,7.420,-8.168
0.970,0.123,-0.113,0.923,-2.244,7.573,-8.412
0.980,0.125,-0.114,0.921,-2.214,8.412,-8.901
0.980,0.146,-0.119,0.930,-1.756,8.763,-9.756
0.990,0.153,-0.120,0.918,-1.511,9.176,-10.489
0.990,0.167,-0.125,0.928,-1.267,9.573,-11.466
0.990,0.176,-0.129,0.922,-0.931,9.710,-12.565
1.000,0.184,-0.126,0.936,-1.298,9.237,-13.802
1.000,0.197,-0.136,0.939,-1.191,9.176,-15.160
1.010,0.208,-0.141,0.957,-0.641,9.710,-16.595
1.010,0.220,-0.142,0.958,0.000,10.031,-17.802
1.010,0.237,-0.147,0.954,0.351,10.382,-19.389
1.020,0.252,-0.144,0.956,0.702,10.947,-21.130
1.020,0.260,-0.158,0.962,1.725,12.076,-23.237
1.030,0.268,-0.150,0.972,2.260,11.450,-25.893
1.030,0.263,-0.151,0.956,3.145,10.641,-28.336
1.030,0.273,-0.156,0.966,3.710,9.634,-30.885
1.040,0.270,-0.149,0.973,4.550,8.504,-33.176
1.040,0.261,-0.158,0.965,5.481,7.542,-36.229
1.050,0.260,-0.151,0.956,5.954,5.435,-38.977
1.050,0.250,-0.158,0.950,6.183,3.374,-41.756
1.050,0.252,-0.154,0.948,6.580,2.168,-44.489
1.060,0.241,-0.153,0.958,7.191,1.588,-46.626
1.060,0.230,-0.161,0.956,7.893,1.160,-48.412
1.070,0.220,-0.166,0.944,8.611,1.344,-49.695
1.070,0.208,-0.171,0.931,8.397,0.702,-50.626
1.070,0.217,-0.164,0.921,7.634,0.641,-51.481
1.080,0.221,-0.174,0.931,7.466,1.237,-51.985
1.080,0.226,-0.179,0.934,7.634,1.985,-52.626
1.090,0.234,-0.182,0.941,7.695,2.046,-53.679
1.090,0.258,-0.184,0.940,7.740,2.550,-54.916
1.090,0.274,-0.196,0.938,7.237,3.191,-56.672
1.100,0.283,-0.200,0.942,7.313,3.099,-58.550
1.100,0.292,-0.196,0.953,7.588,3.740,-60.076
1.110,0.305,-0.195,0.966,7.908,4.046,-61.389
1.110,0.315,-0.191,0.963,7.969,4.458,-63.496
1.110,0.337,-0.194,0.965,8.397,5.206,-65.710
1.120,0.349,-0.190,0.967,9.191,5.267,-68.718
1.120,0.354,-0.192,0.974,9.130,4.779,-71.985
1.130,0.364,-0.183,0.972,9.542,4.748,-75.618
1.130,0.363,-0.178,0.972,10.885,3.374,-79.511
1.130,0.348,-0.180,0.971,11.924,0.275,-83.954
1.140,0.341,-0.178,0.973,12.733,-3.863,-88.687
1.140,0.367,-0.175,0.944,12.351,-5.863,-93.206
1.150,0.373,-0.166,0.942,11.588,-5.038,-97.863
1.150,0.355,-0.171,0.938,12.076,-4.840,-101.924
1.160,0.312,-0.172,0.936,12.244,-6.580,-105.740
1.160,0.276,-0.173,0.914,12.031,-9.298,-108.656
1.160,0.263,-0.172,0.904,11.695,-10.504,-110.794
1.170,0.272,-0.180,0.906,11.618,-10.046,-112.656
1.170,0.260,-0.184,0.896,10.870,-8.855,-114.229
1.180,0.239,-0.191,0.908,10.641,-8.962,-115.985
1.180,0.215,-0.193,0.911,10.092,-10.656,-117.405
1.190,0.201,-0.202,0.904,10.046,-10.107,-118.076
1.190,0.202,-0.216,0.916,10.107,-7.863,-117.908
1.190,0.196,-0.215,0.923,10.580,-6.824,-118.305
1.200,0.199,-0.223,0.927,11.191,-5.176,-118.260
1.200,0.184,-0.235,0.919,11.832,-3.588,-118.244
1.210,0.179,-0.232,0.916,12.779,-1.511,-118.229
1.210,0.176,-0.232,0.911,13.221,0.626,-117.985
1.220,0.168,-0.232,0.902,13.130,2.076,-117.786
1.220,0.172,-0.241,0.909,13.573,3.771,-117.557
1.220,0.166,-0.240,0.906,14.153,5.160,-117.099
1.230,0.161,-0.236,0.906,14.748,6.489,-116.794
1.230,0.176,-0.236,0.894,14.901,7.954,-116.901
1.240,0.179,-0.225,0.877,15.130,9.405,-117.542
1.240,0.173,-0.232,0.877,15.466,10.290,-118.137
1.240,0.171,-0.232,0.870,15.450,10.962,-118.656
1.250,0.168,-0.233,0.866,15.985,11.527,-119.053
1.250,0.151,-0.234,0.864,16.534,10.550,-119.481
1.260,0.141,-0.234,0.858,17.450,8.229,-119.954
1.260,0.146,-0.237,0.849,18.214,6.412,-120.580
1.270,0.160,-0.232,0.830,17.435,6.275,-121.832
1.270,0.172,-0.228,0.805,15.786,7.969,-123.328
1.270,0.178,-0.231,0.797,13.603,8.427,-124.733
1.280,0.177,-0.224,0.809,11.405,7.695,-126.824
1.280,0.161,-0.235,0.819,10.809,7.267,-128.794
1.290,0.171,-0.231,0.815,9.863,6.733,-130.214
1.290,0.150,-0.233,0.826,8.702,5.847,-131.176
1.290,0.141,-0.232,0.812,8.061,6.031,-132.168
1.300,0.138,-0.229,0.825,7.237,5.435,-132.885
1.300,0.124,-0.241,0.819,6.290,4.733,-133.756
1.310,0.133,-0.249,0.826,5.756,4.672,-134.504
1.310,0.119,-0.260,0.821,5.115,4.046,-135.420
1.310,0.118,-0.265,0.821,3.450,2.092,-136.122
1.320,0.115,-0.273,0.826,1.817,1.282,-137.191
1.320,0.120,-0.277,0.839,0.412,1.069,-137.618
1.330,0.112,-0.282,0.850,-1.053,0.885,-137.939
1.330,0.101,-0.286,0.872,-2.198,0.305,-137.817
1.340,0.102,-0.293,0.875,-2.473,0.107,-137.924
1.340,0.109,-0.296,0.893,-2.809,0.397,-138.000
1.340,0.120,-0.299,0.901,-2.183,2.214,-137.985
1.350,0.125,-0.305,0.911,-1.863,3.573,-137.985
1.350,0.131,-0.306,0.930,-0.962,4.962,-138.046
1.360,0.134,-0.313,0.941,0.626,7.847,-138.092
1.360,0.133,-0.314,0.948,2.275,10.550,-138.137
1.360,0.136,-0.303,0.945,4.000,12.626,-138.229
1.370,0.141,-0.311,0.933,5.115,14.672,-138.550
1.370,0.143,-0.310,0.927,6.397,16.183,-139.099
1.380,0.138,-0.306,0.918,7.695,17.053,-139.969
1.380,0.139,-0.309,0.905,8.397,16.931,-141.359
1.390,0.144,-0.307,0.882,7.863,15.863,-143.267
1.390,0.140,-0.309,0.871,7.817,14.565,-145.359
1.390,0.123,-0.305,0.870,7.313,12.458,-146.885
1.400,0.101,-0.313,0.861,7.008,9.267,-147.634
1.400,0.084,-0.317,0.861,6.183,6.656,-148.046
1.410,0.095,-0.318,0.871,5.221,4.656,-148.214
1.410,0.105,-0.315,0.884,4.611,4.137,-148.336
1.410,0.118,-0.316,0.894,4.031,4.351,-148.489
1.420,0.122,-0.323,0.895,3.679,5.466,-148.305
1.420,0.142,-0.326,0.892,3.359,7.115,-147.802
1.430,0.152,-0.322,0.906,2.992,9.527,-147.130
1.430,0.167,-0.325,0.910,3.252,13.145,-146.076
1.430,0.179,-0.324,0.898,2.489,16.962,-144.168
1.440,0.207,-0.313,0.898,1.023,21.221,-143.069
1.440,0.251,-0.311,0.896,0.137,27.634,-142.672
1.450,0.276,-0.313,0.902,-0.580,33.771,-143.160
1.450,0.298,-0.305,0.907,-1.145,38.885,-144.656
1.460,0.312,-0.303,0.930,-1.374,43.863,-146.611
1.460,0.321,-0.299,0.940,-0.473,48.840,-149.634
1.460,0.309,-0.299,0.947,1.130,52.015,-152.534
1.470,0.301,-0.300,0.958,3.023,52.992,-155.679
1.470,0.290,-0.306,0.939,5.084,52.824,-159.496
1.480,0.293,-0.325,0.930,7.084,51.038,-164.962
1.480,0.267,-0.336,0.913,9.298,46.580,-171.206
1.490,0.233,-0.350,0.904,10.809,39.847,-177.450
1.490,0.194,-0.354,0.884,11.679,31.802,-183.557
1.490,0.142,-0.358,0.871,11.023,23.221,-188.504
1.500,0.107,-0.371,0.859,10.076,16.183,-192.412
1.500,0.073,-0.386,0.857,10.061,9.740,-196.290
1.510,0.040,-0.390,0.836,8.931,3.527,-198.931
1.510,0.016,-0.391,0.806,6.458,-0.443,-200.901
1.510,-0.014,-0.394,0.792,3.893,-1.893,-202.489
1.520,-0.042,-0.390,0.781,1.221,-2.504,-203.084
1.520,-0.077,-0.390,0.792,-2.473,-2.885,-203.038
1.530,-0.092,-0.386,0.804,-5.359,-0.809,-201.863
1.530,-0.103,-0.392,0.818,-6.977,3.130,-200.244
1.540,-0.120,-0.395,0.831,-8.473,6.901,-198.641
1.540,-0.142,-0.390,0.858,-9.389,10.305,-196.794
1.540,-0.174,-0.390,0.862,-8.504,13.969,-194.718
1.550,-0.220,-0.387,0.862,-7.573,14.611,-192.565
1.550,-0.239,-0.372,0.873,-6.992,15.740,-189.771
1.560,-0.267,-0.369,0.881,-5.084,17.313,-186.214
1.560,-0.290,-0.360,0.905,-2.595,20.137,-182.092
1.570,-0.312,-0.346,0.903,-0.443,21.252,-177.908
1.570,-0.339,-0.339,0.883,2.458,20.718,-173.679
1.570,-0.365,-0.324,0.870,4.916,19.435,-169.313
1.580,-0.366,-0.314,0.851,6.611,18.015,-164.977
1.580,-0.351,-0.296,0.836,7.634,17.954,-160.870
1.590,-0.341,-0.286,0.810,7.924,19.237,-157.267
1.590,-0.346,-0.274,0.800,8.641,19.786,-154.107
1.600,-0.364,-0.260,0.750,8.168,18.153,-151.115
1.600,-0.372,-0.232,0.721,5.511,15.115,-148.031
1.600,-0.371,-0.229,0.698,3.160,12.214,-145.756
1.610,-0.366,-0.219,0.671,-0.183,9.847,-143.115
1.610,-0.370,-0.207,0.649,-4.214,8.305,-140.397
1.620,-0.376,-0.224,0.626,-8.092,3.160,-139.053
1.620,-0.372,-0.216,0.642,-12.305,-2.519,-138.427
1.630,-0.352,-0.224,0.671,-16.107,-10.458,-137.878
1.630,-0.344,-0.241,0.713,-16.855,-18.931,-138.550
1.640,-0.327,-0.241,0.720,-20.000,-26.718,-140.122
1.640,-0.319,-0.243,0.689,-23.649,-31.374,-141.160
1.640,-0.309,-0.257,0.734,-28.137,-38.153,-142.107
1.650,-0.286,-0.276,0.787,-31.053,-43.802,-144.061
1.650,-0.246,-0.314,0.874,-29.099,-43.069,-145.221
1.660,-0.264,-0.343,0.948,-23.221,-42.809,-145.786
1.660,-0.339,-0.368,1.012,-17.389,-51.069,-144.824
1.670,-0.368,-0.358,0.975,-16.275,-58.641,-142.611
1.670,-0.359,-0.356,0.938,-14.702,-56.183,-137.725
1.680,-0.362,-0.348,0.998,-15.405,-52.672,-130.397
1.680,-0.371,-0.360,1.015,-14.534,-46.336,-123.344
1.680,-0.364,-0.367,1.027,-11.603,-36.244,-115.786
1.690,-0.378,-0.353,1.021,-9.023,-28.473,-108.702
1.690,-0.373,-0.348,1.007,-7.267,-21.084,-102.168
1.700,-0.367,-0.339,1.003,-5.221,-12.885,-95.511
1.700,-0.348,-0.331,0.981,-3.206,-5.893,-89.573
1.710,-0.340,-0.327,0.960,-2.260,-0.931,-84.198
1.710,-0.337,-0.312,0.932,-1.771,3.298,-80.000
1.720,-0.320,-0.307,0.919,-1.282,7.756,-76.489
1.720,-0.310,-0.289,0.908,-0.733,9.710,-73.710
1.720,-0.298,-0.280,0.903,-0.504,10.885,-72.260
1.730,-0.282,-0.256,0.891,-0.412,10.290,-70.992
1.730,-0.269,-0.253,0.876,-0.702,9.679,-70.244
1.740,-0.271,-0.240,0.882,0.015,7.710,-69.771
1.740,-0.278,-0.221,0.877,0.595,6.641,-68.076
1.740,-0.279,-0.215,0.871,0.611,6.076,-66.366
1.750,-0.261,-0.193,0.866,1.099,5.725,-64.824
1.750,-0.241,-0.180,0.862,1.847,6.366,-63.099
1.760,-0.226,-0.177,0.851,2.015,7.985,-61.634
1.760,-0.204,-0.157,0.844,1.786,10.473,-59.802
1.760,-0.181,-0.159,0.843,1.710,13.206,-58.656
1.770,-0.161,-0.161,0.843,1.511,15.710,-58.382
1.770,-0.144,-0.150,0.839,1.008,18.580,-57.420
1.780,-0.121,-0.148,0.829,0.443,21.405,-56.763
1.780,-0.114,-0.150,0.851,1.008,23.237,-56.840
1.790,-0.103,-0.157,0.838,0.702,24.092,-56.947
1.790,-0.093,-0.181,0.855,0.794,24.718,-57.389
1.790,-0.094,-0.192,0.855,1.313,24.137,-58.427
1.800,-0.100,-0.207,0.864,1.328,21.679,-59.695
1.800,-0.109,-0.208,0.870,0.931,18.733,-60.687
1.810,-0.112,-0.219,0.875,1.191,16.290,-61.298
1.810,-0.118,-0.221,0.901,1.344,13.435,-61.710
1.810,-0.118,-0.225,0.901,1.328,10.626,-62.427
1.820,-0.121,-0.223,0.907,1.527,8.214,-63.130
1.820,-0.115,-0.225,0.924,1.985,6.519,-63.527
1.830,-0.108,-0.228,0.936,2.702,5.771,-64.183
1.830,-0.103,-0.227,0.942,3.710,6.153,-64.626
1.840,-0.118,-0.225,0.943,5.603,7.206,-64.718
1.840,-0.150,-0.223,0.918,6.824,7.344,-64.076
1.840,-0.169,-0.206,0.913,7.115,6.595,-63.099
1.850,-0.187,-0.206,0.888,6.901,6.656,-61.847
1.850,-0.188,-0.194,0.886,6.824,7.176,-60.366
1.860,-0.202,-0.186,0.859,6.611,7.496,-58.672
1.860,-0.210,-0.183,0.850,6.122,7.344,-57.038
1.860,-0.207,-0.172,0.832,4.763,6.962,-55.557
1.870,-0.196,-0.175,0.850,4.336,6.885,-54.611
1.870,-0.202,-0.173,0.837,4.489,6.656,-53.618
1.880,-0.213,-0.164,0.837,3.908,6.595,-52.489
1.880,-0.203,-0.165,0.833,2.992,5.832,-50.885
1.880,-0.205,-0.154,0.837,2.626,5.573,-49.344
1.890,-0.198,-0.151,0.837,2.153,5.145,-47.771
1.890,-0.182,-0.135,0.829,1.069,5.191,-46.244
1.900,-0.166,-0.140,0.836,0.107,6.000,-44.504
1.900,-0.159,-0.130,0.836,-0.687,7.298,-42.992
1.900,-0.145,-0.129,0.847,-1.878,8.229,-41.557
1.910,-0.121,-0.131,0.852,-2.473,9.679,-40.183
1.910,-0.112,-0.122,0.859,-2.672,11.008,-38.962
1.920,-0.106,-0.112,0.862,-2.992,12.336,-38.198
1.920,-0.089,-0.117,0.875,-3.298,13.603,-37.252
1.930,-0.086,-0.125,0.889,-2.992,14.397,-36.794
1.930,-0.087,-0.115,0.891,-2.290,14.611,-36.076
1.930,-0.079,-0.115,0.888,-1.878,15.038,-35.374
1.940,-0.064,-0.116,0.885,-1.939,15.649,-34.885
1.940,-0.054,-0.118,0.882,-2.107,16.794,-34.229
1.950,-0.049,-0.113,0.885,-2.092,17.939,-34.382
1.950,-0.039,-0.120,0.895,-1.679,18.626,-34.565
1.960,-0.051,-0.117,0.890,-1.115,18.550,-34.656
1.960,-0.061,-0.113,0.883,-0.504,18.229,-34.229
1.960,-0.075,-0.108,0.891,-0.611,17.527,-33.252
1.970,-0.074,-0.115,0.894,-0.412,17.695,-31.771
1.970,-0.062,-0.112,0.890,-0.168,18.718,-30.672
1.980,-0.046,-0.112,0.897,-0.641,19.969,-30.031
1.980,-0.035,-0.109,0.895,-0.824,22.290,-29.664
1.990,-0.038,-0.118,0.900,-0.611,24.107,-29.603
1.990,-0.043,-0.115,0.897,-0.427,25.008,-29.832
1.990,-0.040,-0.111,0.887,-0.702,26.076,-30.092
2.000,-0.041,-0.115,0.885,-1.145,27.405,-30.046
2.000,-0.062,-0.110,0.886,-1.405,27.710,-30.733
2.010,-0.065,-0.113,0.885,-1.618,27.130,-31.786
2.010,-0.063,-0.117,0.879,-2.183,26.321,-33.221
2.020,-0.076,-0.117,0.870,-3.053,24.763,-34.901
2.020,-0.085,-0.125,0.872,-3.725,22.977,-36.626
2.020,-0.112,-0.138,0.887,-3.725,20.595,-37.695
2.030,-0.151,-0.149,0.900,-3.389,17.756,-38.061
2.030,-0.189,-0.148,0.895,-2.443,15.023,-37.221
2.040,-0.226,-0.159,0.913,-2.290,11.832,-34.870
2.040,-0.236,-0.165,0.926,-1.191,9.863,-32.168
2.040,-0.241,-0.170,0.942,0.489,9.237,-29.573
2.050,-0.238,-0.170,0.949,1.863,9.863,-26.519
2.050,-0.236,-0.171,0.945,2.977,11.038,-23.969
2.060,-0.240,-0.172,0.941,4.534,12.611,-21.389
2.060,-0.232,-0.168,0.948,5.542,13.618,-19.328
2.070,-0.228,-0.167,0.933,6.702,14.702,-17.374
2.070,-0.235,-0.164,0.937,7.924,15.496,-15.771
2.070,-0.233,-0.159,0.907,8.366,15.252,-14.076
2.080,-0.224,-0.146,0.892,8.321,14.244,-13.176
2.080,-0.222,-0.151,0.883,8.733,12.244,-12.687
2.090,-0.226,-0.142,0.871,9.282,9.618,-12.565
2.090,-0.222,-0.137,0.852,9.435,5.496,-12.519
2.090,-0.217,-0.126,0.842,8.840,0.962,-13.206
2.100,-0.211,-0.125,0.844,8.244,-2.809,-13.389
2.100,-0.195,-0.115,0.835,7.771,-6.534,-13.588
2.110,-0.192,-0.109,0.836,7.099,-10.046,-14.015
2.110,-0.184,-0.108,0.835,6.397,-12.702,-14.595
2.120,-0.172,-0.099,0.832,6.122,-15.069,-14.580
2.120,-0.173,-0.095,0.827,5.832,-17.374,-14.061
2.120,-0.184,-0.088,0.822,5.649,-18.443,-12.687
2.130,-0.181,-0.083,0.809,4.718,-18.580,-10.443
2.130,-0.157,-0.070,0.812,3.206,-16.687,-8.443
2.140,-0.145,-0.077,0.821,2.519,-13.679,-6.794
2.140,-0.137,-0.078,0.834,2.611,-10.244,-5.038
2.140,-0.135,-0.071,0.809,2.229,-7.771,-3.557
2.150,-0.126,-0.061,0.802,1.023,-5.527,-2.183
2.150,-0.114,-0.058,0.805,0.076,-2.824,-1.267
2.160,-0.105,-0.058,0.809,-0.366,-0.168,-0.595
2.160,-0.101,-0.054,0.804,-0.901,2.015,-0.519
2.170,-0.098,-0.062,0.810,-1.298,2.962,-0.840
2.170,-0.099,-0.050,0.819,-1.450,2.718,-1.313
2.170,-0.108,-0.058,0.814,-1.908,1.649,-1.969
2.180,-0.111,-0.065,0.824,-1.908,-0.534,-2.489
2.180,-0.110,-0.066,0.815,-2.153,-2.580,-3.511
2.190,-0.119,-0.083,0.815,-1.969,-5.053,-4.779
2.190,-0.133,-0.090,0.812,-2.244,-8.519,-5.466
2.190,-0.135,-0.087,0.820,-3.206,-12.046,-6.382
2.200,-0.135,-0.096,0.814,-3.542,-14.534,-6.885
2.200,-0.148,-0.102,0.841,-3.771,-16.275,-7.206
2.210,-0.161,-0.104,0.840,-3.450,-17.557,-6.885
2.210,-0.176,-0.108,0.831,-3.374,-18.000,-6.061
2.220,-0.180,-0.102,0.824,-4.183,-19.221,-5.069
2.220,-0.188,-0.103,0.833,-4.580,-18.824,-3.450
2.220,-0.199,-0.114,0.834,-4.565,-17.847,-1.511
2.230,-0.212,-0.110,0.824,-5.206,-17.008,0.534
2.230,-0.219,-0.107,0.835,-6.198,-16.397,2.458
2.240,-0.207,-0.117,0.838,-6.137,-15.084,4.183
2.240,-0.219,-0.121,0.841,-6.000,-14.382,6.183
2.240,-0.232,-0.118,0.852,-5.725,-14.305,8.336
2.250,-0.238,-0.119,0.844,-5.802,-14.214,10.962
2.250,-0.244,-0.125,0.849,-5.588,-14.321,13.328
2.260,-0.233,-0.126,0.850,-4.962,-14.427,16.015
2.260,-0.235,-0.127,0.849,-4.580,-14.733,17.817
2.270,-0.218,-0.132,0.857,-4.321,-15.115,20.122
2.270,-0.202,-0.136,0.858,-4.153,-15.145,21.954
2.270,-0.177,-0.135,0.868,-3.405,-14.107,23.359
2.280,-0.176,-0.147,0.862,-2.656,-12.504,24.748
2.280,-0.166,-0.141,0.871,-3.191,-11.725,26.687
2.290,-0.150,-0.144,0.864,-3.649,-11.313,27.695
2.290,-0.138,-0.146,0.858,-3.939,-10.763,28.779
2.300,-0.134,-0.151,0.867,-4.489,-10.763,29.282
2.300,-0.133,-0.155,0.873,-4.565,-9.817,29.573
2.300,-0.136,-0.164,0.877,-4.519,-9.573,30.229
2.310,-0.148,-0.169,0.876,-5.008,-10.321,30.382
2.310,-0.149,-0.171,0.881,-5.023,-10.977,30.397
2.320,-0.171,-0.172,0.896,-3.969,-11.328,30.229
2.320,-0.180,-0.172,0.921,-1.985,-12.427,29.725
2.330,-0.200,-0.177,0.930,-1.603,-15.176,30.305
2.330,-0.230,-0.176,0.911,-1.298,-15.588,31.313
2.330,-0.257,-0.181,0.911,0.000,-15.985,32.641
2.340,-0.286,-0.174,0.919,1.511,-18.305,34.321
2.340,-0.324,-0.181,0.917,2.489,-20.885,36.305
2.350,-0.349,-0.181,0.899,3.725,-21.496,38.916
2.350,-0.365,-0.180,0.876,4.321,-22.412,42.092
2.350,-0.382,-0.183,0.878,4.519,-23.527,45.649
2.360,-0.391,-0.183,0.874,4.504,-24.290,49.328
2.360,-0.402,-0.187,0.856,4.000,-24.366,53.435
2.370,-0.403,-0.185,0.852,3.267,-24.412,58.015
2.370,-0.409,-0.191,0.834,2.489,-23.466,62.580
2.380,-0.397,-0.190,0.832,1.450,-21.786,67.817
2.380,-0.393,-0.189,0.825,-0.061,-19.557,73.420
2.380,-0.373,-0.192,0.840,-1.405,-16.382,78.962
2.390,-0.343,-0.196,0.848,-2.382,-12.656,83.939
2.390,-0.328,-0.193,0.853,-2.962,-8.519,89.130
2.400,-0.305,-0.196,0.866,-3.511,-4.580,93.527
2.400,-0.294,-0.189,0.860,-4.321,-1.389,98.397
2.410,-0.278,-0.188,0.859,-4.656,1.069,101.725
2.410,-0.269,-0.188,0.850,-5.756,2.275,104.397
2.410,-0.245,-0.184,0.842,-6.702,3.084,106.931
2.420,-0.220,-0.188,0.861,-7.878,3.863,108.565
2.420,-0.188,-0.187,0.851,-8.351,4.748,109.374
2.430,-0.171,-0.184,0.846,-8.489,4.641,109.145
2.430,-0.156,-0.188,0.857,-8.611,3.573,108.168
2.430,-0.152,-0.186,0.856,-8.305,0.962,106.321
2.440,-0.142,-0.191,0.858,-8.336,-2.611,104.519
2.440,-0.163,-0.191,0.849,-8.015,-6.947,102.931
2.450,-0.171,-0.182,0.869,-7.511,-10.397,102.183
2.450,-0.174,-0.187,0.871,-6.397,-13.908,101.771
2.460,-0.167,-0.183,0.882,-5.618,-16.870,101.389
2.460,-0.156,-0.186,0.862,-4.565,-19.038,101.038
2.460,-0.157,-0.188,0.865,-3.710,-19.908,101.084
2.470,-0.165,-0.192,0.863,-3.237,-20.412,101.924
2.470,-0.177,-0.191,0.871,-2.748,-21.267,102.855
2.480,-0.165,-0.195,0.876,-1.802,-19.908,104.305
2.480,-0.172,-0.205,0.872,-0.794,-16.901,106.214
2.490,-0.192,-0.203,0.870,0.061,-13.908,108.809
2.490,-0.209,-0.198,0.873,1.206,-12.076,111.466
2.490,-0.219,-0.191,0.854,1.725,-10.687,114.031
2.500,-0.212,-0.190,0.845,1.267,-8.748,116.305
2.500,-0.211,-0.201,0.841,1.176,-5.252,119.023
2.510,-0.209,-0.202,0.838,1.176,-2.168,121.634
2.510,-0.219,-0.204,0.849,1.573,0.092,123.924
2.520,-0.215,-0.203,0.821,0.977,2.992,126.473
2.520,-0.212,-0.208,0.818,-0.076,5.679,128.779
2.520,-0.222,-0.205,0.802,-1.176,7.267,131.420
2.530,-0.220,-0.208,0.811,-3.038,8.366,134.107
2.530,-0.210,-0.215,0.808,-4.397,9.618,136.336
2.540,-0.195,-0.209,0.805,-6.672,10.565,138.412
2.540,-0.167,-0.211,0.803,-9.313,11.450,139.115
2.540,-0.147,-0.213,0.808,-11.802,12.992,139.405
2.550,-0.127,-0.211,0.823,-14.763,13.405,138.779
2.550,-0.124,-0.222,0.852,-15.389,10.504,136.931
2.560,-0.124,-0.223,0.866,-15.053,6.046,134.779
2.560,-0.134,-0.221,0.867,-15.344,2.290,133.206
2.570,-0.147,-0.227,0.866,-15.496,-0.947,132.534
2.570,-0.147,-0.232,0.869,-14.947,-5.023,131.817
2.570,-0.149,-0.233,0.887,-14.198,-8.550,131.389
2.580,-0.146,-0.244,0.887,-13.603,-11.496,131.099
2.580,-0.143,-0.252,0.885,-12.733,-14.290,130.824
2.590,-0.139,-0.249,0.902,-12.183,-16.901,130.504
2.590,-0.137,-0.260,0.905,-11.298,-18.305,130.901
2.600,-0.129,-0.265,0.918,-10.779,-18.366,131.740
2.600,-0.114,-0.269,0.909,-10.107,-16.992,132.733
2.610,-0.116,-0.280,0.907,-10.321,-15.847,133.847
2.610,-0.111,-0.279,0.914,-10.168,-14.702,134.687
2.610,-0.103,-0.278,0.917,-10.107,-13.008,135.771
2.620,-0.111,-0.278,0.921,-9.588,-10.962,136.855
2.620,-0.115,-0.275,0.908,-9.389,-9.634,138.183
2.630,-0.124,-0.276,0.914,-9.023,-9.237,138.977
2.630,-0.126,-0.276,0.910,-8.443,-8.794,139.863
2.640,-0.133,-0.281,0.911,-7.359,-8.489,140.870
2.640,-0.147,-0.275,0.896,-6.321,-7.924,142.336
2.640,-0.156,-0.271,0.883,-6.061,-9.145,143.634
2.650,-0.156,-0.263,0.874,-6.153,-11.115,144.580
2.650,-0.148,-0.265,0.866,-6.153,-11.649,145.863
2.660,-0.156,-0.262,0.857,-6.321,-11.771,147.252
2.660,-0.155,-0.263,0.871,-6.641,-11.710,148.794
2.670,-0.140,-0.273,0.855,-6.626,-11.313,150.122
2.670,-0.118,-0.273,0.844,-7.145,-10.412,150.901
2.670,-0.092,-0.269,0.849,-8.718,-9.267,151.221
2.680,-0.067,-0.278,0.841,-9.496,-8.321,151.084
2.680,-0.059,-0.282,0.851,-10.550,-7.802,150.702
2.690,-0.042,-0.282,0.854,-11.786,-8.763,150.076
2.690,-0.024,-0.290,0.867,-12.244,-9.267,149.008
2.700,-0.008,-0.297,0.874,-12.962,-10.412,147.878
2.700,0.001,-0.305,0.882,-13.160,-11.511,146.840
2.710,0.008,-0.312,0.898,-12.901,-13.115,145.481
2.710,0.024,-0.307,0.904,-12.733,-15.374,143.664
2.710,0.042,-0.314,0.911,-11.924,-16.534,141.405
2.720,0.042,-0.304,0.929,-10.992,-17.069,139.221
2.720,0.037,-0.302,0.930,-9.985,-17.237,137.008
2.730,0.027,-0.303,0.921,-8.244,-17.863,135.023
2.730,0.017,-0.298,0.910,-7.634,-19.863,133.221
2.740,0.005,-0.293,0.905,-7.466,-21.282,131.344
2.740,-0.014,-0.303,0.900,-6.382,-22.046,130.015
2.740,-0.043,-0.300,0.889,-5.710,-22.870,129.420
2.750,-0.071,-0.292,0.885,-4.977,-23.664,129.084
2.750,-0.078,-0.300,0.888,-4.183,-24.565,129.389
2.760,-0.100,-0.304,0.880,-3.664,-25.466,129.710
2.760,-0.124,-0.306,0.875,-2.916,-25.603,130.992
2.770,-0.144,-0.307,0.881,-2.840,-26.305,132.443
2.770,-0.135,-0.314,0.884,-2.504,-26.840,133.557
2.770,-0.146,-0.332,0.858,-1.710,-26.901,134.687
2.780,-0.153,-0.326,0.857,-2.656,-27.389,136.122
2.780,-0.148,-0.335,0.850,-3.466,-27.176,138.244
2.790,-0.134,-0.350,0.854,-3.466,-26.718,140.107
2.790,-0.121,-0.362,0.860,-4.229,-26.031,142.198
2.800,-0.104,-0.369,0.855,-5.435,-25.191,143.786
2.800,-0.070,-0.378,0.856,-6.779,-24.427,145.053
2.800,-0.049,-0.384,0.868,-8.168,-23.557,145.405
2.810,-0.018,-0.394,0.888,-9.023,-22.275,145.893
2.810,-0.009,-0.391,0.906,-9.634,-21.664,145.817
2.820,0.009,-0.393,0.926,-9.267,-21.115,145.221
2.820,0.031,-0.396,0.936,-8.702,-21.145,143.969
2.830,0.025,-0.398,0.948,-7.298,-20.794,142.687
2.830,0.016,-0.388,0.939,-5.679,-21.084,141.130
2.830,0.005,-0.379,0.919,-4.458,-22.763,139.740
2.840,-0.005,-0.370,0.922,-3.237,-24.809,138.519
2.840,-0.022,-0.367,0.903,-1.710,-27.328,136.794
2.850,-0.044,-0.364,0.878,-0.519,-30.046,135.588
2.850,-0.058,-0.366,0.865,-0.168,-32.672,134.962
2.860,-0.082,-0.358,0.841,0.092,-35.695,134.748
2.860,-0.097,-0.365,0.825,-0.214,-38.534,134.718
2.860,-0.101,-0.375,0.809,-0.718,-41.252,135.954
2.870,-0.098,-0.374,0.809,-1.527,-41.740,138.748
2.870,-0.083,-0.373,0.804,-2.870,-39.832,141.985
2.880,-0.043,-0.378,0.801,-4.580,-36.947,144.687
2.880,-0.005,-0.377,0.816,-5.908,-32.962,146.412
2.890,0.029,-0.376,0.829,-7.115,-28.473,148.366
2.890,0.047,-0.382,0.847,-8.473,-23.847,150.000
2.900,0.081,-0.369,0.863,-8.763,-18.916,151.389
2.900,0.106,-0.358,0.862,-8.931,-15.267,152.000
2.900,0.123,-0.355,0.869,-8.977,-12.382,152.015
2.910,0.120,-0.349,0.866,-8.779,-10.397,151.908
2.910,0.113,-0.350,0.864,-8.137,-10.229,150.901
2.920,0.111,-0.336,0.867,-7.817,-12.458,149.573
2.920,0.115,-0.337,0.858,-6.901,-14.763,147.496
2.920,0.116,-0.338,0.861,-5.389,-17.481,145.374
2.930,0.088,-0.335,0.850,-4.397,-20.611,143.649
2.930,0.076,-0.336,0.828,-3.771,-24.031,141.893
2.940,0.067,-0.338,0.823,-3.756,-28.031,140.015
2.940,0.052,-0.336,0.806,-3.710,-31.374,138.275
2.950,0.039,-0.346,0.791,-3.405,-34.550,137.664
2.950,0.029,-0.353,0.787,-3.710,-36.870,137.969
2.950,0.019,-0.363,0.778,-4.763,-38.183,139.802
2.960,0.046,-0.371,0.792,-6.229,-37.817,141.893
2.960,0.077,-0.380,0.796,-7.924,-35.511,143.725
2.970,0.110,-0.400,0.820,-9.267,-32.031,145.359
2.970,0.138,-0.406,0.840,-9.985,-27.038,147.160
2.980,0.160,-0.401,0.855,-10.595,-21.374,149.176
2.980,0.191,-0.402,0.882,-10.779,-15.176,151.588
2.980,0.228,-0.410,0.894,-9.985,-8.214,153.145
2.990,0.252,-0.407,0.900,-9.939,-2.321,153.740
2.990,0.298,-0.396,0.912,-9.435,3.527,153.237
3.000,0.309,-0.389,0.906,-8.931,7.084,151.573
3.000,0.312,-0.383,0.900,-7.863,8.305,149.221
3.010,0.308,-0.383,0.930,-6.901,7.420,146.733
3.010,0.311,-0.377,0.924,-5.679,5.710,144.168
3.010,0.315,-0.367,0.922,-4.305,4.550,141.466
3.020,0.324,-0.361,0.909,-3.695,2.107,138.031
3.020,0.326,-0.358,0.900,-3.221,-1.527,134.382
3.030,0.323,-0.358,0.898,-1.664,-5.145,131.023
3.030,0.327,-0.357,0.882,-0.809,-8.305,128.595
3.030,0.347,-0.346,0.892,-1.099,-10.687,126.061
3.040,0.382,-0.343,0.871,-1.466,-11.435,123.389
3.040,0.416,-0.335,0.883,-2.092,-10.977,120.031
3.050,0.440,-0.333,0.885,-2.321,-9.603,115.725
3.050,0.460,-0.321,0.898,-2.809,-8.183,111.969
3.050,0.454,-0.305,0.911,-2.947,-6.595,107.878
3.060,0.449,-0.295,0.929,-2.626,-4.595,104.321
3.060,0.434,-0.292,0.923,-1.771,-3.359,101.206
3.070,0.417,-0.278,0.919,-1.176,-1.893,98.229
3.070,0.385,-0.262,0.899,-0.519,-1.771,95.695
3.080,0.378,-0.262,0.896,-1.008,-2.153,92.351
3.080,0.384,-0.239,0.880,-0.214,2.397,90.351
3.080,0.461,-0.215,0.929,-3.099,22.229,93.435
3.090,0.298,-0.306,0.938,4.779,15.282,89.557
3.090,0.238,-0.273,0.886,4.473,1.206,88.198
3.100,0.257,-0.252,0.851,0.122,-4.794,88.076
3.100,0.328,-0.237,0.825,-2.855,-0.382,88.427
3.100,0.349,-0.252,0.862,-2.290,-0.870,86.763
3.110,0.338,-0.264,0.900,-2.519,-9.145,83.649
3.110,0.352,-0.243,0.883,-3.389,-15.863,80.031
3.120,0.416,-0.241,0.863,-5.176,-14.183,78.183
3.120,0.416,-0.241,0.885,-6.565,-15.023,75.649
3.120,0.454,-0.233,0.890,-7.115,-7.725,73.389
3.130,0.456,-0.237,0.902,-6.611,0.137,71.542
3.130,0.441,-0.233,0.925,-5.557,4.351,68.840
3.140,0.402,-0.230,0.922,-3.954,3.435,65.878
3.140,0.353,-0.222,0.907,-3.527,-0.702,63.145
3.140,0.321,-0.205,0.885,-4.916,-5.313,61.069
3.150,0.311,-0.198,0.864,-6.092,-8.122,59.282
3.150,0.300,-0.200,0.873,-6.718,-11.603,57.115
3.160,0.310,-0.208,0.872,-6.626,-13.756,54.534
3.160,0.310,-0.210,0.874,-6.015,-15.206,52.046
3.170,0.295,-0.214,0.867,-6.046,-16.504,50.076
3.170,0.295,-0.198,0.853,-6.397,-17.023,48.397
3.170,0.285,-0.212,0.840,-6.885,-18.580,46.641
3.180,0.289,-0.204,0.851,-7.573,-19.023,45.145
3.180,0.289,-0.203,0.854,-7.374,-16.977,43.954
3.190,0.273,-0.204,0.851,-7.191,-16.977,42.412
3.190,0.262,-0.203,0.855,-7.756,-19.374,40.763
3.190,0.268,-0.199,0.844,-9.374,-19.450,39.802
3.200,0.276,-0.195,0.844,-10.840,-16.534,38.702
3.200,0.272,-0.196,0.867,-11.267,-12.260,38.000
3.210,0.261,-0.195,0.871,-11.130,-9.450,37.206
3.210,0.251,-0.204,0.872,-10.901,-7.282,36.198
3.220,0.235,-0.202,0.855,-11.252,-5.954,35.542
3.220,0.235,-0.196,0.879,-11.511,-5.740,34.702
3.220,0.229,-0.199,0.895,-10.885,-4.901,34.168
3.230,0.234,-0.195,0.902,-9.908,-4.000,33.450
3.230,0.228,-0.198,0.904,-9.328,-3.634,32.611
3.240,0.243,-0.196,0.904,-9.115,-3.450,31.115
3.240,0.249,-0.199,0.910,-8.779,-3.542,29.389
3.240,0.253,-0.194,0.906,-7.893,-3.145,27.710
3.250,0.253,-0.195,0.927,-7.634,-2.748,26.168
3.250,0.252,-0.186,0.917,-7.038,-2.611,24.534
3.260,0.260,-0.192,0.930,-6.580,-2.198,22.794
3.260,0.259,-0.188,0.926,-6.214,-1.573,20.855
3.260,0.256,-0.181,0.931,-4.947,-0.687,18.458
3.270,0.250,-0.178,0.936,-4.489,0.000,16.885
3.270,0.229,-0.177,0.922,-3.908,-0.565,14.824
3.280,0.230,-0.171,0.924,-3.496,-0.321,13.313
3.280,0.226,-0.167,0.918,-3.359,-0.122,11.130
3.280,0.214,-0.171,0.913,-2.718,-0.137,8.977
3.290,0.190,-0.169,0.911,-2.183,-1.969,6.611
3.290,0.179,-0.162,0.895,-2.580,-3.466,4.885
3.300,0.167,-0.165,0.917,-2.473,-4.870,3.130
3.300,0.157,-0.167,0.914,-1.756,-5.435,1.863
3.300,0.140,-0.161,0.910,-1.435,-5.496,1.160
3.310,0.125,-0.166,0.906,-1.099,-5.893,0.565
3.310,0.124,-0.159,0.906,-1.099,-5.954,0.443
3.320,0.121,-0.166,0.904,-0.321,-5.130,0.122
3.320,0.106,-0.165,0.906,0.244,-4.763,0.122
3.320,0.099,-0.162,0.899,0.275,-4.382,0.519
3.330,0.097,-0.159,0.901,0.794,-2.534,1.374
3.330,0.091,-0.159,0.886,0.992,-0.824,2.183
3.340,0.088,-0.158,0.884,0.763,0.595,2.916
3.340,0.097,-0.152,0.878,0.229,1.695,3.679
3.340,0.090,-0.157,0.884,0.122,2.962,4.305
3.350,0.089,-0.152,0.877,-0.244,3.969,4.641
3.350,0.081,-0.143,0.888,-0.626,4.305,5.023
3.360,0.083,-0.143,0.872,-0.885,4.687,5.191
3.360,0.082,-0.143,0.881,-1.206,4.397,5.405
3.360,0.088,-0.144,0.881,-1.328,4.183,5.282
3.370,0.089,-0.147,0.876,-1.221,3.649,5.069
3.370,0.086,-0.137,0.881,-1.023,3.328,4.809
3.380,0.074,-0.144,0.874,-1.359,3.496,4.870
3.380,0.077,-0.146,0.879,-1.160,3.191,4.580
3.380,0.066,-0.147,0.877,-0.244,2.168,4.031
3.390,0.052,-0.144,0.872,0.061,-0.305,3.557
3.390,0.060,-0.137,0.875,-1.496,-2.748,3.237
3.390,0.058,-0.138,0.861,-1.954,-2.947,3.038
3.400,0.067,-0.140,0.885,-1.939,-2.687,3.008
3.400,0.054,-0.147,0.884,-1.908,-2.351,3.206
3.410,0.053,-0.142,0.878,-2.137,-2.412,3.542
3.410,0.059,-0.150,0.870,-2.611,-2.672,3.771
3.410,0.063,-0.153,0.885,-3.206,-2.412,4.076
3.420,0.066,-0.152,0.892,-3.313,-0.977,4.794
3.420,0.072,-0.159,0.888,-3.160,1.634,5.802
3.430,0.069,-0.155,0.896,-3.466,3.481,6.534
3.430,0.075,-0.148,0.903,-3.649,4.733,6.992
3.430,0.087,-0.153,0.905,-3.450,4.885,6.595
3.440,0.102,-0.149,0.906,-3.832,4.718,6.031
3.440,0.103,-0.148,0.909,-3.832,5.405,5.344
3.450,0.101,-0.151,0.911,-3.603,6.260,4.824
3.450,0.099,-0.148,0.927,-3.328,6.321,4.046
3.450,0.112,-0.150,0.932,-2.397,6.275,2.687
3.460,0.115,-0.148,0.919,-1.664,5.221,1.466
3.460,0.100,-0.150,0.931,-1.282,3.542,0.137
3.470,0.089,-0.150,0.910,-0.962,2.244,-0.855
3.470,0.084,-0.146,0.922,-0.382,1.160,-1.878
3.470,0.079,-0.146,0.926,-0.046,0.107,-2.672
3.480,0.077,-0.152,0.922,0.427,-0.595,-3.313
3.480,0.066,-0.157,0.921,1.130,-1.008,-4.031
3.490,0.060,-0.158,0.914,1.679,-1.420,-4.443
3.490,0.054,-0.157,0.905,1.954,-1.542,-4.870
3.490,0.045,-0.158,0.909,1.924,-2.260,-5.176
3.500,0.034,-0.156,0.903,1.878,-2.458,-5.313
3.500,0.031,-0.155,0.908,2.000,-2.626,-5.084
3.510,0.026,-0.160,0.917,2.122,-3.191,-4.962
3.510,0.029,-0.154,0.916,2.687,-2.672,-4.473
3.510,0.021,-0.156,0.902,3.053,-1.817,-3.908
3.520,0.015,-0.157,0.908,3.099,-1.130,-2.779
3.520,0.017,-0.156,0.906,3.664,-0.015,-1.756
3.530,0.022,-0.151,0.893,4.000,0.580,-1.069
3.530,0.025,-0.144,0.899,4.290,1.084,-0.443
3.530,0.029,-0.152,0.887,4.336,1.756,0.275
3.540,0.027,-0.150,0.878,4.489,2.244,0.443
3.540,0.030,-0.154,0.879,4.412,2.061,0.702
3.540,0.037,-0.142,0.877,4.183,1.893,0.885
3.550,0.040,-0.142,0.866,3.939,2.519,1.008
3.550,0.041,-0.137,0.873,3.649,2.290,1.023
3.560,0.043,-0.139,0.864,3.237,1.740,0.656
3.560,0.040,-0.134,0.853,2.931,1.160,0.504
3.560,0.047,-0.135,0.851,2.427,1.237,0.198
3.570,0.057,-0.133,0.841,1.481,0.443,-0.198
3.570,0.044,-0.134,0.843,0.779,-0.870,-1.221
3.580,0.053,-0.135,0.842,-0.229,-2.336,-2.092
3.580,0.052,-0.144,0.847,-1.023,-2.718,-2.275
3.580,0.052,-0.142,0.858,-1.847,-2.824,-2.794
3.590,0.046,-0.134,0.853,-2.534,-2.885,-2.977
3.590,0.038,-0.142,0.864,-2.565,-2.947,-2.702
3.600,0.037,-0.137,0.859,-2.611,-2.153,-2.275
3.600,0.031,-0.131,0.844,-3.084,-1.328,-1.206
3.600,0.041,-0.135,0.871,-3.786,-1.267,-0.656
3.610,0.055,-0.142,0.875,-3.664,-0.366,-0.458
3.610,0.056,-0.143,0.885,-3.313,1.053,0.107
3.620,0.063,-0.138,0.884,-3.298,2.580,0.519
3.620,0.070,-0.133,0.884,-3.115,4.244,1.084
3.620,0.059,-0.136,0.880,-2.565,4.947,1.221
3.630,0.051,-0.131,0.878,-2.809,4.626,1.481
3.630,0.060,-0.125,0.885,-3.405,4.046,1.450
3.640,0.075,-0.130,0.894,-2.916,4.290,1.221
3.640,0.070,-0.138,0.897,-2.397,4.687,0.962
3.640,0.067,-0.127,0.892,-2.275,4.244,0.565
3.650,0.065,-0.134,0.887,-2.107,3.405,0.137
3.650,0.062,-0.137,0.891,-2.351,1.802,-0.580
3.660,0.061,-0.137,0.891,-2.687,0.107,-1.573
3.660,0.065,-0.135,0.890,-3.069,-0.595,-1.847
3.660,0.056,-0.142,0.887,-3.267,-0.519,-2.153
3.670,0.048,-0.146,0.905,-3.298,-0.718,-1.908
3.670,0.048,-0.152,0.922,-3.328,-1.267,-1.832
3.680,0.044,-0.151,0.917,-3.298,-1.374,-1.771
3.680,0.056,-0.158,0.914,-3.221,-1.115,-1.496
3.680,0.044,-0.158,0.923,-3.191,-0.702,-1.313
3.690,0.038,-0.160,0.920,-2.870,-0.519,-0.885
3.690,0.053,-0.160,0.922,-2.947,-0.427,-0.626
3.700,0.057,-0.154,0.936,-2.443,0.321,-0.626
3.700,0.057,-0.154,0.928,-1.893,1.328,-0.489
3.700,0.053,-0.152,0.921,-1.252,1.557,-0.321
3.710,0.055,-0.148,0.917,-1.267,1.374,-0.214
3.710,0.057,-0.147,0.921,-1.160,0.916,-0.260
3.720,0.059,-0.146,0.922,-1.053,0.550,-0.718
3.720,0.063,-0.143,0.911,-0.962,0.244,-0.855
3.720,0.058,-0.150,0.911,-0.336,-0.061,-1.282
3.730,0.056,-0.146,0.904,-0.168,-0.733,-1.298
3.730,0.055,-0.137,0.895,-0.443,-2.153,-1.786
3.740,0.067,-0.140,0.896,-0.229,-2.229,-2.321
3.740,0.065,-0.136,0.910,0.382,-1.863,-2.427
3.740,0.056,-0.133,0.907,0.840,-1.450,-2.779
3.750,0.050,-0.137,0.900,0.733,-2.000,-2.947
3.750,0.057,-0.137,0.888,1.359,-2.076,-3.099
3.760,0.047,-0.131,0.889,1.405,-2.244,-2.977
3.760,0.052,-0.129,0.880,1.130,-2.275,-2.916
3.760,0.050,-0.131,0.884,1.298,-1.771,-2.672
3.770,0.053,-0.119,0.884,1.695,-1.267,-2.840
3.770,0.050,-0.127,0.868,1.740,-0.763,-2.427
3.780,0.044,-0.120,0.869,1.252,-0.366,-2.244
3.780,0.041,-0.120,0.862,0.779,-0.168,-1.939
3.780,0.047,-0.123,0.862,-0.076,-0.015,-1.878
3.790,0.044,-0.127,0.866,-0.366,-0.397,-2.183
3.790,0.037,-0.118,0.848,-0.595,-1.023,-1.985
3.800,0.027,-0.125,0.859,-1.389,-2.305,-2.107
3.800,0.048,-0.125,0.874,-1.771,-2.702,-1.939
3.800,0.052,-0.127,0.889,-1.389,-1.771,-2.031
3.810,0.056,-0.134,0.886,-0.916,-1.573,-2.519
3.810,0.062,-0.136,0.885,-1.038,-1.634,-2.733
3.820,0.049,-0.139,0.881,-0.962,-1.710,-2.885
3.820,0.046,-0.133,0.887,-0.763,-1.420,-2.840
3.830,0.039,-0.140,0.875,-0.092,-0.824,-2.473
3.830,0.038,-0.141,0.894,0.168,-0.198,-2.214
3.830,0.035,-0.136,0.876,0.305,0.397,-1.893
3.840,0.034,-0.136,0.869,0.336,0.107,-1.725
3.840,0.028,-0.133,0.869,-0.611,-0.763,-1.389
3.850,0.024,-0.138,0.873,-1.405,-1.328,-1.252
3.850,0.040,-0.138,0.895,-1.252,-0.611,-0.824
3.850,0.037,-0.131,0.887,-1.130,0.611,-0.489
3.860,0.042,-0.136,0.891,-0.901,1.145,-0.260
3.860,0.041,-0.138,0.885,-0.870,1.221,-0.366
3.870,0.042,-0.135,0.877,-1.038,1.145,-0.275
3.870,0.051,-0.132,0.879,-1.053,1.298,-0.260
3.870,0.047,-0.140,0.892,-0.489,1.847,-0.504
3.880,0.034,-0.141,0.886,-0.519,1.267,-0.473
3.880,0.035,-0.127,0.887,-1.069,0.214,-0.595
3.890,0.052,-0.134,0.901,-0.840,-0.244,-0.840
3.890,0.046,-0.139,0.895,-0.656,-0.550,-1.145
3.890,0.041,-0.141,0.895,-0.565,-0.656,-1.359
3.900,0.033,-0.143,0.890,-0.427,-1.099,-1.053
3.900,0.032,-0.139,0.902,-0.779,-1.191,-0.855
3.910,0.037,-0.139,0.892,-0.656,-1.542,-0.565
3.910,0.045,-0.146,0.889,-0.595,-1.466,-0.565
3.910,0.041,-0.139,0.899,-0.260,-0.931,-0.458
3.920,0.036,-0.142,0.898,-0.427,-0.412,-0.122
3.920,0.032,-0.135,0.895,-0.382,-0.504,0.107
3.930,0.031,-0.141,0.895,-0.443,-0.962,0.443
3.930,0.032,-0.139,0.888,-0.733,-1.344,0.260
3.930,0.036,-0.131,0.891,-0.763,-1.420,0.046
3.940,0.032,-0.131,0.901,-0.977,-1.466,0.397
3.940,0.029,-0.131,0.900,-1.160,-1.435,0.656
3.950,0.027,-0.129,0.893,-0.763,-1.176,0.901
3.950,0.031,-0.128,0.885,-0.977,-0.992,1.206
3.950,0.023,-0.122,0.880,-0.947,-0.916,1.542
3.960,0.017,-0.122,0.877,-0.947,-1.313,1.832
3.960,0.021,-0.117,0.870,-1.206,-1.832,2.198
3.970,0.026,-0.124,0.882,-1.908,-2.656,2.382
3.970,0.030,-0.124,0.878,-2.198,-2.473,2.977
3.970,0.035,-0.128,0.896,-2.046,-1.908,3.496
3.980,0.044,-0.123,0.877,-2.244,-1.221,3.954
3.980,0.051,-0.123,0.878,-1.939,-0.840,4.183
3.990,0.054,-0.127,0.879,-1.893,-0.748,4.366
3.990,0.054,-0.135,0.873,-1.969,-0.718,4.565
3.990,0.059,-0.134,0.884,-2.779,-1.084,4.611
4.000,0.073,-0.144,0.894,-2.382,-0.656,4.504
4.000,0.087,-0.140,0.893,-2.107,-0.473,4.275
4.010,0.095,-0.137,0.898,-2.000,-0.168,3.588
4.010,0.100,-0.139,0.894,-2.198,-0.229,3.008
4.010,0.106,-0.141,0.897,-2.092,-0.504,2.229
4.020,0.110,-0.145,0.902,-1.802,-1.206,1.511
4.020,0.118,-0.149,0.896,-1.496,-1.145,0.550
4.030,0.124,-0.143,0.891,-1.023,-0.458,-0.458
4.030,0.107,-0.143,0.897,-1.069,-0.794,-1.252
4.030,0.100,-0.147,0.896,-1.344,-1.405,-1.664
4.040,0.087,-0.145,0.897,-1.252,-1.740,-1.847
4.040,0.090,-0.141,0.899,-1.176,-2.092,-2.076
4.050,0.098,-0.143,0.905,-0.840,-1.069,-2.305
4.050,0.095,-0.139,0.891,-0.824,-0.336,-2.534
4.050,0.088,-0.144,0.898,-1.191,0.137,-2.672
4.060,0.077,-0.142,0.883,-1.053,0.229,-2.702
4.060,0.076,-0.141,0.891,-0.916,0.290,-2.977
4.070,0.075,-0.137,0.879,-1.160,0.519,-3.008
4.070,0.069,-0.139,0.879,-1.435,0.473,-2.855
4.070,0.068,-0.145,0.895,-1.237,1.084,-2.962
4.080,0.067,-0.142,0.893,-1.038,1.145,-2.855
4.080,0.057,-0.146,0.896,-0.977,1.435,-2.733
4.090,0.053,-0.139,0.896,-0.656,1.969,-2.779
4.090,0.050,-0.146,0.881,0.031,2.229,-2.733
4.090,0.045,-0.139,0.896,-0.168,1.466,-2.611
4.100,0.039,-0.139,0.893,-0.595,0.397,-2.687
