Time,acce_x,acce_y,acce_z,gyro_x,gyro_y,gyro_z
0.000,0.078,-0.143,0.890,-1.466,3.481,3.160
0.000,0.070,-0.141,0.903,-0.687,5.863,3.466
0.010,0.050,-0.147,0.890,-0.061,5.344,3.221
0.010,0.041,-0.139,0.887,-0.122,2.885,3.237
0.010,0.036,-0.138,0.860,-0.992,0.595,2.870
0.020,0.058,-0.129,0.854,-2.198,0.031,2.870
0.020,0.069,-0.125,0.879,-3.008,0.641,2.565
0.020,0.069,-0.138,0.896,-2.397,0.870,1.939
0.030,0.061,-0.142,0.902,-1.634,0.244,1.664
0.030,0.062,-0.138,0.913,-0.885,-0.809,1.069
0.030,0.063,-0.139,0.881,-1.008,-1.084,0.580
0.040,0.062,-0.134,0.872,-1.176,-1.206,0.473
0.040,0.057,-0.133,0.879,-1.282,-1.084,0.397
0.040,0.046,-0.139,0.877,-0.916,-2.092,0.137
0.050,0.044,-0.141,0.886,-1.176,-3.847,-0.214
0.050,0.049,-0.138,0.891,-1.084,-5.008,-0.351
0.050,0.057,-0.148,0.903,-1.130,-4.580,-0.641
0.060,0.066,-0.149,0.896,-1.252,-3.450,-0.412
0.060,0.056,-0.154,0.899,-1.084,-2.519,-0.611
0.070,0.048,-0.154,0.888,-1.252,-1.542,-0.061
0.070,0.048,-0.147,0.896,-1.023,-0.855,0.565
0.070,0.047,-0.148,0.891,-0.977,0.534,0.885
0.080,0.053,-0.151,0.891,-0.855,1.802,1.359
0.080,0.046,-0.148,0.892,-0.733,2.153,1.542
0.090,0.042,-0.152,0.878,-1.191,1.695,1.740
0.090,0.042,-0.150,0.875,-1.298,0.977,1.740
0.090,0.046,-0.146,0.879,-1.435,0.244,1.344
0.100,0.051,-0.136,0.881,-1.466,-1.038,0.962
0.100,0.048,-0.139,0.880,-1.817,-2.366,0.473
0.110,0.043,-0.141,0.865,-1.832,-3.023,0.046
0.110,0.049,-0.139,0.874,-2.168,-3.786,-0.153
0.110,0.049,-0.135,0.873,-2.412,-4.779,-0.580
0.120,0.054,-0.137,0.882,-2.534,-4.855,-0.840
0.120,0.044,-0.137,0.870,-2.702,-4.947,-1.069
0.130,0.045,-0.141,0.873,-2.916,-5.221,-1.298
0.130,0.027,-0.145,0.880,-3.252,-5.374,-1.191
0.130,0.033,-0.150,0.883,-3.450,-5.634,-1.130
0.140,0.038,-0.148,0.892,-3.542,-5.206,-0.840
0.140,0.029,-0.150,0.894,-3.313,-4.427,-0.412
0.150,0.029,-0.149,0.903,-3.084,-3.695,-0.076
0.150,0.027,-0.153,0.899,-2.260,-3.221,0.321
0.160,0.027,-0.154,0.902,-1.756,-2.366,0.779
0.160,0.031,-0.150,0.906,-1.481,-1.588,1.466
0.160,0.035,-0.150,0.904,-1.008,-1.176,1.756
0.170,0.042,-0.152,0.902,-0.473,-0.947,1.939
0.170,0.049,-0.147,0.890,-0.168,-0.626,2.198
0.180,0.051,-0.150,0.884,0.137,-0.397,2.198
0.180,0.052,-0.146,0.873,-0.031,-0.870,2.015
0.180,0.051,-0.148,0.874,-0.260,-0.931,2.046
0.190,0.058,-0.142,0.874,-0.489,-1.099,1.664
0.190,0.064,-0.135,0.869,-0.641,-1.053,1.573
0.200,0.060,-0.137,0.875,-0.885,-0.489,1.481
0.200,0.057,-0.137,0.872,-0.916,0.580,1.496
0.200,0.064,-0.134,0.868,-1.038,1.496,1.573
0.210,0.067,-0.126,0.887,-1.282,2.336,1.435
0.210,0.063,-0.131,0.875,-1.450,3.435,1.511
0.210,0.068,-0.130,0.877,-1.603,4.977,1.756
0.220,0.067,-0.124,0.875,-1.939,6.718,1.695
0.220,0.065,-0.130,0.901,-2.015,8.153,1.908
0.230,0.059,-0.134,0.892,-1.725,8.962,1.908
0.230,0.039,-0.135,0.890,-1.099,7.084,1.557
0.230,0.029,-0.129,0.875,-1.832,3.053,0.931
0.240,0.035,-0.126,0.890,-2.748,0.076,0.473
0.240,0.062,-0.135,0.880,-2.947,0.244,0.015
0.250,0.065,-0.139,0.901,-2.382,1.237,-0.229
0.250,0.061,-0.148,0.894,-1.832,0.443,-0.916
0.250,0.058,-0.140,0.899,-1.695,-0.931,-1.344
0.260,0.061,-0.140,0.887,-1.740,-0.504,-1.618
0.260,0.053,-0.138,0.894,-1.649,-0.229,-1.511
0.270,0.050,-0.144,0.895,-1.618,-0.397,-1.221
0.270,0.043,-0.143,0.885,-1.557,-0.412,-0.931
0.270,0.046,-0.141,0.896,-1.557,0.595,-0.824
0.280,0.044,-0.150,0.902,-1.603,1.298,-0.443
0.280,0.044,-0.137,0.889,-1.863,1.023,-0.550
0.290,0.045,-0.145,0.909,-2.244,0.794,-0.840
0.290,0.048,-0.146,0.905,-2.076,0.977,-1.069
0.290,0.054,-0.153,0.913,-1.710,1.634,-0.992
0.300,0.043,-0.143,0.906,-1.511,1.802,-1.176
0.300,0.035,-0.142,0.915,-1.252,1.282,-1.130
0.310,0.033,-0.146,0.913,-0.794,0.809,-0.947
0.310,0.033,-0.145,0.909,-0.244,0.763,-0.855
0.310,0.037,-0.141,0.899,-0.061,0.214,-0.809
0.320,0.025,-0.142,0.905,0.153,-0.748,-0.718
0.320,0.032,-0.139,0.903,0.183,-1.679,-0.763
0.330,0.031,-0.146,0.893,0.870,-2.137,-0.565
0.330,0.034,-0.141,0.901,0.153,-2.336,-0.412
0.330,0.032,-0.141,0.907,0.473,-2.519,-0.305
0.340,0.044,-0.145,0.897,0.885,-1.817,0.000
0.340,0.049,-0.139,0.908,0.931,-1.206,0.168
0.350,0.051,-0.145,0.896,0.748,-0.641,0.061
0.350,0.056,-0.138,0.885,0.794,-0.580,-0.031
0.350,0.051,-0.138,0.880,0.824,-0.076,-0.031
0.360,0.050,-0.144,0.866,0.687,0.397,0.076
0.360,0.038,-0.137,0.867,0.290,0.595,0.260
0.370,0.043,-0.131,0.871,0.443,0.641,0.290
0.370,0.045,-0.131,0.865,-0.183,-0.687,0.168
0.370,0.050,-0.121,0.861,-1.099,-1.756,-0.305
0.380,0.056,-0.131,0.856,-1.389,-2.000,-0.672
0.380,0.054,-0.132,0.862,-1.710,-1.863,-0.595
0.390,0.054,-0.132,0.870,-2.153,-2.168,-0.870
0.390,0.058,-0.130,0.865,-1.985,-1.954,-1.053
0.390,0.069,-0.128,0.864,-2.198,-1.481,-1.496
0.400,0.059,-0.133,0.870,-2.244,-1.160,-1.344
0.400,0.047,-0.129,0.865,-2.702,-0.702,-1.053
0.410,0.054,-0.137,0.875,-2.901,-0.260,-0.794
0.410,0.056,-0.143,0.882,-2.855,0.214,-0.534
0.410,0.055,-0.135,0.879,-1.969,1.344,-0.595
0.420,0.041,-0.133,0.881,-2.000,1.878,-0.061
0.420,0.041,-0.139,0.886,-2.504,0.748,-0.305
0.430,0.053,-0.141,0.885,-2.519,0.031,-0.626
0.430,0.057,-0.143,0.888,-2.076,0.168,-0.855
0.430,0.055,-0.142,0.885,-2.214,0.718,-1.099
0.440,0.046,-0.144,0.885,-2.183,0.779,-0.931
0.440,0.040,-0.142,0.892,-2.122,0.443,-1.069
0.450,0.041,-0.153,0.884,-2.351,0.290,-0.626
0.450,0.032,-0.144,0.883,-2.305,0.305,-0.321
0.450,0.021,-0.145,0.896,-2.382,0.198,0.153
0.460,0.019,-0.153,0.895,-2.122,0.473,0.687
0.460,0.025,-0.150,0.905,-2.031,0.137,1.221
0.470,0.025,-0.153,0.911,-2.015,-0.748,0.962
0.470,0.037,-0.144,0.907,-1.679,-0.947,0.611
0.470,0.040,-0.157,0.911,-1.573,-1.542,0.336
0.480,0.041,-0.155,0.919,-1.176,-1.786,0.122
0.480,0.041,-0.152,0.923,-0.550,-1.695,-0.061
0.490,0.041,-0.149,0.920,-0.092,-1.573,0.092
0.490,0.040,-0.145,0.907,0.336,-1.344,0.198
0.490,0.039,-0.142,0.915,0.626,-0.992,0.473
0.500,0.033,-0.142,0.888,0.748,-1.053,0.901
0.500,0.041,-0.135,0.895,0.687,-0.855,1.145
0.510,0.038,-0.141,0.891,0.687,-0.351,1.313
0.510,0.045,-0.132,0.876,0.626,0.153,1.756
0.510,0.047,-0.129,0.881,-0.107,-0.260,1.649
0.520,0.045,-0.132,0.868,-0.718,-1.847,1.282
0.520,0.048,-0.126,0.872,-1.542,-3.176,0.718
0.530,0.057,-0.125,0.881,-1.695,-3.344,0.198
0.530,0.056,-0.130,0.888,-1.832,-3.374,-0.076
0.530,0.054,-0.130,0.888,-1.985,-3.344,-0.198
0.540,0.054,-0.129,0.888,-1.908,-3.237,-0.321
0.540,0.061,-0.136,0.885,-1.664,-2.824,-0.229
0.550,0.055,-0.136,0.890,-1.649,-2.275,-0.366
0.550,0.057,-0.136,0.889,-1.374,-1.908,-0.229
0.550,0.060,-0.135,0.894,-1.023,-1.420,-0.168
0.560,0.050,-0.138,0.889,-0.885,-1.115,-0.046
0.560,0.050,-0.132,0.886,-1.130,-1.191,0.107
0.570,0.049,-0.138,0.897,-1.344,-1.160,0.183
0.570,0.051,-0.133,0.885,-1.237,-1.069,0.366
0.570,0.057,-0.134,0.890,-1.053,-0.656,0.183
0.580,0.051,-0.142,0.888,-1.145,-0.580,0.244
0.580,0.041,-0.140,0.881,-1.053,-0.687,0.412
0.590,0.050,-0.142,0.884,-1.038,-0.412,0.611
0.590,0.054,-0.141,0.890,-1.252,-0.382,0.626
0.590,0.054,-0.146,0.887,-1.664,-0.458,0.580
0.600,0.049,-0.146,0.876,-1.695,-0.427,0.214
0.600,0.048,-0.145,0.878,-2.153,-1.206,0.336
0.610,0.047,-0.143,0.877,-2.489,-1.847,0.473
0.610,0.049,-0.142,0.881,-2.290,-1.725,0.489
0.610,0.052,-0.142,0.896,-1.740,-1.053,1.160
0.620,0.060,-0.137,0.891,-1.649,-0.336,1.466
0.620,0.065,-0.134,0.894,-1.893,0.031,1.603
0.630,0.065,-0.134,0.887,-1.328,0.168,1.527
0.630,0.072,-0.138,0.889,-1.023,0.916,1.252
0.630,0.075,-0.132,0.872,-1.038,1.176,1.099
0.640,0.072,-0.132,0.867,-1.573,0.916,0.656
0.640,0.076,-0.132,0.877,-1.924,0.366,0.214
0.640,0.072,-0.128,0.867,-1.863,-0.046,-0.290
0.650,0.075,-0.130,0.871,-2.962,-1.420,-1.237
0.650,0.076,-0.129,0.873,-3.634,-2.183,-1.985
0.660,0.078,-0.131,0.878,-3.664,-2.366,-2.321
0.660,0.074,-0.142,0.885,-3.847,-2.031,-2.473
0.670,0.060,-0.139,0.880,-3.695,-1.679,-2.473
0.670,0.055,-0.146,0.877,-3.450,-1.542,-2.244
0.670,0.063,-0.142,0.899,-3.405,-1.588,-2.214
0.680,0.053,-0.152,0.898,-3.160,-1.328,-1.908
0.680,0.050,-0.150,0.910,-2.794,-0.992,-1.618
0.690,0.045,-0.152,0.920,-2.122,-0.214,-1.130
0.690,0.050,-0.158,0.923,-1.618,0.733,-0.702
0.690,0.052,-0.156,0.917,-0.947,1.511,-0.168
0.700,0.056,-0.156,0.922,-0.290,2.183,0.046
0.700,0.056,-0.152,0.914,0.198,2.641,0.244
0.710,0.063,-0.153,0.912,0.901,3.252,0.397
0.710,0.054,-0.143,0.903,1.053,3.282,0.519
0.710,0.060,-0.139,0.883,0.962,3.374,0.504
0.720,0.065,-0.139,0.885,0.321,2.443,0.137
0.720,0.073,-0.138,0.874,0.061,1.969,-0.305
0.720,0.074,-0.139,0.875,-0.336,1.450,-0.733
0.730,0.069,-0.133,0.867,-1.221,0.931,-1.328
0.730,0.067,-0.132,0.872,-1.573,-0.092,-1.756
0.740,0.072,-0.135,0.874,-1.954,-0.672,-2.107
0.740,0.067,-0.127,0.870,-2.321,-0.519,-2.443
0.740,0.068,-0.133,0.878,-2.489,-0.489,-2.656
0.750,0.054,-0.133,0.889,-2.580,-0.137,-2.550
0.750,0.055,-0.134,0.878,-2.366,-0.122,-2.626
0.760,0.056,-0.134,0.876,-2.458,0.275,-2.595
0.760,0.055,-0.138,0.887,-2.412,0.336,-2.321
0.770,0.057,-0.137,0.889,-2.504,0.397,-2.412
0.770,0.059,-0.145,0.899,-2.107,0.885,-2.015
0.770,0.050,-0.141,0.897,-2.061,1.267,-1.817
0.780,0.049,-0.141,0.890,-1.863,1.740,-1.573
0.780,0.062,-0.139,0.894,-1.573,1.908,-1.405
0.790,0.063,-0.139,0.894,-1.496,1.328,-1.756
0.790,0.070,-0.135,0.902,-1.374,1.145,-2.015
0.790,0.072,-0.129,0.897,-1.206,1.435,-2.321
0.800,0.071,-0.134,0.891,-1.191,1.328,-2.565
0.800,0.073,-0.129,0.886,-0.931,1.389,-2.824
0.810,0.069,-0.136,0.876,-1.191,1.099,-3.008
0.810,0.066,-0.135,0.872,-1.115,1.267,-3.282
0.810,0.056,-0.131,0.862,-1.069,1.282,-3.237
0.820,0.050,-0.129,0.877,-1.817,0.550,-3.389
0.820,0.048,-0.135,0.878,-1.985,0.366,-3.374
0.830,0.061,-0.130,0.884,-2.153,0.763,-3.420
0.830,0.050,-0.134,0.887,-2.321,1.191,-3.221
0.830,0.039,-0.137,0.878,-2.275,0.962,-3.191
0.840,0.042,-0.137,0.887,-2.061,1.145,-2.687
0.840,0.048,-0.140,0.884,-2.214,1.267,-2.656
0.850,0.053,-0.139,0.906,-2.260,1.740,-2.321
0.850,0.058,-0.141,0.900,-1.954,2.244,-2.260
0.850,0.060,-0.135,0.880,-2.076,2.672,-2.107
0.860,0.057,-0.139,0.893,-1.969,2.504,-2.015
0.860,0.069,-0.139,0.894,-2.229,2.595,-2.076
0.860,0.077,-0.146,0.886,-2.076,2.992,-2.702
0.870,0.077,-0.141,0.883,-2.168,2.702,-3.176
0.870,0.079,-0.146,0.886,-2.458,2.290,-3.786
0.880,0.079,-0.142,0.894,-2.489,2.046,-4.244
0.880,0.081,-0.140,0.901,-2.366,1.786,-4.626
0.880,0.068,-0.144,0.896,-2.122,1.786,-4.580
0.890,0.066,-0.144,0.899,-1.802,1.740,-4.687
0.890,0.064,-0.142,0.894,-1.527,1.954,-4.397
0.900,0.071,-0.142,0.893,-1.511,2.397,-4.229
0.900,0.075,-0.138,0.883,-1.115,2.687,-4.244
0.900,0.072,-0.141,0.889,-0.718,3.176,-4.000
0.910,0.074,-0.137,0.880,-0.855,4.153,-3.557
0.910,0.076,-0.135,0.874,-1.008,5.023,-3.374
0.920,0.084,-0.127,0.880,-1.328,5.237,-3.115
0.920,0.100,-0.126,0.884,-1.282,5.634,-3.466
0.920,0.103,-0.125,0.873,-1.710,6.107,-3.771
0.930,0.106,-0.127,0.871,-1.740,6.840,-4.137
0.930,0.112,-0.129,0.864,-2.000,7.206,-4.534
0.940,0.125,-0.127,0.874,-2.412,6.824,-5.237
0.940,0.125,-0.127,0.873,-2.718,6.519,-6.260
0.940,0.133,-0.132,0.877,-2.824,6.336,-7.389
0.950,0.133,-0.135,0.892,-3.176,5.908,-8.229
0.950,0.126,-0.139,0.889,-3.069,4.947,-9.069
0.960,0.127,-0.138,0.890,-3.282,4.015,-10.031
0.960,0.137,-0.143,0.904,-3.145,3.435,-10.962
0.960,0.130,-0.145,0.905,-2.824,3.313,-11.618
0.970,0.122,-0.150,0.889,-2.672,3.679,-12.305
0.970,0.120,-0.151,0.901,-2.718,3.298,-12.809
0.980,0.126,-0.149,0.920,-2.901,3.252,-13.405
0.980,0.125,-0.156,0.920,-2.550,3.863,-13.878
0.990,0.126,-0.159,0.921,-2.290,4.489,-14.351
0.990,0.112,-0.166,0.922,-2.198,4.473,-14.916
0.990,0.118,-0.155,0.914,-1.985,4.595,-15.221
1.000,0.112,-0.162,0.928,-1.802,4.733,-15.863
1.000,0.111,-0.163,0.926,-1.466,4.931,-16.534
1.010,0.107,-0.164,0.912,-1.328,3.771,-17.359
1.010,0.101,-0.164,0.908,-1.450,2.611,-17.985
1.010,0.105,-0.159,0.913,-1.389,2.137,-18.641
1.020,0.103,-0.169,0.918,-0.885,2.122,-19.252
1.020,0.094,-0.172,0.909,-0.168,1.893,-19.679
1.030,0.084,-0.163,0.907,0.443,0.992,-20.168
1.030,0.090,-0.168,0.909,0.412,-0.076,-20.397
1.030,0.090,-0.169,0.896,0.580,-0.733,-21.053
1.040,0.079,-0.168,0.892,0.702,-0.962,-21.237
1.040,0.083,-0.160,0.901,0.382,-1.557,-21.435
1.050,0.091,-0.173,0.906,0.779,-0.992,-21.420
1.050,0.105,-0.168,0.906,0.947,0.824,-21.725
1.050,0.096,-0.168,0.905,1.344,1.664,-22.122
1.060,0.092,-0.161,0.889,1.359,2.565,-22.168
1.060,0.084,-0.164,0.896,1.267,3.053,-22.290
1.070,0.078,-0.155,0.892,1.542,3.344,-22.580
1.070,0.078,-0.152,0.890,1.618,3.740,-22.427
1.070,0.077,-0.150,0.885,1.710,4.412,-22.275
1.080,0.076,-0.155,0.875,1.817,4.824,-22.122
1.080,0.068,-0.148,0.873,1.771,5.405,-21.939
1.090,0.072,-0.146,0.875,1.115,5.450,-21.771
1.090,0.086,-0.151,0.880,0.855,4.840,-22.336
1.090,0.094,-0.156,0.875,0.809,4.824,-23.145
1.100,0.092,-0.153,0.882,0.977,4.733,-23.466
1.100,0.083,-0.160,0.883,0.550,5.130,-23.405
1.110,0.082,-0.161,0.879,0.809,5.802,-23.237
1.110,0.085,-0.152,0.892,0.565,5.740,-23.115
1.110,0.094,-0.158,0.886,0.595,5.863,-23.008
1.120,0.096,-0.157,0.884,0.412,6.290,-22.885
1.120,0.096,-0.156,0.884,-0.031,6.015,-22.977
1.130,0.109,-0.161,0.882,-0.427,5.298,-23.634
1.130,0.122,-0.154,0.878,-0.565,4.626,-24.733
1.130,0.131,-0.155,0.871,-1.115,4.763,-25.573
1.140,0.126,-0.160,0.880,-1.145,4.580,-26.504
1.140,0.120,-0.157,0.862,-0.794,4.153,-27.374
1.150,0.116,-0.165,0.877,-1.221,3.008,-28.260
1.150,0.129,-0.161,0.878,-1.267,3.267,-29.084
1.160,0.124,-0.163,0.879,-0.489,3.237,-29.847
1.160,0.123,-0.166,0.866,-0.351,2.733,-30.656
1.160,0.116,-0.170,0.865,-0.626,2.183,-31.328
1.170,0.122,-0.169,0.874,-0.687,1.817,-31.878
1.170,0.119,-0.163,0.877,-0.885,1.710,-32.687
1.180,0.127,-0.160,0.866,-1.053,2.275,-33.618
1.180,0.112,-0.153,0.862,-1.649,2.595,-34.336
1.180,0.109,-0.155,0.867,-2.229,2.275,-35.115
1.190,0.104,-0.150,0.879,-2.244,3.481,-35.634
1.190,0.101,-0.156,0.877,-1.939,4.672,-35.725
1.200,0.081,-0.151,0.877,-2.519,5.313,-35.756
1.200,0.077,-0.156,0.865,-2.702,6.137,-35.832
1.200,0.067,-0.159,0.875,-2.702,6.458,-35.771
1.210,0.068,-0.158,0.881,-2.656,6.931,-35.710
1.210,0.062,-0.158,0.878,-2.580,8.336,-35.344
1.220,0.056,-0.156,0.876,-2.885,8.321,-34.947
1.220,0.066,-0.152,0.890,-3.679,8.718,-34.641
1.220,0.068,-0.167,0.895,-3.389,9.573,-34.504
1.230,0.076,-0.163,0.894,-2.718,10.931,-34.351
1.230,0.080,-0.167,0.902,-2.595,11.527,-34.534
1.240,0.078,-0.175,0.898,-2.534,12.107,-34.855
1.240,0.083,-0.177,0.903,-2.580,12.504,-34.885
1.250,0.086,-0.184,0.919,-2.336,13.679,-34.824
1.250,0.086,-0.196,0.934,-1.481,14.321,-35.008
1.250,0.105,-0.193,0.942,-0.412,14.718,-35.359
1.260,0.099,-0.187,0.943,0.153,15.328,-35.863
1.260,0.105,-0.194,0.939,0.931,16.015,-36.321
1.270,0.100,-0.191,0.943,1.847,15.527,-36.794
1.270,0.107,-0.197,0.931,2.336,14.641,-37.511
1.270,0.121,-0.191,0.929,2.702,13.786,-38.351
1.280,0.123,-0.202,0.931,3.908,13.176,-39.069
1.280,0.125,-0.205,0.925,4.748,12.458,-39.282
1.290,0.136,-0.206,0.911,4.977,11.847,-39.282
1.290,0.157,-0.198,0.907,5.267,12.321,-39.618
1.290,0.178,-0.201,0.900,5.023,14.076,-39.740
1.300,0.198,-0.203,0.884,4.962,15.893,-40.321
1.300,0.214,-0.208,0.887,4.366,17.664,-41.588
1.310,0.223,-0.203,0.877,3.832,18.962,-42.641
1.310,0.229,-0.207,0.875,3.679,21.115,-43.649
1.310,0.231,-0.202,0.860,3.405,22.153,-45.069
1.320,0.243,-0.207,0.864,2.443,22.504,-46.504
1.320,0.249,-0.207,0.867,1.985,22.779,-47.985
1.330,0.243,-0.215,0.878,2.427,23.832,-49.328
1.330,0.246,-0.217,0.882,2.763,24.076,-50.504
1.340,0.241,-0.216,0.892,2.916,23.908,-51.542
1.340,0.255,-0.225,0.893,3.557,24.290,-52.718
1.340,0.257,-0.225,0.881,3.908,24.412,-53.603
1.350,0.267,-0.229,0.890,3.847,24.229,-54.427
1.350,0.285,-0.227,0.887,4.382,24.595,-55.206
1.360,0.312,-0.236,0.902,4.397,26.229,-56.489
1.360,0.334,-0.238,0.907,5.176,28.168,-57.695
1.360,0.349,-0.239,0.911,5.374,30.168,-59.435
1.370,0.370,-0.240,0.902,5.908,32.198,-61.679
1.370,0.382,-0.250,0.914,5.603,33.893,-64.336
1.380,0.389,-0.240,0.903,5.267,34.947,-67.282
1.380,0.402,-0.248,0.914,5.603,36.305,-70.611
1.380,0.402,-0.255,0.917,6.107,37.176,-74.076
1.390,0.392,-0.266,0.914,6.443,36.779,-77.527
1.390,0.391,-0.266,0.915,7.084,35.832,-81.328
1.400,0.376,-0.269,0.911,7.969,34.107,-85.282
1.400,0.360,-0.271,0.902,8.473,31.588,-89.053
1.400,0.344,-0.284,0.919,8.947,28.290,-93.221
1.410,0.339,-0.292,0.914,9.618,24.947,-96.977
1.410,0.333,-0.294,0.903,10.351,20.824,-101.008
1.420,0.327,-0.301,0.899,10.916,16.275,-105.313
1.420,0.324,-0.303,0.903,10.763,12.290,-109.023
1.430,0.322,-0.311,0.901,10.397,9.313,-112.779
1.430,0.325,-0.310,0.898,9.817,6.824,-116.260
1.430,0.333,-0.326,0.914,9.344,5.221,-119.679
1.440,0.327,-0.331,0.923,9.405,4.397,-123.023
1.440,0.313,-0.336,0.928,9.405,4.137,-125.481
1.450,0.301,-0.338,0.926,9.695,4.672,-127.466
1.450,0.282,-0.344,0.931,9.985,5.405,-129.053
1.450,0.274,-0.344,0.934,9.939,6.229,-130.519
1.460,0.264,-0.348,0.936,10.214,8.153,-131.939
1.460,0.260,-0.355,0.936,10.672,10.458,-132.962
1.470,0.248,-0.357,0.941,11.328,12.275,-134.031
1.470,0.234,-0.356,0.929,11.710,13.863,-135.298
1.480,0.233,-0.359,0.915,12.046,15.115,-136.550
1.480,0.216,-0.353,0.916,12.687,16.137,-137.756
1.480,0.202,-0.363,0.923,13.542,17.084,-138.290
1.490,0.199,-0.358,0.922,14.092,18.672,-138.947
1.490,0.193,-0.361,0.914,14.290,20.626,-139.359
1.500,0.183,-0.358,0.905,14.351,21.878,-140.321
1.500,0.182,-0.360,0.911,14.733,22.473,-141.466
1.500,0.176,-0.356,0.905,14.870,22.824,-142.885
1.510,0.174,-0.364,0.919,14.672,23.237,-144.168
1.510,0.158,-0.360,0.910,15.130,23.130,-145.649
1.520,0.155,-0.363,0.912,15.466,23.038,-146.977
1.520,0.150,-0.367,0.912,16.076,23.344,-148.427
1.530,0.129,-0.373,0.906,16.901,22.779,-149.954
1.530,0.120,-0.374,0.903,17.969,21.878,-151.924
1.530,0.100,-0.374,0.883,18.687,20.107,-154.061
1.540,0.080,-0.375,0.876,18.947,16.595,-156.672
1.540,0.053,-0.377,0.868,18.947,12.260,-159.176
1.550,0.025,-0.376,0.862,18.794,8.031,-161.466
1.550,-0.001,-0.371,0.846,18.519,3.511,-162.824
1.560,-0.017,-0.361,0.836,17.573,-1.160,-164.290
1.560,-0.038,-0.359,0.805,16.122,-5.527,-166.137
1.560,-0.060,-0.362,0.802,14.733,-10.031,-167.771
1.570,-0.085,-0.364,0.790,12.229,-15.084,-168.824
1.570,-0.096,-0.357,0.780,8.992,-19.298,-169.649
1.580,-0.098,-0.357,0.776,5.313,-22.015,-170.519
1.580,-0.126,-0.368,0.794,2.168,-22.931,-170.550
1.590,-0.141,-0.364,0.784,-1.603,-22.824,-169.786
1.590,-0.157,-0.362,0.797,-4.626,-21.511,-167.756
1.600,-0.164,-0.365,0.836,-6.733,-20.092,-165.435
1.600,-0.152,-0.369,0.866,-7.649,-17.115,-162.977
1.600,-0.138,-0.372,0.882,-7.237,-12.779,-160.672
1.610,-0.147,-0.376,0.912,-5.878,-8.962,-158.244
1.610,-0.167,-0.375,0.930,-4.000,-5.176,-155.023
1.620,-0.168,-0.373,0.936,-2.702,0.198,-150.992
1.620,-0.153,-0.371,0.939,-1.725,6.275,-147.573
1.630,-0.140,-0.365,0.969,0.840,12.137,-144.992
1.630,-0.143,-0.365,0.964,3.847,15.939,-142.611
1.630,-0.140,-0.358,0.968,6.305,18.702,-140.519
1.640,-0.128,-0.354,0.964,9.084,22.290,-138.366
1.640,-0.118,-0.347,0.964,11.634,25.191,-136.855
1.650,-0.098,-0.328,0.956,14.611,26.763,-136.076
1.650,-0.096,-0.329,0.940,17.695,27.389,-135.695
1.660,-0.089,-0.316,0.915,19.908,26.931,-135.985
1.660,-0.080,-0.313,0.878,21.282,25.191,-136.947
1.660,-0.078,-0.310,0.852,21.817,21.740,-138.153
1.670,-0.085,-0.304,0.833,21.053,18.122,-139.588
1.670,-0.079,-0.303,0.812,19.573,14.580,-140.458
1.680,-0.061,-0.289,0.808,17.725,10.931,-141.924
1.680,-0.043,-0.297,0.809,15.863,7.252,-144.031
1.690,-0.030,-0.309,0.802,14.183,3.634,-146.351
1.690,-0.030,-0.306,0.819,12.122,0.214,-148.427
1.690,-0.022,-0.305,0.835,10.351,-2.809,-150.153
1.700,-0.027,-0.311,0.847,8.718,-4.733,-151.359
1.700,-0.034,-0.318,0.854,8.397,-5.786,-152.412
1.710,-0.043,-0.321,0.880,8.137,-6.626,-152.458
1.710,-0.064,-0.312,0.877,8.595,-7.313,-152.153
1.720,-0.069,-0.311,0.890,8.443,-6.901,-150.550
1.720,-0.065,-0.310,0.901,8.733,-4.458,-148.290
1.720,-0.061,-0.303,0.893,9.863,-0.229,-146.214
1.730,-0.056,-0.297,0.904,10.122,2.901,-143.893
1.730,-0.030,-0.294,0.898,9.695,6.534,-142.458
1.740,-0.011,-0.290,0.911,10.931,12.458,-141.237
1.740,-0.012,-0.288,0.914,12.748,17.160,-140.092
1.750,-0.020,-0.285,0.910,13.954,20.656,-139.206
1.750,-0.032,-0.274,0.888,15.298,22.504,-138.305
1.750,-0.021,-0.277,0.866,15.679,23.252,-138.382
1.760,-0.019,-0.268,0.854,16.229,22.977,-139.038
1.760,-0.024,-0.270,0.845,16.397,21.206,-139.832
1.770,-0.020,-0.265,0.828,15.618,18.473,-140.901
1.770,-0.030,-0.258,0.823,15.176,16.031,-142.763
1.780,-0.034,-0.257,0.814,14.641,12.870,-144.565
1.780,-0.050,-0.255,0.804,14.183,9.099,-146.489
1.780,-0.074,-0.240,0.776,13.588,5.527,-147.496
1.790,-0.078,-0.228,0.768,11.893,2.718,-148.565
1.790,-0.088,-0.232,0.751,10.519,1.084,-149.435
1.800,-0.105,-0.221,0.745,8.916,-0.168,-149.649
1.800,-0.120,-0.218,0.744,7.618,-0.748,-149.053
1.810,-0.132,-0.207,0.731,5.817,-0.137,-148.031
1.810,-0.135,-0.210,0.703,3.145,1.389,-146.763
1.810,-0.141,-0.202,0.701,0.473,2.687,-145.832
1.820,-0.149,-0.194,0.712,-1.939,4.244,-144.824
1.820,-0.174,-0.187,0.695,-4.595,6.275,-143.511
1.830,-0.188,-0.186,0.698,-6.748,8.198,-141.527
1.830,-0.203,-0.193,0.693,-9.527,9.588,-139.679
1.840,-0.228,-0.190,0.685,-11.756,10.321,-137.359
1.840,-0.238,-0.197,0.681,-14.153,10.061,-134.748
1.840,-0.258,-0.184,0.694,-16.443,9.985,-131.237
1.850,-0.266,-0.183,0.684,-18.840,10.061,-127.557
1.850,-0.273,-0.177,0.697,-21.298,9.710,-123.817
1.860,-0.253,-0.176,0.718,-22.916,9.008,-120.656
1.860,-0.248,-0.174,0.719,-24.443,8.015,-117.786
1.870,-0.228,-0.170,0.745,-25.939,7.496,-115.573
1.870,-0.219,-0.177,0.750,-27.053,6.672,-113.527
1.870,-0.208,-0.176,0.768,-28.168,6.489,-111.756
1.880,-0.199,-0.178,0.782,-28.595,6.351,-110.336
1.880,-0.193,-0.189,0.803,-28.092,6.366,-109.115
1.890,-0.208,-0.201,0.810,-26.473,5.252,-108.351
1.890,-0.203,-0.192,0.825,-26.656,3.176,-106.870
1.900,-0.194,-0.203,0.847,-26.229,1.618,-105.588
1.900,-0.176,-0.208,0.893,-23.878,1.435,-103.985
1.910,-0.181,-0.209,0.917,-21.206,1.588,-102.076
1.910,-0.170,-0.203,0.927,-18.733,2.916,-99.924
1.910,-0.152,-0.218,0.927,-16.687,5.130,-97.985
1.920,-0.133,-0.216,0.928,-14.824,7.176,-97.023
1.920,-0.118,-0.219,0.922,-12.718,9.786,-96.580
1.930,-0.109,-0.218,0.928,-10.779,11.664,-96.290
1.930,-0.125,-0.228,0.927,-8.977,12.794,-96.198
1.940,-0.135,-0.228,0.911,-7.740,13.206,-95.618
1.940,-0.136,-0.223,0.901,-7.924,12.595,-95.557
1.940,-0.142,-0.229,0.892,-8.076,11.695,-95.435
1.950,-0.153,-0.235,0.896,-7.496,10.931,-95.511
1.950,-0.168,-0.220,0.896,-6.916,10.046,-95.084
1.960,-0.176,-0.223,0.894,-6.351,8.901,-94.656
1.960,-0.183,-0.224,0.886,-5.542,8.595,-93.710
1.960,-0.185,-0.204,0.878,-5.771,8.275,-92.870
1.970,-0.201,-0.202,0.871,-5.847,8.580,-91.649
1.970,-0.206,-0.200,0.870,-5.557,8.901,-90.611
1.980,-0.226,-0.195,0.857,-5.420,9.038,-89.282
1.980,-0.240,-0.184,0.842,-5.344,9.679,-87.344
1.990,-0.256,-0.185,0.829,-5.847,10.718,-84.885
1.990,-0.260,-0.179,0.829,-6.901,12.473,-82.641
1.990,-0.263,-0.187,0.813,-7.969,14.489,-80.000
2.000,-0.273,-0.182,0.799,-8.763,15.893,-77.771
2.000,-0.295,-0.182,0.808,-10.275,15.756,-75.908
2.010,-0.303,-0.179,0.787,-11.908,15.450,-74.000
2.010,-0.314,-0.184,0.791,-13.710,14.366,-72.366
2.020,-0.326,-0.196,0.793,-15.374,12.641,-70.855
2.020,-0.340,-0.198,0.787,-17.374,10.015,-68.779
2.020,-0.359,-0.201,0.799,-18.885,7.481,-66.412
2.030,-0.366,-0.208,0.803,-20.672,5.435,-63.969
2.030,-0.368,-0.207,0.808,-21.817,3.924,-61.725
2.040,-0.377,-0.211,0.818,-22.992,2.076,-58.992
2.040,-0.388,-0.210,0.844,-24.244,0.076,-55.542
2.050,-0.390,-0.203,0.860,-25.053,-0.565,-51.435
2.050,-0.375,-0.211,0.875,-25.405,0.794,-46.962
2.050,-0.370,-0.214,0.906,-24.809,2.382,-42.840
2.060,-0.372,-0.215,0.901,-23.893,4.092,-38.244
2.060,-0.360,-0.216,0.918,-23.893,6.244,-33.649
2.070,-0.351,-0.217,0.922,-23.374,9.435,-29.267
2.070,-0.337,-0.219,0.948,-22.290,12.092,-25.084
2.080,-0.316,-0.227,0.970,-20.931,14.107,-21.511
2.080,-0.297,-0.229,0.962,-19.939,15.847,-19.084
2.080,-0.283,-0.229,0.962,-18.275,17.435,-16.992
2.090,-0.280,-0.229,0.966,-16.305,18.000,-15.786
2.090,-0.279,-0.229,0.962,-13.893,16.656,-14.702
2.100,-0.283,-0.229,0.948,-11.802,13.664,-14.031
2.100,-0.279,-0.225,0.937,-10.626,9.588,-13.740
2.110,-0.267,-0.230,0.945,-9.634,5.618,-13.786
2.110,-0.250,-0.233,0.933,-7.878,2.626,-13.786
2.110,-0.255,-0.229,0.917,-6.733,-0.153,-13.389
2.120,-0.255,-0.227,0.911,-6.565,-3.069,-12.840
2.120,-0.246,-0.221,0.889,-6.336,-5.405,-11.908
2.130,-0.240,-0.224,0.885,-6.504,-6.733,-10.855
2.130,-0.228,-0.218,0.888,-6.626,-6.626,-9.756
2.140,-0.227,-0.217,0.873,-6.733,-5.542,-8.366
2.140,-0.216,-0.206,0.871,-7.282,-4.351,-6.611
2.140,-0.212,-0.205,0.868,-8.198,-2.779,-5.008
2.150,-0.198,-0.207,0.870,-8.519,-0.397,-2.931
2.150,-0.204,-0.199,0.875,-8.473,2.290,-0.870
2.160,-0.193,-0.208,0.881,-8.565,4.229,1.023
2.160,-0.186,-0.211,0.888,-8.809,5.710,2.397
2.160,-0.179,-0.204,0.885,-9.038,6.534,3.359
2.170,-0.177,-0.207,0.889,-8.443,7.206,3.924
2.170,-0.186,-0.204,0.887,-8.137,6.397,4.489
2.180,-0.195,-0.209,0.898,-8.092,4.656,4.962
2.180,-0.196,-0.206,0.914,-7.313,2.977,5.664
2.180,-0.195,-0.210,0.935,-6.046,1.771,6.489
2.190,-0.195,-0.211,0.932,-4.672,0.916,7.725
2.190,-0.193,-0.209,0.938,-3.191,0.183,9.099
2.200,-0.188,-0.208,0.918,-2.977,-1.023,9.908
2.200,-0.171,-0.203,0.920,-2.656,-1.924,10.962
2.200,-0.167,-0.201,0.913,-2.336,-2.061,11.573
2.210,-0.160,-0.204,0.920,-1.802,-1.588,12.412
2.210,-0.161,-0.202,0.916,-1.328,-1.771,12.855
2.220,-0.151,-0.198,0.910,-0.672,-1.695,13.740
2.220,-0.165,-0.190,0.911,-0.489,-1.191,15.130
2.230,-0.161,-0.178,0.899,-0.015,-0.321,16.489
2.230,-0.165,-0.183,0.896,0.000,0.275,17.878
2.230,-0.158,-0.179,0.907,0.260,0.427,18.473
2.240,-0.152,-0.182,0.895,0.840,0.611,19.069
2.240,-0.146,-0.173,0.893,0.702,0.275,19.328
2.250,-0.158,-0.175,0.882,0.580,-0.534,20.031
2.250,-0.161,-0.173,0.875,0.611,-1.954,20.595
2.250,-0.168,-0.174,0.891,0.260,-3.115,21.618
2.260,-0.160,-0.182,0.886,0.458,-4.061,22.214
2.260,-0.156,-0.188,0.893,0.718,-4.901,22.885
2.270,-0.163,-0.183,0.888,0.931,-6.473,23.374
2.270,-0.152,-0.185,0.872,0.107,-8.336,23.618
2.270,-0.143,-0.183,0.881,-0.443,-9.084,24.107
2.280,-0.133,-0.187,0.881,0.031,-9.359,24.626
2.280,-0.134,-0.195,0.894,0.366,-9.344,25.618
2.290,-0.153,-0.200,0.893,0.641,-9.298,26.458
2.290,-0.147,-0.200,0.881,0.519,-9.344,27.450
2.290,-0.140,-0.199,0.884,-0.275,-10.015,28.015
2.300,-0.135,-0.207,0.883,-0.534,-10.321,28.519
2.300,-0.134,-0.206,0.898,0.229,-9.710,29.298
2.310,-0.148,-0.217,0.909,0.550,-8.840,30.840
2.310,-0.153,-0.213,0.900,0.641,-7.511,32.977
2.320,-0.149,-0.218,0.899,0.153,-6.794,34.962
2.320,-0.135,-0.222,0.904,0.321,-5.634,36.947
2.320,-0.126,-0.223,0.905,0.076,-4.107,38.687
2.330,-0.106,-0.227,0.911,0.336,-2.122,40.504
2.330,-0.101,-0.224,0.923,0.336,-0.702,41.679
2.340,-0.093,-0.223,0.926,0.397,0.336,43.038
2.340,-0.070,-0.221,0.948,0.595,1.542,43.496
2.340,-0.049,-0.223,0.946,1.160,3.481,43.786
2.350,-0.042,-0.219,0.950,2.382,5.160,43.496
2.350,-0.046,-0.213,0.947,3.374,5.359,42.947
2.360,-0.044,-0.209,0.950,4.473,3.847,41.756
2.360,-0.033,-0.200,0.950,5.542,2.168,40.397
2.360,-0.026,-0.198,0.943,6.595,0.015,38.626
2.370,-0.013,-0.190,0.941,7.450,-1.481,36.595
2.370,-0.013,-0.186,0.930,8.763,-3.634,34.427
2.380,-0.001,-0.186,0.925,9.573,-6.351,32.534
2.380,-0.002,-0.188,0.905,9.405,-8.229,30.733
2.380,0.005,-0.177,0.886,9.038,-9.420,28.748
2.390,0.009,-0.177,0.881,7.939,-10.641,27.130
2.390,0.007,-0.169,0.895,7.160,-11.710,25.557
2.400,0.001,-0.171,0.902,6.443,-12.244,24.458
2.400,-0.009,-0.167,0.898,5.908,-12.000,24.260
2.400,-0.021,-0.162,0.896,5.420,-12.260,23.985
2.410,-0.032,-0.158,0.889,4.916,-12.534,23.908
2.410,-0.042,-0.159,0.882,3.603,-11.802,24.412
2.420,-0.040,-0.155,0.886,2.595,-10.626,24.611
2.420,-0.051,-0.157,0.891,3.115,-9.435,25.038
2.420,-0.064,-0.159,0.901,3.176,-8.794,25.221
2.430,-0.087,-0.161,0.912,3.053,-8.092,25.893
2.430,-0.102,-0.164,0.906,3.710,-6.916,26.580
2.440,-0.112,-0.168,0.894,4.290,-6.305,27.206
2.440,-0.130,-0.171,0.909,4.687,-6.565,27.618
2.450,-0.159,-0.176,0.903,5.573,-7.313,28.214
2.450,-0.193,-0.179,0.882,5.847,-8.992,28.504
2.450,-0.216,-0.187,0.888,6.489,-10.794,29.176
2.460,-0.248,-0.190,0.873,6.916,-13.588,30.031
2.460,-0.271,-0.190,0.865,7.267,-17.038,31.237
2.470,-0.312,-0.192,0.852,7.618,-20.733,32.672
2.470,-0.329,-0.187,0.843,7.160,-23.786,35.130
2.470,-0.351,-0.195,0.846,7.038,-25.908,38.122
2.480,-0.367,-0.206,0.839,7.176,-27.496,41.588
2.480,-0.368,-0.214,0.839,7.069,-28.641,45.832
2.490,-0.375,-0.204,0.826,6.611,-29.160,50.672
2.490,-0.376,-0.207,0.828,5.878,-29.130,55.649
2.500,-0.364,-0.214,0.837,5.359,-27.206,60.870
2.500,-0.341,-0.211,0.846,5.115,-23.954,65.664
2.500,-0.322,-0.216,0.857,4.992,-20.702,70.260
2.510,-0.307,-0.223,0.849,4.595,-18.198,74.198
2.510,-0.290,-0.220,0.862,4.611,-15.863,77.985
2.520,-0.276,-0.227,0.856,4.794,-13.145,81.573
2.520,-0.264,-0.226,0.843,4.366,-11.115,84.840
2.520,-0.253,-0.232,0.852,3.725,-10.672,87.664
2.530,-0.220,-0.241,0.862,3.603,-10.397,89.634
2.530,-0.203,-0.238,0.870,3.542,-10.260,91.160
2.540,-0.193,-0.247,0.877,4.214,-10.397,92.565
2.540,-0.183,-0.242,0.879,4.672,-11.511,93.695
2.550,-0.170,-0.238,0.885,5.542,-12.198,94.366
2.550,-0.157,-0.242,0.874,5.908,-13.344,94.672
2.550,-0.142,-0.236,0.883,6.397,-14.794,95.389
2.560,-0.133,-0.235,0.876,7.115,-15.435,95.130
2.560,-0.133,-0.225,0.876,8.015,-16.626,94.122
2.570,-0.132,-0.224,0.876,8.611,-18.076,93.756
2.570,-0.142,-0.224,0.868,9.145,-19.115,93.924
2.570,-0.148,-0.219,0.852,8.779,-19.954,94.580
2.580,-0.147,-0.217,0.849,8.580,-20.076,94.412
2.580,-0.152,-0.226,0.843,8.473,-19.634,96.229
2.590,-0.154,-0.226,0.836,8.031,-19.420,96.840
2.590,-0.164,-0.225,0.841,7.573,-19.649,98.305
2.600,-0.174,-0.226,0.824,6.947,-19.969,97.985
2.600,-0.177,-0.222,0.831,6.977,-20.366,99.496
2.600,-0.184,-0.227,0.830,6.336,-20.855,101.053
2.610,-0.179,-0.226,0.829,5.740,-20.687,102.427
2.610,-0.179,-0.237,0.829,6.229,-20.198,103.908
2.620,-0.200,-0.231,0.824,5.924,-19.771,105.588
2.620,-0.218,-0.239,0.815,5.985,-19.786,107.817
2.620,-0.228,-0.240,0.822,6.214,-19.924,110.382
2.630,-0.229,-0.235,0.813,5.786,-19.969,113.130
2.630,-0.228,-0.243,0.810,5.588,-19.634,116.260
2.640,-0.228,-0.245,0.805,5.298,-19.328,119.588
2.640,-0.221,-0.251,0.817,4.763,-18.779,122.794
2.650,-0.200,-0.255,0.829,4.962,-16.626,126.092
2.650,-0.192,-0.265,0.837,4.885,-14.122,129.115
2.650,-0.175,-0.263,0.829,4.397,-11.435,131.985
2.660,-0.164,-0.264,0.856,5.008,-8.641,134.580
2.660,-0.156,-0.270,0.834,5.237,-5.664,136.412
2.670,-0.148,-0.260,0.830,5.695,-2.962,138.244
2.670,-0.145,-0.272,0.830,5.618,-1.573,139.511
2.680,-0.136,-0.261,0.826,5.267,-1.389,140.214
2.680,-0.137,-0.270,0.810,5.496,-1.527,140.397
2.680,-0.137,-0.269,0.806,5.053,-2.351,140.137
2.690,-0.140,-0.272,0.800,4.397,-4.809,139.420
2.690,-0.153,-0.278,0.787,4.092,-7.420,138.580
2.700,-0.168,-0.282,0.780,3.863,-10.397,138.595
2.700,-0.188,-0.282,0.761,3.466,-13.511,138.641
2.700,-0.187,-0.291,0.744,1.725,-17.084,139.344
2.710,-0.185,-0.292,0.751,-0.427,-20.076,140.046
2.710,-0.177,-0.297,0.769,-1.771,-21.893,141.099
2.720,-0.173,-0.307,0.769,-3.191,-22.641,142.748
2.720,-0.159,-0.308,0.778,-4.977,-22.122,143.985
2.730,-0.138,-0.315,0.775,-6.962,-21.084,145.893
2.730,-0.126,-0.309,0.802,-8.519,-18.458,147.588
2.730,-0.136,-0.316,0.811,-9.450,-16.260,149.863
2.740,-0.133,-0.316,0.838,-9.908,-13.359,152.473
2.740,-0.118,-0.308,0.842,-10.427,-10.031,154.931
2.750,-0.108,-0.309,0.848,-10.794,-5.664,157.008
2.750,-0.106,-0.304,0.827,-10.656,-2.122,158.855
2.760,-0.109,-0.309,0.844,-10.992,-0.718,160.550
2.760,-0.101,-0.306,0.848,-11.252,-0.397,161.588
2.770,-0.085,-0.317,0.863,-11.038,0.656,161.802
2.770,-0.089,-0.320,0.863,-10.168,1.252,162.321
2.770,-0.100,-0.333,0.858,-9.023,0.565,162.580
2.780,-0.112,-0.337,0.863,-8.534,-2.550,162.382
2.780,-0.100,-0.339,0.851,-8.580,-6.534,162.305
2.790,-0.090,-0.354,0.855,-9.252,-9.832,162.626
2.790,-0.075,-0.358,0.873,-9.374,-12.107,163.405
2.800,-0.062,-0.361,0.883,-9.618,-13.725,164.122
2.800,-0.033,-0.371,0.890,-9.634,-14.122,164.626
2.800,-0.006,-0.366,0.893,-10.122,-14.015,164.702
2.810,0.022,-0.361,0.901,-11.038,-12.565,164.473
2.810,0.053,-0.362,0.906,-11.603,-9.557,163.878
2.820,0.088,-0.356,0.924,-11.878,-5.985,162.244
2.820,0.100,-0.350,0.944,-11.756,-2.473,159.817
2.830,0.102,-0.345,0.954,-10.702,0.092,157.053
2.830,0.095,-0.340,0.959,-9.817,1.328,153.817
2.830,0.078,-0.339,0.948,-8.702,2.092,150.504
2.840,0.057,-0.339,0.945,-7.328,0.855,146.595
2.840,0.031,-0.333,0.938,-6.305,-2.290,142.214
2.850,-0.013,-0.339,0.923,-4.962,-7.511,138.092
2.850,-0.061,-0.339,0.907,-3.481,-13.893,134.779
2.850,-0.116,-0.349,0.885,-2.153,-22.153,131.939
2.860,-0.158,-0.353,0.884,-0.809,-31.038,129.679
2.860,-0.196,-0.363,0.852,0.214,-39.008,128.748
2.870,-0.232,-0.375,0.842,0.824,-46.198,129.298
2.870,-0.263,-0.384,0.834,1.695,-52.656,131.771
2.880,-0.284,-0.390,0.809,1.878,-57.710,136.595
2.880,-0.273,-0.397,0.806,0.153,-59.573,142.626
2.880,-0.243,-0.410,0.809,-2.015,-57.191,150.580
2.890,-0.170,-0.418,0.818,-4.382,-51.298,158.198
2.890,-0.092,-0.426,0.849,-6.397,-41.267,165.649
2.900,-0.037,-0.432,0.873,-7.786,-28.366,172.519
2.900,0.025,-0.423,0.903,-8.275,-15.481,178.198
2.910,0.063,-0.433,0.923,-8.458,-3.939,182.473
2.910,0.089,-0.418,0.927,-8.260,6.458,185.603
2.910,0.134,-0.412,0.930,-8.153,14.366,187.344
2.920,0.162,-0.410,0.927,-7.725,19.786,187.115
2.920,0.178,-0.411,0.925,-6.641,23.099,185.099
2.930,0.178,-0.409,0.917,-5.756,22.687,181.725
2.930,0.161,-0.399,0.903,-4.672,18.305,177.099
2.940,0.150,-0.395,0.898,-3.817,10.702,171.145
2.940,0.145,-0.385,0.874,-3.252,0.885,164.733
2.940,0.125,-0.374,0.864,-2.244,-9.359,158.595
2.950,0.096,-0.375,0.840,-0.611,-21.221,152.641
2.950,0.047,-0.391,0.802,0.168,-34.229,147.634
2.960,0.023,-0.394,0.792,1.069,-45.817,144.947
2.960,0.007,-0.400,0.786,1.359,-56.107,144.473
2.960,0.024,-0.398,0.769,-0.061,-61.817,145.511
2.970,0.082,-0.399,0.770,-2.031,-63.038,146.626
2.970,0.131,-0.401,0.780,-4.336,-60.382,148.061
2.980,0.190,-0.407,0.800,-6.427,-53.878,149.130
2.980,0.231,-0.405,0.830,-8.122,-45.176,150.702
2.990,0.266,-0.399,0.847,-10.229,-35.771,151.939
2.990,0.283,-0.389,0.860,-11.450,-26.427,152.397
2.990,0.314,-0.394,0.879,-12.565,-18.015,152.229
3.000,0.321,-0.376,0.886,-12.916,-11.023,150.931
3.000,0.330,-0.378,0.908,-12.626,-6.382,148.931
3.010,0.328,-0.373,0.913,-12.076,-3.878,145.817
3.010,0.323,-0.366,0.913,-10.870,-3.389,141.985
3.020,0.289,-0.363,0.919,-9.282,-5.649,137.298
3.020,0.266,-0.365,0.907,-7.481,-9.573,132.656
3.020,0.242,-0.354,0.885,-6.229,-16.061,127.725
3.030,0.219,-0.357,0.873,-5.573,-24.076,122.244
3.030,0.176,-0.368,0.863,-3.603,-32.901,118.366
3.040,0.139,-0.380,0.854,-1.649,-41.924,116.641
3.040,0.141,-0.388,0.849,-0.962,-48.702,117.145
3.050,0.183,-0.387,0.835,-2.382,-50.198,118.260
3.050,0.247,-0.394,0.829,-3.740,-47.511,119.603
3.050,0.314,-0.393,0.846,-5.450,-42.092,119.924
3.060,0.387,-0.398,0.873,-6.687,-34.061,119.191
3.060,0.429,-0.398,0.895,-7.359,-23.817,118.122
3.070,0.456,-0.390,0.926,-7.878,-15.344,116.244
3.070,0.477,-0.380,0.942,-7.725,-7.099,113.802
3.080,0.489,-0.375,0.967,-6.702,0.763,111.069
3.080,0.488,-0.364,0.971,-4.947,8.748,108.351
3.080,0.473,-0.352,0.969,-2.687,15.008,105.267
3.090,0.455,-0.348,0.969,-0.290,17.527,101.634
3.090,0.417,-0.330,0.948,1.969,17.282,97.359
3.100,0.385,-0.319,0.927,3.893,14.840,92.611
3.100,0.355,-0.312,0.895,4.229,10.901,88.183
3.100,0.420,-0.284,0.905,1.298,22.168,86.595
3.110,0.305,-0.345,0.941,7.084,13.603,79.374
3.110,0.289,-0.278,0.890,8.595,5.038,73.634
3.120,0.230,-0.284,0.876,7.618,-7.191,68.260
3.120,0.216,-0.276,0.823,6.397,-9.634,65.008
3.120,0.187,-0.273,0.829,7.053,-11.298,62.305
3.130,0.132,-0.289,0.860,8.412,-20.947,59.634
3.130,0.098,-0.291,0.842,9.237,-31.389,58.260
3.140,0.105,-0.284,0.798,7.802,-34.031,59.099
3.140,0.110,-0.269,0.770,5.466,-32.031,61.573
3.140,0.131,-0.271,0.799,4.366,-31.206,63.740
3.150,0.136,-0.275,0.802,2.779,-30.824,66.183
3.150,0.148,-0.263,0.809,-0.290,-30.702,68.366
3.160,0.212,-0.252,0.813,-3.710,-20.458,71.374
3.160,0.279,-0.258,0.861,-4.840,-6.275,74.000
3.160,0.281,-0.256,0.913,-3.008,1.740,74.733
3.170,0.276,-0.249,0.906,-2.229,5.649,74.626
3.170,0.261,-0.229,0.889,-1.771,6.412,74.137
3.180,0.252,-0.220,0.866,-2.794,6.244,72.992
3.180,0.258,-0.213,0.870,-2.718,5.206,71.282
3.180,0.266,-0.209,0.879,-1.939,1.817,68.366
3.190,0.264,-0.205,0.882,-1.008,-2.702,64.779
3.190,0.276,-0.197,0.860,-0.855,-8.260,60.321
3.200,0.275,-0.187,0.850,-1.511,-13.237,56.244
3.200,0.267,-0.187,0.831,-1.771,-18.366,51.893
3.200,0.257,-0.188,0.821,-1.908,-23.176,47.893
3.210,0.230,-0.190,0.825,-2.076,-27.298,45.328
3.210,0.206,-0.199,0.830,-2.214,-29.893,44.550
3.220,0.186,-0.202,0.839,-2.504,-31.908,44.824
3.220,0.185,-0.204,0.834,-3.557,-33.069,45.969
3.230,0.198,-0.200,0.824,-5.115,-32.595,47.588
3.230,0.235,-0.203,0.836,-7.344,-29.176,49.466
3.230,0.255,-0.202,0.849,-9.420,-23.756,51.282
3.240,0.301,-0.207,0.862,-10.885,-17.252,51.908
3.240,0.330,-0.197,0.883,-12.092,-11.344,52.107
3.250,0.341,-0.197,0.894,-13.298,-6.122,51.603
3.250,0.382,-0.190,0.919,-13.847,-0.473,50.397
3.250,0.384,-0.181,0.927,-12.916,3.252,48.351
3.260,0.381,-0.177,0.947,-12.168,6.427,45.710
3.260,0.378,-0.174,0.950,-10.931,8.870,42.947
3.270,0.364,-0.171,0.958,-9.740,9.359,39.740
3.270,0.349,-0.175,0.950,-7.649,6.382,35.542
3.280,0.334,-0.157,0.935,-6.733,3.664,32.092
3.280,0.296,-0.158,0.928,-6.305,-0.412,28.504
3.280,0.280,-0.158,0.926,-5.160,-4.763,24.748
3.290,0.275,-0.157,0.916,-4.412,-7.191,21.511
3.290,0.249,-0.155,0.906,-3.740,-10.305,18.031
3.300,0.246,-0.152,0.885,-3.603,-11.725,14.733
3.300,0.222,-0.158,0.876,-3.908,-13.405,11.863
3.300,0.193,-0.161,0.879,-3.817,-15.176,9.344
3.310,0.167,-0.160,0.880,-4.168,-16.443,7.817
3.310,0.141,-0.160,0.878,-4.061,-16.351,7.282
3.320,0.124,-0.166,0.890,-3.573,-15.618,7.756
3.320,0.096,-0.165,0.878,-2.885,-14.275,9.145
3.320,0.078,-0.167,0.876,-3.115,-13.634,11.053
3.330,0.078,-0.155,0.858,-3.985,-11.695,13.344
3.330,0.086,-0.158,0.863,-4.901,-10.122,15.435
3.340,0.095,-0.159,0.874,-5.115,-8.275,17.221
3.340,0.108,-0.160,0.870,-5.099,-5.542,19.359
3.340,0.113,-0.154,0.859,-5.145,-1.618,21.450
3.350,0.133,-0.153,0.865,-5.145,1.802,22.962
3.350,0.157,-0.151,0.858,-5.115,4.580,24.183
3.360,0.181,-0.148,0.869,-5.084,7.649,24.824
3.360,0.189,-0.144,0.858,-5.466,11.206,25.145
3.370,0.204,-0.143,0.853,-5.634,15.954,25.344
3.370,0.211,-0.144,0.853,-5.542,20.397,25.038
3.370,0.200,-0.135,0.845,-5.969,23.252,24.626
3.380,0.173,-0.145,0.844,-6.748,22.840,23.466
3.380,0.171,-0.128,0.832,-8.107,21.435,22.244
3.390,0.156,-0.124,0.823,-9.878,19.252,20.550
3.390,0.155,-0.133,0.825,-10.824,16.550,18.595
3.390,0.151,-0.143,0.835,-11.863,11.740,16.092
3.400,0.153,-0.139,0.844,-12.733,7.298,13.176
3.400,0.155,-0.149,0.862,-13.237,3.985,10.763
3.410,0.155,-0.157,0.888,-13.328,1.954,8.580
3.410,0.134,-0.166,0.900,-12.824,-0.550,7.115
3.410,0.118,-0.171,0.924,-12.000,-2.809,6.305
3.420,0.113,-0.175,0.928,-11.267,-5.053,6.107
3.420,0.117,-0.185,0.943,-9.863,-6.824,5.221
3.430,0.117,-0.186,0.951,-8.870,-7.435,4.901
3.430,0.126,-0.190,0.967,-7.664,-7.725,4.611
3.430,0.133,-0.187,0.979,-6.794,-6.611,4.672
3.440,0.142,-0.191,0.984,-5.435,-4.229,4.534
3.440,0.141,-0.199,0.974,-3.618,-1.115,4.733
3.450,0.138,-0.189,0.971,-2.687,0.534,4.779
3.450,0.135,-0.191,0.958,-1.924,1.664,4.748
3.450,0.137,-0.188,0.959,-0.931,2.733,4.534
3.460,0.133,-0.186,0.949,-0.336,3.023,4.198
3.460,0.120,-0.184,0.931,0.229,2.855,4.015
3.470,0.123,-0.184,0.939,0.656,2.412,3.450
3.470,0.121,-0.184,0.924,0.870,1.786,2.748
3.470,0.124,-0.179,0.907,0.626,0.901,1.740
3.480,0.115,-0.182,0.921,0.656,-0.626,1.237
3.480,0.109,-0.180,0.912,0.122,-2.443,0.229
3.480,0.117,-0.181,0.919,-0.122,-3.802,-0.870
3.490,0.119,-0.185,0.908,-0.427,-4.336,-1.725
3.490,0.110,-0.182,0.923,-0.534,-5.053,-2.336
3.500,0.105,-0.187,0.915,-0.870,-5.221,-2.947
3.500,0.096,-0.181,0.923,-0.290,-5.267,-3.145
3.510,0.096,-0.187,0.926,-0.244,-5.389,-3.130
3.510,0.084,-0.187,0.923,-0.458,-4.977,-2.992
3.510,0.098,-0.186,0.936,0.275,-3.939,-2.672
3.520,0.094,-0.190,0.942,1.191,-2.321,-2.382
3.520,0.088,-0.178,0.931,1.863,-0.870,-2.092
3.530,0.088,-0.178,0.909,2.214,-0.122,-1.588
3.530,0.075,-0.174,0.913,2.504,0.290,-1.374
3.530,0.072,-0.173,0.914,3.130,0.305,-1.191
3.540,0.075,-0.168,0.895,2.931,-0.443,-1.252
3.540,0.083,-0.171,0.902,2.947,-1.069,-1.771
3.550,0.099,-0.167,0.889,3.237,-0.916,-2.519
3.550,0.085,-0.164,0.881,2.794,-1.221,-2.901
3.550,0.084,-0.170,0.881,2.779,0.076,-3.115
3.560,0.092,-0.170,0.880,2.489,2.427,-3.359
3.560,0.089,-0.181,0.884,2.412,4.412,-3.634
3.560,0.064,-0.182,0.874,2.427,3.878,-3.863
3.570,0.050,-0.182,0.874,1.679,1.664,-4.107
3.570,0.039,-0.178,0.867,1.008,-0.260,-3.924
3.580,0.033,-0.166,0.878,0.366,-1.344,-3.893
3.580,0.034,-0.177,0.888,0.626,-3.252,-3.527
3.580,0.038,-0.172,0.905,1.053,-4.580,-3.527
3.590,0.055,-0.172,0.900,1.099,-4.366,-3.435
3.590,0.061,-0.169,0.887,1.771,-2.931,-3.145
3.600,0.062,-0.167,0.894,2.046,-1.847,-2.702
3.600,0.053,-0.166,0.885,2.687,-0.931,-2.214
3.600,0.053,-0.163,0.869,3.130,0.443,-1.771
3.610,0.053,-0.156,0.865,2.992,2.168,-1.084
3.610,0.046,-0.161,0.862,2.763,3.557,-0.229
3.620,0.039,-0.159,0.857,2.702,4.153,0.382
3.620,0.031,-0.154,0.851,2.366,4.183,0.794
3.620,0.041,-0.153,0.844,1.267,4.305,1.313
3.630,0.049,-0.141,0.848,0.550,4.519,1.634
3.630,0.045,-0.143,0.854,-0.107,5.008,1.985
3.640,0.057,-0.138,0.844,-0.168,5.298,2.214
3.640,0.060,-0.142,0.853,-0.321,5.878,2.351
3.640,0.062,-0.134,0.856,0.031,6.962,2.656
3.650,0.069,-0.134,0.863,0.748,7.863,2.809
3.650,0.064,-0.134,0.853,0.916,7.802,2.611
3.650,0.071,-0.133,0.846,0.885,7.053,2.336
3.660,0.076,-0.133,0.851,1.252,6.321,1.649
3.660,0.074,-0.133,0.835,1.298,6.076,1.359
3.670,0.075,-0.128,0.838,0.809,5.695,1.130
3.670,0.068,-0.126,0.842,0.092,4.763,0.718
3.670,0.072,-0.123,0.839,-0.656,4.534,0.550
3.680,0.077,-0.128,0.839,-1.115,4.275,0.473
3.680,0.078,-0.129,0.853,-1.695,4.489,0.305
3.690,0.082,-0.130,0.840,-2.718,4.763,0.244
3.690,0.075,-0.128,0.834,-3.588,5.740,0.061
3.690,0.075,-0.132,0.843,-4.305,6.260,-0.107
3.700,0.069,-0.137,0.844,-4.489,6.092,-0.519
3.700,0.069,-0.144,0.847,-4.916,5.740,-0.840
3.710,0.058,-0.140,0.863,-5.481,4.580,-1.221
3.710,0.065,-0.146,0.875,-5.206,3.160,-1.481
3.710,0.075,-0.151,0.902,-4.198,1.466,-1.786
3.720,0.068,-0.152,0.913,-3.053,-2.641,-1.573
3.720,-0.024,-0.159,1.028,4.885,-16.427,0.702
3.730,0.013,-0.176,0.989,7.389,-18.779,0.015
3.730,0.074,-0.166,0.930,6.901,-10.702,-0.214
3.730,0.124,-0.147,0.880,7.053,3.557,-0.046
3.740,0.108,-0.161,0.882,8.443,11.634,-0.534
3.740,0.069,-0.155,0.924,8.504,10.550,-1.618
3.750,0.057,-0.153,0.919,9.313,8.992,-1.206
3.750,0.047,-0.158,0.909,7.969,5.481,-1.878
3.750,0.038,-0.142,0.886,5.496,2.550,-2.916
3.760,0.050,-0.136,0.875,3.206,2.214,-3.145
3.760,0.045,-0.141,0.876,0.901,1.878,-3.282
3.770,0.040,-0.132,0.886,-1.282,2.122,-3.206
3.770,0.039,-0.139,0.900,-1.786,3.435,-2.870
3.770,0.035,-0.137,0.900,-1.435,4.733,-2.382
3.780,0.027,-0.146,0.896,-1.206,4.015,-2.183
3.780,0.031,-0.138,0.911,-1.191,2.489,-2.305
3.790,0.030,-0.144,0.895,-1.038,2.107,-2.260
3.790,0.027,-0.137,0.885,-0.992,1.954,-2.107
3.790,0.022,-0.137,0.887,-0.885,1.740,-1.863
3.800,0.020,-0.140,0.890,-1.099,0.504,-1.618
3.800,0.021,-0.134,0.901,-1.634,-0.321,-1.527
3.810,0.022,-0.137,0.898,-1.802,-0.840,-1.450
3.810,0.025,-0.137,0.899,-2.092,-0.504,-0.931
3.810,0.028,-0.140,0.904,-2.366,1.237,-0.427
3.820,0.021,-0.139,0.893,-2.275,2.076,-0.076
3.820,0.017,-0.145,0.901,-1.878,1.038,0.214
3.830,0.023,-0.143,0.901,-1.832,1.832,0.901
3.830,0.034,-0.148,0.898,-1.786,3.053,1.344
3.830,0.036,-0.149,0.907,-0.870,4.885,1.847
3.840,0.032,-0.142,0.917,-0.061,5.191,1.969
3.840,0.027,-0.149,0.906,0.687,4.626,2.366
3.840,0.030,-0.142,0.907,1.344,4.763,2.366
3.850,0.035,-0.139,0.895,1.481,4.366,2.534
3.850,0.038,-0.139,0.885,1.099,3.481,2.336
3.860,0.043,-0.135,0.885,1.115,2.641,2.366
3.860,0.037,-0.136,0.889,1.084,2.092,2.321
3.860,0.028,-0.137,0.880,0.809,1.237,2.519
3.870,0.036,-0.134,0.880,0.458,1.008,2.824
3.870,0.044,-0.141,0.873,0.000,0.336,2.611
3.880,0.055,-0.140,0.874,-0.061,0.519,2.550
3.880,0.059,-0.137,0.877,-0.153,0.794,2.122
3.880,0.059,-0.138,0.871,-0.565,0.473,2.122
3.890,0.052,-0.135,0.863,-0.977,-0.473,1.954
3.890,0.055,-0.139,0.880,-1.252,-0.656,1.634
3.890,0.054,-0.135,0.881,-1.786,-0.427,1.832
3.900,0.048,-0.138,0.892,-2.198,-0.824,1.802
3.900,0.050,-0.132,0.878,-2.519,-1.649,1.756
3.910,0.059,-0.134,0.892,-2.534,-1.435,1.603
3.910,0.058,-0.137,0.888,-2.137,-0.947,1.420
3.910,0.051,-0.140,0.899,-2.183,-0.840,1.191
3.920,0.046,-0.141,0.900,-2.305,-1.481,1.298
3.920,0.053,-0.134,0.895,-2.046,-1.786,0.977
3.930,0.054,-0.139,0.900,-1.603,-1.740,0.916
3.930,0.060,-0.142,0.904,-1.053,-1.420,0.565
3.930,0.057,-0.142,0.889,-0.855,-1.435,0.290
3.940,0.046,-0.142,0.899,-0.779,-1.588,0.473
3.940,0.056,-0.142,0.899,-0.611,-1.573,0.427
3.950,0.052,-0.146,0.888,-0.580,-2.031,0.382
3.950,0.052,-0.143,0.884,-0.931,-2.397,0.351
3.950,0.057,-0.142,0.897,-1.267,-1.908,0.275
3.960,0.067,-0.146,0.891,-1.282,-0.733,0.519
3.960,0.070,-0.143,0.898,-0.931,0.641,0.824
3.970,0.069,-0.145,0.891,-0.672,0.962,0.947
3.970,0.070,-0.142,0.885,-0.916,1.130,0.763
3.970,0.073,-0.137,0.882,-1.145,1.267,0.336
3.980,0.082,-0.135,0.885,-1.420,1.893,0.000
3.980,0.075,-0.131,0.882,-1.191,2.092,-0.275
3.990,0.071,-0.135,0.876,-1.496,1.908,-0.656
3.990,0.066,-0.133,0.885,-1.511,2.229,-1.053
3.990,0.066,-0.135,0.874,-1.420,2.519,-1.252
4.000,0.068,-0.137,0.869,-1.649,3.008,-1.557
4.000,0.063,-0.137,0.865,-1.924,2.702,-1.985
4.010,0.064,-0.141,0.864,-2.153,2.977,-2.336
4.010,0.055,-0.140,0.865,-2.336,2.901,-2.412
4.010,0.051,-0.140,0.875,-2.885,2.229,-2.626
4.020,0.047,-0.139,0.868,-3.099,1.725,-2.595
4.020,0.050,-0.140,0.864,-3.634,1.450,-2.748
4.030,0.049,-0.136,0.867,-4.260,1.435,-2.687
4.030,0.048,-0.141,0.875,-4.321,1.374,-2.870
4.030,0.048,-0.144,0.888,-4.305,2.107,-2.687
4.040,0.052,-0.143,0.877,-4.244,2.611,-2.718
4.040,0.045,-0.147,0.885,-4.122,2.885,-2.763
4.050,0.052,-0.142,0.873,-4.244,2.626,-2.916
4.050,0.065,-0.150,0.869,-4.534,2.321,-3.298
4.050,0.060,-0.152,0.871,-4.870,1.985,-3.786
4.060,0.056,-0.149,0.875,-5.405,1.908,-4.183
4.060,0.053,-0.156,0.880,-5.832,1.557,-4.519
4.070,0.048,-0.158,0.874,-6.244,0.916,-4.931
4.070,0.049,-0.158,0.885,-6.427,0.137,-5.420
4.070,0.046,-0.161,0.885,-6.656,-0.153,-5.573
4.080,0.035,-0.154,0.884,-6.656,-0.611,-5.542
