Time,acce_x,acce_y,acce_z,gyro_x,gyro_y,gyro_z
0.000,0.019,-0.206,0.889,0.931,0.672,-1.649
0.000,0.022,-0.198,0.894,0.809,0.916,-1.527
0.010,0.022,-0.200,0.890,0.779,0.992,-1.557
0.010,0.019,-0.193,0.880,0.885,1.420,-1.649
0.010,0.017,-0.197,0.875,0.748,1.985,-1.252
0.020,0.014,-0.192,0.870,0.504,2.061,-1.176
0.020,0.007,-0.192,0.875,0.672,2.443,-1.038
0.020,0.002,-0.188,0.867,0.351,2.336,-0.947
0.030,0.004,-0.191,0.853,0.046,1.832,-0.947
0.030,-0.002,-0.189,0.857,-0.794,1.237,-0.809
0.030,-0.003,-0.193,0.855,-1.145,0.718,-0.779
0.040,-0.007,-0.195,0.880,-1.023,0.885,-0.672
0.040,0.006,-0.191,0.873,-1.328,0.885,-0.656
0.040,0.003,-0.193,0.869,-1.313,0.550,-0.550
0.050,0.005,-0.194,0.869,-1.634,0.214,-0.580
0.050,0.000,-0.198,0.866,-1.725,-0.672,-0.641
0.050,-0.002,-0.194,0.853,-1.756,-1.496,-0.672
0.060,-0.009,-0.193,0.866,-1.954,-1.832,-0.702
0.060,-0.009,-0.191,0.866,-2.305,-2.702,-0.382
0.070,-0.002,-0.199,0.873,-2.641,-2.718,-0.382
0.070,0.006,-0.191,0.882,-2.168,-2.550,-0.137
0.080,0.012,-0.192,0.879,-2.092,-2.198,0.031
0.080,0.006,-0.186,0.885,-1.954,-1.863,0.351
0.080,0.006,-0.193,0.875,-1.557,-1.832,0.366
0.090,-0.000,-0.189,0.872,-1.847,-2.137,0.672
0.090,0.008,-0.187,0.865,-2.443,-2.763,0.550
0.100,0.012,-0.182,0.862,-2.229,-3.237,0.412
0.100,0.013,-0.186,0.866,-2.931,-4.153,0.260
0.100,0.020,-0.179,0.875,-3.069,-4.290,-0.061
0.110,0.026,-0.190,0.880,-2.687,-4.046,-0.122
0.110,0.022,-0.189,0.874,-2.733,-4.336,-0.198
0.120,0.021,-0.192,0.867,-2.687,-5.023,-0.473
0.120,0.019,-0.186,0.866,-2.824,-5.832,-0.580
0.120,0.019,-0.191,0.878,-2.947,-6.672,-0.779
0.130,0.014,-0.199,0.874,-3.298,-8.015,-1.145
0.130,0.016,-0.194,0.879,-3.252,-9.420,-1.298
0.140,0.027,-0.197,0.879,-3.359,-9.878,-1.328
0.140,0.034,-0.202,0.874,-3.863,-10.061,-1.282
0.140,0.033,-0.203,0.869,-4.137,-10.076,-1.374
0.150,0.029,-0.207,0.881,-4.260,-9.725,-1.405
0.150,0.037,-0.208,0.875,-4.580,-9.603,-1.481
0.160,0.045,-0.207,0.877,-5.130,-9.786,-1.313
0.160,0.033,-0.213,0.877,-5.176,-9.725,-1.450
0.160,0.030,-0.206,0.888,-5.237,-9.725,-1.099
0.170,0.034,-0.212,0.888,-5.405,-10.168,-1.053
0.170,0.051,-0.213,0.898,-5.527,-10.779,-1.160
0.180,0.047,-0.211,0.889,-5.878,-10.870,-1.588
0.180,0.045,-0.209,0.899,-5.740,-10.198,-2.046
0.190,0.057,-0.216,0.919,-4.763,-8.534,-2.015
0.190,0.048,-0.212,0.917,-3.847,-7.542,-2.092
0.190,0.044,-0.208,0.907,-3.023,-6.931,-2.321
0.200,0.044,-0.207,0.906,-2.382,-6.076,-2.351
0.200,0.029,-0.215,0.905,-1.405,-5.252,-2.290
0.210,0.031,-0.214,0.916,-0.595,-4.366,-2.153
0.210,0.029,-0.211,0.905,0.183,-3.481,-1.863
0.210,0.025,-0.208,0.894,1.191,-2.168,-1.542
0.220,0.011,-0.203,0.893,1.191,-1.573,-1.069
0.220,0.010,-0.204,0.889,1.282,-0.763,-0.427
0.230,0.006,-0.205,0.882,1.221,-0.198,0.244
0.230,0.012,-0.201,0.877,1.023,0.244,0.656
0.230,0.013,-0.196,0.875,0.901,0.885,1.008
0.240,0.006,-0.199,0.872,0.733,1.008,1.511
0.240,0.010,-0.193,0.866,-0.153,0.122,1.985
0.250,0.018,-0.199,0.875,-0.947,-0.076,2.076
0.250,0.026,-0.204,0.883,-0.656,1.176,2.107
0.250,0.019,-0.206,0.882,-0.718,1.527,2.534
0.260,0.010,-0.199,0.877,-1.344,0.611,2.595
0.260,0.012,-0.199,0.883,-1.603,-0.427,2.901
0.270,0.023,-0.204,0.878,-1.695,-0.992,2.855
0.270,0.031,-0.205,0.900,-1.466,-1.084,2.855
0.270,0.033,-0.202,0.896,-0.992,-0.763,3.084
0.280,0.031,-0.200,0.896,-0.763,-0.748,2.840
0.280,0.036,-0.197,0.891,-0.885,-1.145,2.718
0.290,0.036,-0.198,0.884,-0.672,-1.328,2.595
0.290,0.047,-0.202,0.894,-0.748,-1.420,2.260
0.290,0.047,-0.197,0.895,-0.611,-0.931,1.969
0.300,0.057,-0.193,0.898,-0.855,1.664,2.107
0.300,0.061,-0.204,0.912,-0.336,5.664,2.626
0.300,0.048,-0.200,0.914,0.702,8.870,3.435
0.310,0.018,-0.201,0.896,1.282,8.168,3.985
0.310,0.011,-0.197,0.888,0.992,5.145,3.527
0.320,0.016,-0.198,0.878,-0.260,2.748,3.405
0.320,0.031,-0.197,0.889,-0.550,2.031,3.282
0.320,0.037,-0.202,0.895,-0.290,0.626,2.519
0.330,0.041,-0.198,0.900,-0.137,-1.466,1.908
0.330,0.052,-0.197,0.888,-0.107,-2.275,1.206
0.340,0.061,-0.196,0.882,-0.061,-1.252,0.840
0.340,0.059,-0.198,0.879,0.275,-0.244,0.733
0.340,0.048,-0.204,0.874,0.580,0.504,0.718
0.350,0.038,-0.206,0.866,0.809,0.519,0.916
0.350,0.037,-0.204,0.871,0.840,0.702,0.840
0.360,0.037,-0.205,0.875,0.611,0.397,1.053
0.360,0.042,-0.199,0.874,0.641,-0.626,0.870
0.360,0.042,-0.199,0.879,0.244,-1.405,0.656
0.370,0.054,-0.194,0.879,-0.076,-1.664,0.443
0.370,0.055,-0.192,0.878,-0.443,-1.389,0.244
0.380,0.064,-0.193,0.877,-0.443,-1.374,0.076
0.380,0.063,-0.190,0.875,-0.275,-1.282,-0.214
0.380,0.072,-0.193,0.868,-0.366,-0.031,-0.611
0.390,0.069,-0.191,0.858,-0.122,1.344,-0.718
0.390,0.065,-0.197,0.860,-0.031,2.183,-0.916
0.400,0.058,-0.189,0.853,0.214,2.443,-1.176
0.400,0.042,-0.194,0.842,0.382,1.863,-1.282
0.400,0.017,-0.191,0.834,-0.595,-1.008,-1.542
0.410,0.026,-0.185,0.851,-2.443,-4.489,-1.924
0.410,0.045,-0.182,0.865,-2.214,-5.252,-2.290
0.420,0.044,-0.189,0.871,-1.771,-4.458,-2.260
0.420,0.036,-0.188,0.868,-2.015,-3.557,-2.031
0.420,0.033,-0.182,0.863,-2.107,-2.809,-1.511
0.430,0.046,-0.182,0.855,-1.954,-1.511,-1.588
0.430,0.043,-0.193,0.862,-1.771,-0.916,-1.496
0.440,0.044,-0.189,0.854,-2.076,0.031,-1.344
0.440,0.034,-0.196,0.855,-2.092,0.489,-1.145
0.440,0.023,-0.187,0.855,-2.366,1.038,-0.702
0.450,0.016,-0.187,0.857,-3.145,1.008,-0.641
0.450,0.013,-0.195,0.844,-3.557,0.107,-0.229
0.460,0.000,-0.192,0.859,-4.473,-0.733,0.015
0.460,0.006,-0.194,0.883,-4.901,-1.863,0.153
0.460,0.023,-0.198,0.896,-4.733,-1.969,0.260
0.470,0.027,-0.198,0.894,-4.473,-1.832,-0.092
0.470,0.027,-0.199,0.906,-4.122,-1.786,-0.092
0.480,0.024,-0.201,0.906,-3.710,-1.481,-0.504
0.480,0.021,-0.209,0.917,-2.763,-1.679,-0.550
0.480,0.015,-0.204,0.912,-2.107,-1.679,-0.229
0.490,0.008,-0.213,0.918,-1.145,-1.252,0.137
0.490,0.004,-0.211,0.915,-0.504,-0.580,0.595
0.500,-0.003,-0.210,0.912,0.031,-0.519,1.206
0.500,-0.006,-0.218,0.910,0.351,0.061,1.924
0.500,-0.005,-0.214,0.891,0.672,0.198,2.427
0.510,-0.007,-0.209,0.880,0.763,0.183,3.008
0.510,0.001,-0.213,0.886,0.489,-0.366,3.252
0.520,-0.001,-0.211,0.887,0.229,-1.557,3.221
0.520,0.008,-0.216,0.881,-0.534,-2.595,2.977
0.520,0.016,-0.213,0.873,-0.824,-2.947,2.687
0.530,0.024,-0.211,0.883,-1.145,-3.511,2.641
0.530,0.031,-0.217,0.892,-1.053,-3.618,2.580
0.540,0.034,-0.211,0.894,-0.748,-2.977,2.641
0.540,0.055,-0.215,0.899,-0.809,-0.366,3.053
0.540,0.048,-0.216,0.900,-0.214,3.053,3.832
0.550,0.039,-0.211,0.908,1.008,5.893,4.214
0.550,0.024,-0.210,0.899,1.954,5.221,4.565
0.560,0.013,-0.204,0.875,1.252,3.221,4.427
0.560,0.021,-0.206,0.885,0.794,1.847,4.473
0.560,0.035,-0.201,0.877,0.947,2.198,4.137
0.570,0.048,-0.201,0.888,1.267,1.786,3.649
0.570,0.052,-0.194,0.878,1.221,0.931,2.748
0.570,0.054,-0.195,0.876,0.565,-0.198,2.092
0.580,0.065,-0.195,0.864,0.351,-0.779,1.267
0.580,0.058,-0.186,0.874,0.183,-1.252,0.473
0.590,0.050,-0.199,0.869,0.443,-1.557,0.397
0.590,0.049,-0.191,0.867,0.443,-1.053,0.504
0.590,0.046,-0.191,0.870,0.763,-0.183,0.443
0.600,0.044,-0.192,0.869,0.504,0.092,0.534
0.600,0.038,-0.190,0.868,0.534,0.427,0.672
0.610,0.043,-0.188,0.859,0.412,1.145,1.282
0.610,0.040,-0.192,0.857,0.137,2.061,1.863
0.610,0.047,-0.185,0.859,-0.290,2.580,2.260
0.620,0.043,-0.191,0.857,-0.550,2.733,2.489
0.620,0.039,-0.185,0.855,-1.206,3.252,2.763
0.620,0.044,-0.188,0.851,-1.420,3.496,2.763
0.630,0.050,-0.185,0.845,-1.893,3.023,2.397
0.630,0.059,-0.178,0.852,-3.023,1.893,1.863
0.640,0.072,-0.182,0.859,-3.420,1.771,1.038
0.640,0.075,-0.190,0.876,-3.298,1.863,0.489
0.640,0.066,-0.187,0.878,-3.160,0.870,-0.580
0.650,0.061,-0.181,0.880,-2.992,-0.290,-0.702
0.650,0.065,-0.179,0.889,-2.702,-0.534,-1.374
0.660,0.068,-0.182,0.880,-2.275,-0.458,-1.878
0.660,0.059,-0.179,0.900,-1.771,-0.519,-2.046
0.660,0.058,-0.180,0.895,-1.664,-0.290,-2.290
0.670,0.049,-0.182,0.891,-1.237,0.824,-2.046
0.670,0.045,-0.174,0.883,-0.885,1.496,-1.939
0.680,0.044,-0.177,0.868,-0.947,1.573,-2.244
0.680,0.039,-0.166,0.863,-1.374,1.420,-2.443
0.680,0.037,-0.178,0.867,-1.908,1.481,-2.626
0.690,0.038,-0.172,0.878,-2.061,1.634,-2.550
0.690,0.033,-0.177,0.876,-2.305,1.511,-2.855
0.700,0.024,-0.176,0.881,-2.641,1.557,-2.916
0.700,0.018,-0.186,0.871,-2.763,1.115,-2.855
0.700,0.017,-0.187,0.881,-3.115,1.206,-2.687
0.710,0.012,-0.194,0.880,-2.870,1.527,-2.550
0.710,0.003,-0.196,0.886,-2.550,1.084,-2.260
0.720,-0.001,-0.200,0.893,-2.244,1.298,-1.664
0.720,-0.005,-0.204,0.886,-1.664,1.221,-1.084
0.720,0.002,-0.211,0.878,-1.863,0.840,-0.840
0.730,-0.003,-0.204,0.889,-2.107,0.366,-0.550
0.730,0.006,-0.213,0.899,-1.817,0.992,0.015
0.740,0.006,-0.212,0.906,-1.313,1.496,0.443
0.740,-0.002,-0.206,0.903,-1.176,1.496,0.855
0.740,0.006,-0.203,0.898,-1.221,1.527,0.901
0.750,0.010,-0.205,0.889,-1.435,1.298,1.206
0.750,0.009,-0.204,0.898,-1.099,1.771,1.420
0.760,0.014,-0.203,0.895,-0.992,2.061,1.634
0.760,0.015,-0.199,0.894,-0.794,1.878,1.863
0.760,0.018,-0.196,0.889,-0.733,1.710,1.832
0.770,0.012,-0.196,0.894,-0.824,1.038,1.908
0.770,0.018,-0.193,0.891,-0.489,0.748,1.985
0.780,0.021,-0.196,0.891,-0.275,1.099,2.000
0.780,0.027,-0.188,0.869,-0.229,0.168,1.954
0.780,0.029,-0.183,0.884,-0.183,0.321,1.832
0.790,0.040,-0.187,0.878,0.061,0.611,1.954
0.790,0.030,-0.184,0.861,0.137,0.366,1.664
0.800,0.034,-0.182,0.859,-0.137,-0.290,1.679
0.800,0.032,-0.179,0.870,-0.962,-0.855,1.664
0.800,0.049,-0.177,0.868,-0.885,-1.023,1.206
0.810,0.053,-0.185,0.857,-1.221,-1.099,0.794
0.810,0.049,-0.182,0.858,-1.878,-1.160,0.641
0.820,0.047,-0.174,0.867,-2.336,-1.053,0.702
0.820,0.056,-0.181,0.857,-2.168,-0.076,0.534
0.820,0.052,-0.185,0.860,-2.412,0.275,0.443
0.830,0.050,-0.184,0.857,-2.702,0.000,0.137
0.830,0.057,-0.186,0.863,-2.733,-0.107,-0.198
0.830,0.065,-0.188,0.866,-2.977,0.290,-0.351
0.840,0.056,-0.186,0.876,-2.519,0.947,-0.382
0.840,0.051,-0.185,0.885,-2.153,1.802,-0.015
0.850,0.051,-0.186,0.879,-1.969,2.550,-0.076
0.850,0.056,-0.186,0.875,-1.679,3.237,0.046
0.850,0.051,-0.189,0.863,-1.649,3.374,0.031
0.860,0.046,-0.188,0.855,-1.817,3.069,-0.183
0.860,0.041,-0.196,0.859,-2.183,2.672,-0.397
0.870,0.046,-0.193,0.861,-2.137,3.053,-0.580
0.870,0.044,-0.194,0.850,-2.092,3.160,-1.069
0.870,0.043,-0.202,0.861,-2.718,3.115,-1.542
0.880,0.038,-0.201,0.857,-3.053,3.405,-1.725
0.880,0.029,-0.201,0.850,-3.573,2.992,-1.847
0.890,0.016,-0.200,0.855,-3.481,2.718,-2.015
0.890,0.007,-0.203,0.860,-3.618,2.000,-1.664
0.890,0.006,-0.197,0.861,-4.046,1.420,-1.542
0.900,0.007,-0.206,0.866,-3.802,0.977,-1.145
0.900,0.006,-0.202,0.868,-3.725,0.489,-0.992
0.910,-0.000,-0.196,0.865,-3.374,-0.550,-0.809
0.910,-0.001,-0.198,0.856,-3.725,-2.489,-0.687
0.910,0.011,-0.193,0.867,-4.290,-3.267,-0.366
0.920,0.020,-0.190,0.864,-4.107,-2.748,-0.397
0.920,0.018,-0.193,0.874,-3.634,-2.031,-0.458
0.930,0.021,-0.190,0.882,-3.740,-1.817,-0.290
0.930,0.025,-0.189,0.883,-3.863,-1.344,-0.031
0.940,0.024,-0.195,0.878,-4.092,-0.534,0.183
0.940,0.031,-0.193,0.893,-4.275,0.122,0.489
0.940,0.023,-0.194,0.892,-4.214,1.267,0.824
0.950,0.021,-0.198,0.889,-4.076,1.817,1.191
0.950,0.018,-0.199,0.893,-4.031,1.542,1.420
0.950,0.016,-0.203,0.893,-4.214,1.023,1.176
0.960,0.023,-0.205,0.891,-4.305,0.443,1.191
0.960,0.022,-0.203,0.896,-4.366,0.870,1.221
0.970,0.025,-0.200,0.913,-3.969,1.634,1.267
0.970,0.024,-0.211,0.909,-3.435,1.878,1.130
0.970,0.024,-0.201,0.908,-3.374,1.771,0.824
0.980,0.025,-0.209,0.912,-3.130,1.557,0.809
0.980,0.025,-0.215,0.919,-2.305,1.924,0.977
0.990,0.011,-0.215,0.926,-1.832,2.489,1.160
0.990,0.014,-0.218,0.924,-1.038,2.885,1.420
0.990,0.009,-0.221,0.922,-0.458,2.870,1.466
1.000,0.006,-0.220,0.922,-0.183,2.397,1.405
1.000,0.002,-0.220,0.917,-0.092,1.344,1.344
1.010,0.000,-0.217,0.912,-0.214,0.580,1.664
1.010,0.009,-0.221,0.914,-0.122,0.687,1.847
1.010,0.012,-0.214,0.935,0.321,1.191,2.000
1.020,0.019,-0.212,0.923,0.840,1.847,2.229
1.020,0.016,-0.216,0.917,1.221,1.969,2.183
1.020,0.015,-0.207,0.907,1.374,2.015,2.458
1.030,0.015,-0.208,0.911,1.237,1.053,2.244
1.030,0.020,-0.206,0.899,1.206,0.122,2.107
1.040,0.033,-0.208,0.906,1.359,-0.718,1.573
1.040,0.032,-0.199,0.911,1.603,-1.206,0.901
1.040,0.027,-0.198,0.901,1.878,-1.740,0.626
1.050,0.025,-0.202,0.905,1.664,-2.626,0.489
1.050,0.025,-0.197,0.895,1.695,-3.008,0.550
1.060,0.029,-0.196,0.904,1.939,-2.672,0.458
1.060,0.022,-0.193,0.895,2.504,-2.595,0.565
1.060,0.023,-0.198,0.889,2.565,-2.412,0.718
1.070,0.027,-0.193,0.881,2.672,-1.695,0.840
1.070,0.020,-0.194,0.872,2.656,-1.527,1.053
1.080,0.024,-0.185,0.872,2.412,-2.229,0.931
1.080,0.028,-0.189,0.868,2.229,-2.870,0.580
1.080,0.037,-0.180,0.850,1.863,-2.687,0.519
1.090,0.032,-0.177,0.862,1.191,-2.870,0.458
1.090,0.029,-0.182,0.866,1.145,-2.015,0.641
1.100,0.036,-0.179,0.858,1.130,-1.313,0.626
1.100,0.039,-0.176,0.850,1.145,-0.687,0.779
1.100,0.039,-0.182,0.848,0.794,0.412,0.885
1.110,0.042,-0.183,0.839,0.473,0.718,0.931
1.110,0.033,-0.189,0.852,0.168,1.160,0.748
1.110,0.024,-0.187,0.847,-0.382,0.840,0.656
1.120,0.025,-0.186,0.844,-1.023,0.031,0.641
1.120,0.025,-0.184,0.852,-1.664,-0.534,0.870
1.130,0.020,-0.192,0.861,-1.725,-1.115,0.641
1.130,0.025,-0.178,0.865,-2.336,-0.718,0.855
1.130,0.028,-0.181,0.870,-2.534,-0.061,1.099
1.140,0.042,-0.186,0.867,-2.489,0.580,1.084
1.140,0.033,-0.188,0.875,-2.275,0.977,1.191
1.150,0.032,-0.188,0.871,-2.489,1.160,1.038
1.150,0.030,-0.196,0.879,-2.137,1.420,1.099
1.150,0.024,-0.190,0.879,-1.939,1.420,1.252
1.160,0.019,-0.184,0.876,-1.527,1.282,1.252
1.160,0.015,-0.187,0.875,-1.695,0.687,1.160
1.170,0.019,-0.185,0.873,-2.046,0.443,1.328
1.170,0.019,-0.190,0.880,-2.382,-0.168,1.374
1.170,0.018,-0.194,0.886,-2.122,0.061,1.435
1.180,0.025,-0.195,0.894,-1.817,0.092,1.359
1.180,0.029,-0.196,0.887,-1.832,0.702,1.405
1.190,0.028,-0.190,0.894,-1.832,1.160,1.450
1.190,0.029,-0.198,0.892,-1.511,1.832,1.740
1.190,0.028,-0.200,0.897,-1.267,1.847,1.649
1.200,0.029,-0.196,0.899,-0.748,2.168,1.878
1.200,0.029,-0.201,0.899,-0.718,1.893,1.802
1.200,0.028,-0.201,0.899,-0.626,2.076,1.863
1.210,0.034,-0.199,0.890,-0.458,2.198,1.603
1.210,0.025,-0.200,0.896,-0.046,1.954,1.038
1.220,0.026,-0.198,0.891,-0.687,0.550,0.916
1.220,0.033,-0.199,0.894,-0.931,-0.351,0.382
1.220,0.038,-0.199,0.905,-0.198,-0.214,-0.107
1.230,0.040,-0.201,0.898,0.229,0.321,-0.122
1.230,0.033,-0.203,0.908,0.534,0.214,-0.260
1.240,0.033,-0.204,0.904,0.748,0.153,-0.397
1.240,0.032,-0.205,0.889,1.298,-0.092,-0.840
1.240,0.029,-0.197,0.885,1.359,-0.626,-0.748
1.250,0.024,-0.208,0.895,1.695,-1.160,-0.901
1.250,0.022,-0.205,0.893,1.908,-1.008,-0.885
1.260,0.023,-0.201,0.882,2.076,-0.626,-0.794
1.260,0.018,-0.193,0.874,1.756,-0.580,-0.382
1.260,0.015,-0.193,0.870,1.176,-1.206,-0.534
1.270,0.023,-0.188,0.871,0.931,-0.748,-0.198
1.270,0.024,-0.191,0.862,0.656,0.031,0.015
1.280,0.026,-0.187,0.871,0.565,0.687,0.412
1.280,0.025,-0.190,0.858,0.382,1.450,0.702
1.280,0.025,-0.180,0.853,-0.275,1.496,0.534
1.290,0.031,-0.182,0.842,-0.412,1.374,0.656
1.290,0.041,-0.181,0.847,-1.176,1.634,0.611
1.300,0.035,-0.181,0.860,-1.573,1.756,0.321
1.300,0.040,-0.184,0.863,-1.786,2.137,0.183
1.300,0.040,-0.171,0.865,-2.015,2.656,0.382
1.310,0.034,-0.176,0.859,-2.382,2.916,0.260
1.310,0.030,-0.178,0.848,-2.748,2.702,0.336
1.310,0.024,-0.177,0.868,-2.855,2.427,0.443
1.320,0.026,-0.182,0.867,-2.870,2.718,0.595
1.320,0.029,-0.184,0.872,-2.595,3.221,0.931
1.330,0.026,-0.183,0.874,-1.878,3.817,1.053
1.330,0.013,-0.182,0.856,-2.382,2.595,1.084
1.330,0.022,-0.181,0.850,-4.092,0.794,0.672
1.340,0.032,-0.189,0.872,-4.092,0.168,0.214
1.340,0.037,-0.192,0.894,-3.405,0.870,0.260
1.350,0.034,-0.196,0.905,-3.206,1.130,0.107
1.350,0.029,-0.191,0.889,-3.389,1.252,0.198
1.350,0.034,-0.195,0.890,-3.344,1.710,-0.031
1.360,0.030,-0.198,0.900,-2.947,1.664,-0.122
1.360,0.019,-0.201,0.903,-2.504,1.191,-0.260
1.370,0.022,-0.200,0.906,-2.000,0.840,-0.137
1.370,0.016,-0.197,0.905,-1.496,1.405,0.031
1.370,0.020,-0.194,0.894,-1.267,1.191,-0.153
1.380,0.018,-0.197,0.895,-1.466,0.382,-0.061
1.380,0.024,-0.192,0.892,-1.450,-0.336,-0.275
1.390,0.030,-0.205,0.901,-1.221,-0.321,-0.458
1.390,0.023,-0.200,0.899,-0.947,-0.855,-0.733
1.390,0.034,-0.204,0.898,-0.947,-0.870,-0.794
1.400,0.035,-0.201,0.893,-1.053,-0.580,-0.931
1.400,0.031,-0.200,0.902,-1.053,-0.763,-1.145
1.410,0.032,-0.205,0.901,-0.916,-0.656,-1.496
1.410,0.029,-0.205,0.894,-0.763,-0.824,-1.740
1.410,0.038,-0.199,0.896,-0.611,-0.412,-1.359
1.420,0.031,-0.200,0.910,-0.458,-0.473,-1.542
1.420,0.030,-0.204,0.914,-0.321,-0.443,-1.511
1.430,0.033,-0.196,0.894,0.275,-0.260,-1.695
1.430,0.033,-0.196,0.902,0.519,-0.153,-1.710
1.430,0.036,-0.195,0.898,0.702,0.031,-1.771
1.440,0.043,-0.192,0.904,1.191,0.595,-1.679
1.440,0.035,-0.192,0.889,1.969,1.282,-1.618
1.450,0.027,-0.194,0.884,1.863,0.855,-1.603
1.450,0.032,-0.188,0.877,1.603,0.198,-1.985
1.450,0.039,-0.188,0.873,1.023,0.198,-2.122
1.460,0.037,-0.192,0.866,0.992,0.656,-2.382
1.460,0.039,-0.182,0.861,0.626,0.565,-2.443
1.470,0.035,-0.182,0.875,0.397,0.641,-2.473
1.470,0.025,-0.178,0.854,0.122,0.763,-2.260
1.470,0.021,-0.186,0.856,-0.489,0.092,-2.092
1.480,0.026,-0.178,0.859,-1.206,-0.672,-2.122
1.480,0.033,-0.184,0.866,-1.527,-0.198,-2.092
1.490,0.041,-0.192,0.865,-1.389,0.321,-2.183
1.490,0.031,-0.189,0.865,-1.420,0.092,-2.427
1.490,0.037,-0.184,0.860,-1.725,-0.275,-2.641
1.500,0.040,-0.190,0.876,-1.893,-0.595,-3.023
1.500,0.032,-0.196,0.875,-1.649,-0.534,-2.992
1.510,0.026,-0.196,0.883,-1.756,-0.733,-2.992
1.510,0.020,-0.190,0.886,-1.527,-0.275,-2.489
1.510,0.017,-0.192,0.879,-1.160,0.672,-2.183
1.520,0.021,-0.193,0.870,-1.282,0.687,-1.893
1.520,0.011,-0.191,0.870,-1.664,0.168,-1.863
1.530,0.014,-0.189,0.874,-1.527,-0.183,-1.969
1.530,0.025,-0.192,0.878,-1.328,0.550,-2.076
1.530,0.015,-0.193,0.883,-1.206,0.580,-1.985
1.540,0.010,-0.188,0.872,-1.573,-0.137,-2.153
1.540,0.011,-0.186,0.868,-1.740,-0.840,-2.229
1.550,0.021,-0.187,0.865,-1.496,-0.672,-2.336
1.550,0.016,-0.184,0.876,-2.107,-0.901,-2.244
1.550,0.022,-0.186,0.880,-1.740,-0.595,-2.244
1.560,0.021,-0.189,0.875,-1.328,0.214,-2.076
1.560,0.028,-0.182,0.866,-1.145,0.672,-2.183
1.570,0.019,-0.179,0.856,-1.542,0.122,-2.321
1.570,0.014,-0.179,0.854,-1.908,-0.031,-2.397
1.570,0.022,-0.190,0.873,-2.214,0.107,-2.580
1.580,0.024,-0.188,0.864,-2.137,0.366,-2.427
1.580,0.017,-0.191,0.871,-2.260,0.809,-2.504
1.590,0.015,-0.190,0.865,-2.580,1.496,-2.321
1.590,0.020,-0.192,0.861,-3.053,1.832,-2.305
1.590,0.018,-0.190,0.865,-3.099,2.107,-2.122
1.600,0.006,-0.193,0.875,-2.947,2.015,-1.939
1.600,-0.005,-0.189,0.867,-3.099,1.618,-2.092
1.610,-0.005,-0.186,0.876,-3.695,0.565,-2.153
1.610,-0.003,-0.182,0.873,-3.786,0.260,-2.214
1.610,-0.003,-0.188,0.888,-3.649,0.000,-2.076
1.620,-0.004,-0.187,0.875,-3.466,0.031,-1.802
1.620,-0.008,-0.192,0.892,-3.466,0.061,-1.130
1.630,-0.006,-0.187,0.889,-3.023,0.321,-0.779
1.630,-0.009,-0.188,0.884,-3.176,0.534,-0.092
1.640,-0.008,-0.187,0.888,-3.237,0.916,0.489
1.640,-0.007,-0.181,0.889,-3.221,1.359,1.313
1.640,-0.006,-0.186,0.887,-2.809,1.359,1.802
1.650,0.001,-0.184,0.886,-2.672,1.603,1.969
1.650,0.009,-0.183,0.892,-2.916,1.328,2.168
1.650,0.014,-0.184,0.902,-2.962,1.573,2.137
1.660,0.023,-0.174,0.895,-2.901,1.786,2.107
1.660,0.018,-0.180,0.907,-2.366,2.198,2.321
1.670,0.025,-0.181,0.910,-1.756,2.550,2.427
1.670,0.037,-0.182,0.902,-1.206,2.901,2.351
1.670,0.035,-0.180,0.889,-1.038,3.405,2.290
1.680,0.036,-0.178,0.888,-0.763,3.511,2.153
1.680,0.032,-0.182,0.882,-0.473,3.282,1.695
1.690,0.032,-0.185,0.884,-0.397,2.809,1.282
1.690,0.030,-0.188,0.895,-0.687,2.198,1.160
1.690,0.026,-0.186,0.887,-0.641,1.313,1.008
1.700,0.029,-0.185,0.893,-1.038,0.840,0.824
1.700,0.026,-0.183,0.894,-1.252,0.611,0.855
1.710,0.030,-0.195,0.901,-1.130,0.947,0.916
1.710,0.022,-0.194,0.893,-1.008,1.313,0.947
1.710,0.027,-0.196,0.904,-0.672,1.344,0.840
1.720,0.024,-0.203,0.894,-0.458,1.344,0.809
1.720,0.020,-0.194,0.895,-0.351,1.328,0.794
1.730,0.024,-0.203,0.902,-0.076,1.282,0.641
1.730,0.028,-0.201,0.902,0.137,1.298,0.519
1.730,0.023,-0.203,0.894,0.229,0.779,0.412
1.740,0.023,-0.199,0.889,0.076,-0.046,0.015
1.740,0.031,-0.198,0.882,-0.183,-0.931,-0.214
1.740,0.029,-0.205,0.895,0.107,-0.962,-0.458
1.750,0.041,-0.202,0.895,0.214,-0.840,-0.641
1.750,0.029,-0.198,0.890,0.092,-0.824,-0.519
1.760,0.033,-0.199,0.886,0.275,-0.519,-0.473
1.760,0.032,-0.194,0.887,0.351,-0.397,-0.580
1.760,0.032,-0.192,0.867,0.321,-0.137,-0.611
1.770,0.040,-0.190,0.881,0.076,-0.031,-0.901
1.770,0.035,-0.184,0.877,-0.153,-0.153,-0.992
1.780,0.033,-0.183,0.874,-0.183,-0.550,-1.252
1.780,0.033,-0.183,0.865,-0.382,-0.702,-1.511
1.780,0.034,-0.185,0.870,-1.160,-1.176,-1.450
1.790,0.041,-0.185,0.867,-1.573,-1.145,-1.649
1.790,0.040,-0.192,0.878,-1.527,-0.947,-1.817
1.800,0.037,-0.186,0.873,-1.893,-0.672,-1.756
1.800,0.030,-0.190,0.859,-1.847,-0.580,-1.832
1.810,0.036,-0.192,0.878,-2.275,-0.336,-1.588
1.810,0.039,-0.190,0.867,-2.611,-0.229,-1.435
1.810,0.044,-0.194,0.876,-2.595,0.122,-1.282
1.820,0.042,-0.193,0.873,-2.351,0.702,-1.237
1.820,0.051,-0.183,0.883,-2.260,1.099,-0.962
1.830,0.054,-0.182,0.884,-2.397,1.634,-0.855
1.830,0.060,-0.186,0.884,-2.534,2.260,-1.191
1.830,0.074,-0.190,0.882,-2.305,2.504,-1.588
1.840,0.084,-0.192,0.883,-2.046,2.763,-1.985
1.840,0.085,-0.188,0.885,-1.695,2.992,-2.611
1.850,0.089,-0.187,0.873,-1.557,2.870,-3.053
1.850,0.085,-0.189,0.875,-1.649,2.718,-3.618
1.850,0.089,-0.187,0.870,-1.802,2.595,-3.817
1.860,0.100,-0.190,0.877,-2.015,2.687,-4.366
1.860,0.112,-0.190,0.875,-2.046,2.656,-4.977
1.870,0.127,-0.197,0.880,-2.351,3.267,-5.542
1.870,0.137,-0.196,0.886,-2.595,3.924,-6.412
1.870,0.149,-0.204,0.883,-2.702,4.687,-7.160
1.880,0.151,-0.204,0.887,-2.687,4.855,-7.679
1.880,0.171,-0.199,0.889,-2.733,5.634,-8.076
1.890,0.191,-0.207,0.889,-3.389,6.656,-8.504
1.890,0.219,-0.205,0.915,-4.321,8.076,-9.557
1.890,0.259,-0.216,0.927,-4.229,10.092,-11.221
1.900,0.273,-0.226,0.942,-3.282,11.496,-13.863
1.900,0.290,-0.221,0.940,-2.672,12.046,-16.626
1.910,0.296,-0.224,0.947,-2.031,11.756,-19.496
1.910,0.304,-0.225,0.956,-1.252,11.481,-22.397
1.910,0.303,-0.226,0.957,-0.260,10.748,-25.466
1.920,0.304,-0.232,0.959,1.389,9.679,-28.489
1.920,0.307,-0.240,0.962,2.809,9.008,-31.038
1.930,0.306,-0.239,0.957,4.076,8.702,-33.511
1.930,0.293,-0.244,0.946,5.588,8.260,-35.847
1.930,0.291,-0.241,0.948,6.382,7.710,-37.954
1.940,0.283,-0.245,0.926,7.237,6.672,-40.290
1.940,0.278,-0.241,0.908,7.405,5.221,-42.275
1.950,0.289,-0.246,0.910,6.840,4.107,-44.504
1.950,0.297,-0.250,0.902,6.718,5.008,-46.366
1.950,0.290,-0.258,0.895,7.206,6.321,-48.061
1.960,0.289,-0.259,0.889,6.611,7.130,-49.924
1.960,0.290,-0.258,0.874,6.168,7.649,-51.832
1.970,0.280,-0.261,0.871,5.740,7.832,-53.557
1.970,0.282,-0.269,0.864,5.420,8.260,-55.435
1.970,0.278,-0.277,0.880,5.145,8.931,-57.008
1.980,0.281,-0.273,0.871,4.809,9.511,-58.794
1.980,0.282,-0.280,0.879,4.962,9.435,-60.565
1.990,0.280,-0.286,0.898,5.511,9.786,-62.183
1.990,0.277,-0.286,0.885,5.725,9.359,-63.573
1.990,0.266,-0.290,0.890,5.863,8.885,-64.702
2.000,0.268,-0.282,0.893,6.092,8.977,-65.802
2.000,0.280,-0.289,0.890,6.550,9.954,-66.565
2.010,0.290,-0.291,0.889,6.779,11.359,-68.000
2.010,0.309,-0.291,0.896,7.603,13.634,-69.252
2.010,0.309,-0.285,0.899,8.260,15.298,-70.580
2.020,0.318,-0.285,0.879,8.153,17.237,-72.092
2.020,0.317,-0.284,0.878,7.954,18.947,-73.878
2.030,0.329,-0.292,0.884,7.817,20.000,-75.817
2.030,0.325,-0.283,0.877,7.542,20.046,-78.198
2.030,0.333,-0.284,0.885,7.282,20.794,-80.580
2.040,0.334,-0.287,0.888,7.527,22.214,-82.809
2.040,0.319,-0.293,0.890,8.366,22.840,-85.237
2.050,0.319,-0.292,0.889,8.290,22.763,-87.328
2.050,0.315,-0.291,0.875,8.779,23.099,-89.985
2.060,0.306,-0.294,0.872,9.252,22.092,-92.565
2.060,0.295,-0.303,0.870,9.405,20.122,-95.099
2.060,0.291,-0.303,0.894,9.481,18.885,-97.481
2.070,0.280,-0.310,0.900,10.595,17.908,-99.786
2.070,0.268,-0.322,0.896,11.176,15.817,-101.466
2.080,0.260,-0.319,0.879,11.099,13.344,-103.191
2.080,0.254,-0.323,0.870,10.901,11.023,-104.962
2.080,0.251,-0.325,0.875,10.443,9.145,-106.153
2.090,0.248,-0.324,0.868,9.618,8.962,-106.550
2.090,0.266,-0.325,0.863,8.427,9.893,-107.328
2.100,0.267,-0.324,0.878,7.573,11.221,-107.817
2.100,0.269,-0.335,0.865,6.168,11.954,-108.672
2.100,0.270,-0.337,0.882,4.672,14.046,-109.679
2.110,0.259,-0.349,0.894,4.198,16.489,-110.137
2.110,0.243,-0.354,0.900,4.351,16.840,-110.565
2.120,0.258,-0.367,1.047,8.977,13.435,-112.534
2.120,0.228,-0.373,0.993,13.832,7.710,-113.756
2.130,0.244,-0.358,0.952,12.824,11.511,-114.855
2.130,0.271,-0.352,0.893,10.305,20.595,-115.267
2.130,0.296,-0.357,0.901,9.191,26.443,-117.374
2.140,0.289,-0.367,0.968,10.107,28.947,-120.015
2.140,0.302,-0.386,0.996,13.618,33.008,-122.702
2.150,0.281,-0.390,1.009,17.435,36.672,-125.527
2.150,0.259,-0.384,1.001,20.947,39.038,-128.076
2.160,0.234,-0.386,0.988,23.603,39.863,-130.763
2.160,0.209,-0.384,0.965,25.771,40.153,-132.916
2.160,0.187,-0.386,0.944,28.061,39.847,-134.855
2.170,0.165,-0.389,0.925,29.802,39.069,-136.794
2.170,0.147,-0.385,0.890,31.130,37.878,-138.733
2.180,0.131,-0.384,0.873,31.893,35.740,-141.160
2.180,0.103,-0.382,0.849,32.061,33.298,-142.916
2.190,0.080,-0.378,0.849,31.878,30.565,-144.229
2.190,0.069,-0.379,0.840,30.840,27.603,-144.916
2.190,0.062,-0.373,0.827,29.679,25.282,-145.618
2.200,0.053,-0.373,0.820,28.427,24.198,-146.076
2.200,0.031,-0.377,0.813,28.061,24.412,-146.382
2.210,0.021,-0.371,0.813,27.664,23.802,-146.580
2.210,0.001,-0.366,0.800,26.244,23.099,-146.168
2.210,-0.008,-0.361,0.795,24.214,22.351,-145.588
2.220,-0.007,-0.357,0.792,22.137,23.023,-144.687
2.220,-0.019,-0.353,0.789,20.321,24.382,-143.939
2.230,-0.030,-0.354,0.801,18.550,25.130,-142.290
2.230,-0.036,-0.342,0.795,16.901,25.771,-140.275
2.240,-0.016,-0.337,0.788,14.565,26.779,-138.565
2.240,0.000,-0.323,0.790,12.977,28.931,-137.313
2.250,0.008,-0.327,0.796,11.603,30.550,-136.656
2.250,0.017,-0.317,0.798,10.641,31.359,-136.260
2.250,0.025,-0.316,0.821,10.183,32.015,-136.275
2.260,0.031,-0.304,0.814,10.244,33.145,-136.244
2.260,0.033,-0.303,0.824,9.969,33.695,-136.244
2.270,0.043,-0.304,0.823,10.244,33.191,-136.916
2.270,0.052,-0.306,0.822,10.534,31.695,-138.244
2.270,0.056,-0.299,0.809,10.626,30.901,-140.000
2.280,0.049,-0.301,0.804,10.962,29.466,-141.542
2.280,0.051,-0.306,0.800,11.023,27.511,-143.008
2.290,0.039,-0.304,0.796,11.130,25.130,-144.962
2.290,0.041,-0.315,0.805,10.336,23.298,-146.458
2.300,0.044,-0.323,0.814,10.122,22.092,-147.359
2.300,0.028,-0.332,0.820,10.153,21.221,-147.863
2.300,0.032,-0.341,0.820,10.076,20.076,-148.824
2.310,0.029,-0.345,0.815,9.313,19.573,-149.389
2.310,0.027,-0.346,0.809,8.931,19.740,-149.756
2.320,0.017,-0.351,0.825,8.702,20.244,-149.542
2.320,0.007,-0.356,0.838,8.382,20.550,-149.099
2.330,0.014,-0.364,0.844,8.061,21.771,-148.321
2.330,0.037,-0.356,0.844,7.939,24.061,-147.542
2.330,0.037,-0.358,0.853,7.695,26.183,-147.099
2.340,0.041,-0.357,0.860,7.679,28.565,-146.641
2.340,0.049,-0.354,0.857,7.603,30.702,-146.672
2.350,0.061,-0.357,0.857,7.695,33.115,-147.115
2.350,0.067,-0.356,0.863,8.076,35.145,-147.893
2.350,0.059,-0.364,0.880,9.099,37.008,-148.809
2.360,0.056,-0.363,0.883,10.672,38.718,-149.603
2.360,0.050,-0.367,0.888,12.748,40.214,-150.198
2.370,0.037,-0.365,0.893,14.183,40.748,-150.840
2.370,0.026,-0.371,0.873,15.588,39.695,-152.336
2.380,0.009,-0.368,0.845,17.099,37.664,-154.076
2.380,-0.003,-0.375,0.831,17.405,34.458,-155.786
2.380,0.002,-0.380,0.816,16.977,30.550,-157.557
2.390,-0.004,-0.392,0.789,15.924,27.160,-159.527
2.390,-0.020,-0.392,0.791,13.511,23.649,-161.603
2.400,-0.019,-0.400,0.781,10.779,20.473,-163.756
2.400,-0.027,-0.408,0.790,8.916,17.206,-165.710
2.410,-0.035,-0.416,0.803,6.748,14.198,-167.206
2.410,-0.047,-0.420,0.821,4.855,11.786,-168.137
2.410,-0.056,-0.424,0.834,3.298,10.427,-168.595
2.420,-0.059,-0.422,0.862,2.901,10.534,-168.870
2.420,-0.067,-0.417,0.861,2.534,10.580,-168.641
2.430,-0.097,-0.418,0.874,2.565,11.359,-168.107
2.430,-0.113,-0.409,0.872,2.183,11.710,-166.885
2.440,-0.124,-0.399,0.878,1.939,12.046,-165.420
2.440,-0.142,-0.398,0.885,2.702,12.702,-163.847
2.440,-0.145,-0.391,0.887,4.000,13.802,-161.847
2.450,-0.157,-0.391,0.901,4.748,14.901,-159.725
2.450,-0.148,-0.381,0.882,5.847,16.427,-158.229
2.460,-0.143,-0.372,0.882,7.206,18.382,-156.809
2.460,-0.156,-0.376,0.875,8.656,19.374,-155.130
2.470,-0.167,-0.365,0.872,9.786,20.092,-153.115
2.470,-0.174,-0.359,0.848,10.489,20.763,-150.947
2.470,-0.165,-0.355,0.828,9.954,21.817,-148.931
2.480,-0.151,-0.350,0.816,9.740,23.145,-147.786
2.480,-0.137,-0.346,0.806,8.748,22.916,-147.176
2.490,-0.134,-0.354,0.813,7.435,21.725,-147.008
2.490,-0.127,-0.349,0.804,6.595,21.664,-147.069
2.500,-0.122,-0.354,0.807,4.855,21.450,-147.664
2.500,-0.116,-0.357,0.820,3.405,20.397,-148.672
2.500,-0.111,-0.359,0.823,2.870,18.702,-149.969
2.510,-0.113,-0.362,0.834,2.550,17.008,-151.191
2.510,-0.121,-0.365,0.846,2.260,15.527,-152.275
2.520,-0.134,-0.364,0.859,2.366,14.031,-152.565
2.520,-0.148,-0.362,0.864,2.977,12.885,-152.382
2.530,-0.152,-0.355,0.882,3.481,11.573,-152.107
2.530,-0.159,-0.359,0.885,4.656,10.504,-151.527
2.530,-0.166,-0.351,0.895,6.198,9.985,-150.412
2.540,-0.164,-0.355,0.901,7.725,10.840,-149.008
2.540,-0.170,-0.360,0.891,9.603,11.756,-147.099
2.550,-0.179,-0.365,0.896,10.748,12.763,-145.221
2.550,-0.178,-0.358,0.899,12.519,13.817,-143.817
2.560,-0.175,-0.374,0.883,14.473,14.824,-142.809
2.560,-0.185,-0.380,0.876,15.817,14.397,-142.214
2.560,-0.198,-0.384,0.855,15.939,13.099,-141.664
2.570,-0.188,-0.385,0.844,14.931,12.092,-141.740
2.570,-0.194,-0.389,0.838,14.504,10.794,-142.107
2.580,-0.209,-0.391,0.841,14.275,8.137,-142.595
2.580,-0.225,-0.392,0.829,12.794,4.473,-142.718
2.590,-0.226,-0.390,0.817,11.053,1.573,-142.931
2.590,-0.224,-0.379,0.819,9.298,-0.473,-143.084
2.590,-0.233,-0.379,0.836,8.000,-3.008,-142.885
2.600,-0.240,-0.370,0.830,7.145,-4.733,-142.595
2.600,-0.258,-0.361,0.838,6.718,-6.183,-141.756
2.610,-0.249,-0.351,0.833,5.542,-7.328,-141.069
2.610,-0.249,-0.338,0.836,4.595,-6.947,-139.863
2.620,-0.245,-0.326,0.831,3.924,-5.847,-138.458
2.620,-0.251,-0.318,0.834,3.710,-5.237,-136.855
2.620,-0.247,-0.302,0.830,3.145,-4.153,-135.450
2.630,-0.228,-0.291,0.820,2.260,-2.122,-134.382
2.630,-0.208,-0.278,0.812,1.710,-0.382,-133.450
2.640,-0.202,-0.271,0.819,1.481,0.916,-133.069
2.640,-0.206,-0.268,0.810,1.023,1.985,-132.702
2.640,-0.199,-0.266,0.802,0.672,2.519,-132.260
2.650,-0.209,-0.256,0.788,0.168,1.695,-132.092
2.650,-0.208,-0.258,0.792,-0.611,-0.107,-131.573
2.660,-0.215,-0.272,0.792,-1.481,-2.046,-130.611
2.660,-0.219,-0.282,0.803,-2.168,-4.046,-129.527
2.670,-0.245,-0.295,0.806,-3.084,-7.298,-128.122
2.670,-0.249,-0.302,0.814,-4.443,-10.824,-126.427
2.670,-0.249,-0.302,0.832,-5.847,-13.771,-124.336
2.680,-0.235,-0.311,0.870,-6.473,-14.641,-121.924
2.680,-0.225,-0.322,0.897,-6.580,-14.153,-119.679
2.690,-0.201,-0.318,0.901,-6.260,-12.366,-117.802
2.690,-0.188,-0.310,0.907,-5.924,-9.344,-116.061
2.700,-0.190,-0.313,0.902,-5.588,-6.763,-114.916
2.700,-0.175,-0.304,0.919,-5.130,-4.031,-113.710
2.710,-0.173,-0.301,0.928,-3.756,-0.779,-112.519
2.710,-0.179,-0.302,0.915,-1.847,2.702,-111.252
2.710,-0.180,-0.295,0.899,-1.374,4.595,-110.580
2.720,-0.181,-0.285,0.879,-0.656,5.267,-110.534
2.720,-0.191,-0.282,0.869,0.046,4.412,-110.611
2.730,-0.213,-0.275,0.871,0.748,2.870,-110.534
2.730,-0.226,-0.269,0.868,1.878,2.046,-109.817
2.740,-0.251,-0.268,0.876,3.603,0.244,-108.687
2.740,-0.260,-0.253,0.852,4.183,-2.702,-107.618
2.740,-0.266,-0.242,0.833,4.611,-4.656,-106.137
2.750,-0.249,-0.229,0.823,4.885,-5.527,-104.855
2.750,-0.249,-0.220,0.805,4.779,-5.420,-103.863
2.760,-0.246,-0.218,0.776,4.214,-5.771,-102.550
2.760,-0.241,-0.211,0.764,2.809,-5.420,-101.023
2.760,-0.239,-0.212,0.755,1.740,-4.000,-99.420
2.770,-0.238,-0.218,0.721,-0.427,-1.160,-97.344
2.770,-0.246,-0.232,0.715,-3.405,0.137,-95.328
2.780,-0.257,-0.238,0.701,-6.412,0.061,-93.405
2.780,-0.279,-0.241,0.699,-9.908,-1.771,-91.282
2.790,-0.291,-0.254,0.693,-14.031,-4.260,-88.901
2.790,-0.315,-0.255,0.721,-18.351,-7.328,-86.458
2.790,-0.325,-0.262,0.756,-21.069,-9.664,-83.695
2.800,-0.330,-0.263,0.759,-22.947,-11.557,-80.229
2.800,-0.336,-0.266,0.794,-24.443,-13.130,-76.122
2.810,-0.333,-0.275,0.814,-25.450,-12.977,-71.664
2.810,-0.331,-0.260,0.838,-24.870,-11.344,-66.977
2.820,-0.325,-0.269,0.863,-24.046,-8.641,-62.061
2.820,-0.327,-0.266,0.881,-22.473,-5.298,-57.053
2.830,-0.334,-0.260,0.893,-20.412,-2.244,-51.573
2.830,-0.324,-0.260,0.905,-18.702,1.679,-46.855
2.830,-0.318,-0.256,0.920,-16.321,6.626,-41.786
2.840,-0.318,-0.252,0.924,-14.107,11.542,-36.489
2.840,-0.304,-0.242,0.909,-12.031,15.863,-31.679
2.850,-0.284,-0.242,0.907,-10.794,19.359,-27.878
2.850,-0.259,-0.240,0.903,-9.481,21.908,-24.794
2.860,-0.239,-0.238,0.900,-7.557,23.176,-22.733
2.860,-0.220,-0.239,0.894,-6.321,23.450,-21.206
2.860,-0.207,-0.242,0.884,-5.756,22.427,-20.382
2.870,-0.192,-0.235,0.863,-5.863,19.924,-20.351
2.870,-0.182,-0.245,0.852,-5.389,17.160,-20.947
2.880,-0.180,-0.251,0.856,-5.237,12.779,-21.695
2.880,-0.197,-0.250,0.843,-5.450,7.191,-22.595
2.890,-0.196,-0.260,0.835,-6.153,2.168,-22.992
2.890,-0.201,-0.265,0.847,-6.336,-1.557,-22.962
2.890,-0.210,-0.267,0.859,-6.351,-5.237,-22.504
2.900,-0.227,-0.266,0.855,-6.748,-8.458,-21.679
2.900,-0.229,-0.268,0.866,-6.809,-10.183,-19.603
2.910,-0.234,-0.260,0.852,-6.962,-10.855,-17.405
2.910,-0.235,-0.259,0.869,-7.084,-10.794,-15.099
2.910,-0.232,-0.259,0.873,-6.931,-8.550,-12.519
2.920,-0.244,-0.252,0.885,-6.275,-5.588,-9.634
2.920,-0.256,-0.247,0.886,-6.015,-2.885,-6.015
2.930,-0.266,-0.254,0.882,-5.710,-0.092,-2.672
2.930,-0.269,-0.246,0.892,-4.855,2.855,0.947
2.940,-0.274,-0.246,0.892,-3.802,4.885,4.489
2.940,-0.272,-0.236,0.881,-3.863,5.771,7.756
2.940,-0.245,-0.231,0.885,-4.305,6.565,10.321
2.950,-0.230,-0.234,0.895,-3.863,7.954,12.061
2.950,-0.210,-0.232,0.889,-3.420,8.260,13.908
2.960,-0.201,-0.230,0.891,-3.847,7.664,15.237
2.960,-0.192,-0.231,0.896,-3.603,7.756,16.565
2.960,-0.171,-0.221,0.894,-3.924,8.076,17.618
2.970,-0.152,-0.223,0.909,-4.183,6.641,17.863
2.970,-0.137,-0.225,0.927,-3.664,5.573,17.618
2.980,-0.132,-0.223,0.936,-2.504,4.595,17.405
2.980,-0.131,-0.216,0.938,-1.695,3.099,17.313
2.980,-0.117,-0.212,0.944,-0.641,2.244,17.008
2.990,-0.117,-0.216,0.941,0.534,1.466,16.824
2.990,-0.113,-0.213,0.945,1.969,1.023,16.260
3.000,-0.116,-0.211,0.933,3.145,0.336,15.878
3.000,-0.122,-0.210,0.926,3.756,-0.733,15.588
3.000,-0.124,-0.212,0.921,4.702,-1.237,15.679
3.010,-0.144,-0.207,0.911,5.130,-1.847,16.183
3.010,-0.149,-0.211,0.902,5.664,-2.580,16.687
3.020,-0.152,-0.214,0.907,6.214,-2.626,17.618
3.020,-0.165,-0.228,0.906,6.809,-3.191,18.443
3.030,-0.172,-0.230,0.911,7.206,-3.130,19.542
3.030,-0.190,-0.231,0.892,7.847,-3.160,21.130
3.030,-0.203,-0.232,0.885,7.908,-2.748,23.221
3.040,-0.210,-0.234,0.885,7.847,-1.710,25.527
3.040,-0.205,-0.243,0.883,8.015,-1.084,27.511
3.050,-0.205,-0.245,0.876,7.603,-1.221,29.435
3.050,-0.207,-0.242,0.876,7.023,-1.527,31.084
3.050,-0.202,-0.238,0.872,6.687,-1.008,33.160
3.060,-0.203,-0.248,0.874,6.153,-0.275,35.389
3.060,-0.212,-0.251,0.883,6.107,-0.275,37.649
3.070,-0.228,-0.250,0.894,6.153,-0.412,40.534
3.070,-0.231,-0.252,0.892,6.076,0.000,43.176
3.070,-0.217,-0.257,0.890,6.748,1.115,46.092
3.080,-0.210,-0.260,0.880,7.115,2.565,48.550
3.080,-0.205,-0.263,0.893,7.573,3.344,50.382
3.090,-0.204,-0.261,0.892,8.198,4.031,52.122
3.090,-0.208,-0.266,0.905,9.023,4.626,53.893
3.090,-0.227,-0.268,0.904,10.198,5.267,57.008
3.100,-0.234,-0.260,0.898,10.489,6.489,60.366
3.100,-0.222,-0.265,0.912,11.389,9.115,63.832
3.110,-0.211,-0.270,0.913,12.412,12.611,66.992
3.110,-0.197,-0.268,0.913,12.992,16.489,70.061
3.110,-0.190,-0.269,0.913,13.649,19.634,72.305
3.120,-0.194,-0.269,0.905,14.779,21.710,73.695
3.120,-0.192,-0.269,0.932,15.756,23.298,74.763
3.130,-0.205,-0.263,0.927,16.824,24.229,75.618
3.130,-0.222,-0.270,0.915,18.183,23.969,75.969
3.140,-0.241,-0.268,0.903,19.603,22.168,76.214
3.140,-0.265,-0.266,0.884,20.809,19.160,76.015
3.140,-0.303,-0.266,0.852,21.878,14.656,75.588
3.150,-0.332,-0.269,0.839,22.275,8.244,74.992
3.150,-0.367,-0.261,0.807,22.611,0.611,74.366
3.160,-0.397,-0.258,0.777,22.443,-7.618,74.000
3.160,-0.432,-0.262,0.761,21.878,-16.031,74.153
3.160,-0.465,-0.260,0.727,20.443,-25.053,74.885
3.170,-0.487,-0.254,0.719,18.168,-33.771,76.519
3.170,-0.527,-0.252,0.693,16.534,-41.740,79.298
3.180,-0.562,-0.259,0.677,14.702,-50.046,82.947
3.180,-0.561,-0.249,0.662,11.496,-55.924,88.122
3.190,-0.549,-0.244,0.640,7.725,-57.664,93.496
3.190,-0.534,-0.252,0.630,3.237,-57.115,99.344
3.190,-0.528,-0.252,0.637,-1.389,-55.802,105.893
3.200,-0.507,-0.244,0.643,-5.985,-52.595,112.824
3.200,-0.448,-0.251,0.668,-10.351,-46.779,119.756
3.210,-0.397,-0.258,0.703,-13.542,-38.015,126.107
3.210,-0.355,-0.260,0.741,-15.863,-28.244,131.924
3.220,-0.326,-0.265,0.760,-17.374,-19.832,136.977
3.220,-0.288,-0.285,0.790,-18.382,-13.191,140.916
3.220,-0.251,-0.283,0.823,-18.015,-6.885,144.031
3.230,-0.213,-0.294,0.834,-17.252,-1.176,146.290
3.230,-0.209,-0.301,0.864,-16.153,1.710,147.466
3.240,-0.205,-0.303,0.863,-14.885,1.466,147.832
3.240,-0.197,-0.312,0.874,-13.237,-0.137,147.389
3.250,-0.193,-0.321,0.879,-11.527,-3.374,146.473
3.250,-0.187,-0.329,0.881,-9.695,-8.092,145.053
3.250,-0.194,-0.334,0.886,-7.756,-12.611,143.771
3.260,-0.193,-0.335,0.892,-5.435,-17.008,142.183
3.260,-0.199,-0.339,0.897,-3.328,-20.687,141.328
3.270,-0.193,-0.335,0.892,-1.069,-22.916,140.443
3.270,-0.206,-0.341,0.879,0.321,-24.962,139.939
3.280,-0.214,-0.333,0.868,0.947,-26.641,139.939
3.280,-0.216,-0.334,0.874,1.847,-26.901,140.550
3.280,-0.231,-0.333,0.889,3.023,-25.466,142.107
3.290,-0.233,-0.336,0.883,3.847,-23.679,144.061
3.290,-0.230,-0.332,0.876,4.397,-20.947,145.878
3.300,-0.231,-0.328,0.873,4.885,-18.122,147.725
3.300,-0.224,-0.323,0.867,5.328,-15.542,149.237
3.310,-0.233,-0.327,0.852,5.847,-12.611,151.649
3.310,-0.227,-0.319,0.849,5.908,-9.557,154.092
3.310,-0.212,-0.317,0.839,5.450,-6.641,156.412
3.320,-0.193,-0.322,0.836,4.382,-4.137,158.565
3.320,-0.188,-0.328,0.841,3.832,-0.824,160.626
3.330,-0.172,-0.329,0.847,3.405,2.458,162.580
3.330,-0.171,-0.334,0.855,2.901,4.840,164.305
3.340,-0.175,-0.337,0.857,2.290,6.305,166.046
3.340,-0.164,-0.343,0.864,1.374,7.649,167.191
3.340,-0.160,-0.349,0.862,0.992,9.496,168.153
3.350,-0.160,-0.353,0.865,0.580,10.733,168.718
3.350,-0.174,-0.356,0.876,0.626,11.130,169.130
3.360,-0.201,-0.365,0.865,1.099,10.611,169.557
3.360,-0.221,-0.368,0.855,0.901,9.603,170.229
3.360,-0.233,-0.370,0.850,0.672,7.588,170.290
3.370,-0.245,-0.369,0.839,0.397,4.626,170.153
3.370,-0.273,-0.363,0.810,-0.214,1.481,170.626
3.380,-0.296,-0.357,0.812,-1.389,-2.198,171.435
3.380,-0.312,-0.360,0.798,-2.397,-5.771,172.733
3.380,-0.324,-0.368,0.795,-3.588,-9.053,174.626
3.390,-0.339,-0.371,0.796,-5.542,-12.260,177.267
3.390,-0.360,-0.377,0.785,-6.931,-14.718,180.748
3.400,-0.373,-0.389,0.784,-8.580,-16.305,185.221
3.400,-0.365,-0.394,0.811,-9.908,-16.870,190.137
3.410,-0.354,-0.405,0.820,-10.534,-15.069,195.450
3.410,-0.336,-0.405,0.814,-11.664,-13.069,201.695
3.420,-0.317,-0.410,0.827,-13.008,-9.420,208.321
3.420,-0.255,-0.431,0.843,-14.366,-3.664,214.183
3.420,-0.214,-0.435,0.845,-15.679,2.656,219.053
3.430,-0.166,-0.441,0.845,-16.947,8.656,222.550
3.430,-0.122,-0.454,0.852,-18.489,13.756,224.366
3.440,-0.097,-0.457,0.858,-20.504,17.237,224.794
3.440,-0.077,-0.458,0.865,-21.771,18.595,224.641
3.450,-0.068,-0.456,0.899,-22.366,17.481,223.176
3.450,-0.054,-0.457,0.902,-22.412,14.611,220.489
3.450,-0.042,-0.461,0.893,-22.351,9.954,216.656
3.460,-0.035,-0.464,0.907,-22.137,3.206,211.389
3.460,-0.021,-0.466,0.930,-20.885,-3.542,205.634
3.470,-0.016,-0.474,0.939,-18.260,-10.382,199.740
3.470,-0.038,-0.470,0.941,-15.527,-17.069,193.924
3.480,-0.079,-0.470,0.933,-12.550,-25.298,189.206
3.480,-0.111,-0.479,0.909,-9.969,-34.473,185.954
3.480,-0.129,-0.476,0.882,-8.214,-43.252,183.084
3.490,-0.127,-0.465,0.857,-7.924,-50.198,181.282
3.490,-0.123,-0.474,0.840,-7.618,-54.947,180.000
3.500,-0.113,-0.482,0.844,-7.069,-57.313,179.053
3.500,-0.111,-0.480,0.836,-7.206,-57.573,178.992
3.510,-0.116,-0.485,0.823,-7.618,-56.916,180.031
3.510,-0.118,-0.479,0.814,-9.389,-55.405,182.076
3.520,-0.101,-0.487,0.826,-10.748,-50.550,184.824
3.520,-0.083,-0.486,0.846,-11.328,-44.107,187.878
3.520,-0.069,-0.486,0.841,-11.023,-38.412,190.489
3.530,-0.064,-0.500,0.858,-11.115,-33.740,193.053
3.530,-0.047,-0.490,0.854,-10.870,-29.466,195.679
3.540,-0.046,-0.501,0.858,-10.611,-26.122,198.137
3.540,-0.025,-0.496,0.857,-10.550,-24.107,200.565
3.550,0.008,-0.507,0.853,-10.885,-23.023,202.214
3.550,0.033,-0.499,0.857,-11.008,-22.427,202.366
3.550,0.080,-0.493,0.858,-11.038,-22.443,201.756
3.560,0.111,-0.489,0.865,-11.313,-22.870,200.366
3.560,0.141,-0.480,0.859,-11.481,-23.313,197.924
3.570,0.169,-0.470,0.855,-11.527,-25.023,194.672
3.570,0.191,-0.464,0.856,-11.466,-26.947,190.870
3.580,0.209,-0.454,0.861,-11.954,-29.557,186.611
3.580,0.221,-0.448,0.854,-11.695,-30.702,182.061
3.590,0.235,-0.443,0.855,-12.412,-31.893,177.298
3.590,0.247,-0.432,0.869,-12.489,-33.710,171.710
3.590,0.240,-0.429,0.857,-12.473,-35.374,166.046
3.600,0.225,-0.421,0.848,-12.534,-37.527,161.069
3.600,0.193,-0.422,0.849,-12.489,-39.863,156.611
3.610,0.152,-0.420,0.828,-12.122,-42.885,153.221
3.610,0.122,-0.417,0.819,-11.710,-46.153,150.794
3.620,0.099,-0.419,0.818,-11.466,-48.779,148.672
3.620,0.083,-0.429,0.805,-10.809,-50.962,147.466
3.620,0.061,-0.436,0.799,-10.809,-53.649,146.870
3.630,0.051,-0.436,0.798,-11.573,-55.237,147.863
3.630,0.065,-0.445,0.792,-11.863,-54.580,149.618
3.640,0.094,-0.455,0.812,-12.412,-51.939,152.122
3.640,0.136,-0.453,0.834,-13.282,-47.573,155.344
3.650,0.198,-0.457,0.842,-14.809,-40.916,157.237
3.650,0.291,-0.454,0.862,-15.939,-31.573,157.817
3.650,0.352,-0.448,0.882,-17.008,-21.282,157.344
3.660,0.384,-0.449,0.923,-17.130,-12.412,155.847
3.660,0.392,-0.435,0.916,-16.382,-4.595,153.771
3.670,0.402,-0.427,0.940,-16.076,-0.473,151.099
3.670,0.411,-0.414,0.941,-15.954,2.992,147.664
3.680,0.416,-0.401,0.955,-15.313,5.298,143.466
3.680,0.405,-0.401,0.967,-13.710,5.527,138.870
3.680,0.383,-0.386,0.950,-12.183,3.389,134.260
3.690,0.355,-0.378,0.959,-10.366,-0.290,128.672
3.690,0.337,-0.368,0.931,-8.489,-5.221,123.420
3.700,0.309,-0.355,0.917,-6.962,-10.489,117.985
3.700,0.276,-0.349,0.895,-5.863,-16.031,112.779
3.710,0.256,-0.348,0.888,-4.198,-21.313,108.046
3.710,0.223,-0.347,0.856,-2.947,-26.351,103.802
3.710,0.183,-0.350,0.838,-2.641,-31.878,100.595
3.720,0.167,-0.353,0.812,-3.160,-35.695,98.382
3.720,0.158,-0.360,0.823,-3.908,-38.336,98.458
3.730,0.137,-0.375,0.825,-4.427,-39.969,97.679
3.730,0.148,-0.382,0.828,-5.160,-39.069,100.275
3.730,0.170,-0.376,0.821,-7.160,-35.405,102.901
3.740,0.198,-0.376,0.831,-9.481,-29.786,104.931
3.740,0.261,-0.373,0.850,-11.435,-22.107,106.473
3.750,0.306,-0.368,0.862,-12.046,-13.420,107.069
3.750,0.332,-0.374,0.881,-12.550,-4.198,106.931
3.760,0.337,-0.366,0.904,-12.718,2.931,106.122
3.760,0.340,-0.358,0.895,-12.550,8.656,105.115
3.760,0.342,-0.347,0.902,-11.954,12.992,103.237
3.770,0.339,-0.345,0.910,-10.870,15.985,101.084
3.770,0.323,-0.340,0.905,-9.466,17.099,99.038
3.780,0.305,-0.333,0.903,-8.153,17.237,96.061
3.780,0.309,-0.332,0.903,-7.527,22.122,94.229
3.790,0.344,-0.311,0.920,-5.008,25.954,93.405
3.790,0.260,-0.339,0.891,-1.405,18.992,89.450
3.790,0.199,-0.324,0.861,-1.847,5.588,87.786
3.800,0.242,-0.296,0.818,-5.374,1.802,87.267
3.800,0.299,-0.275,0.812,-8.794,3.237,85.924
3.810,0.328,-0.288,0.865,-8.626,-1.481,82.321
3.810,0.357,-0.285,0.885,-8.916,-7.420,78.321
3.810,0.369,-0.271,0.866,-9.389,-9.695,73.954
3.820,0.388,-0.262,0.844,-10.885,-7.069,71.527
3.820,0.358,-0.256,0.820,-13.588,-8.809,68.885
3.830,0.358,-0.247,0.844,-16.962,-9.817,66.580
3.830,0.384,-0.253,0.866,-17.206,-6.122,64.107
3.830,0.401,-0.257,0.909,-16.229,0.534,61.603
3.840,0.391,-0.253,0.941,-15.466,4.458,59.374
3.840,0.364,-0.246,0.932,-14.489,4.443,56.702
3.850,0.325,-0.242,0.945,-13.756,1.802,53.893
3.850,0.302,-0.240,0.934,-13.206,-0.198,51.954
3.850,0.295,-0.245,0.949,-11.847,-1.695,49.969
3.860,0.285,-0.243,0.957,-10.076,-3.771,47.832
3.860,0.300,-0.241,0.956,-7.771,-6.611,45.344
3.870,0.311,-0.234,0.948,-6.489,-7.771,43.206
3.870,0.316,-0.233,0.918,-5.924,-7.954,41.405
3.880,0.322,-0.233,0.920,-5.954,-7.725,39.389
3.880,0.328,-0.232,0.929,-5.450,-6.885,37.282
3.880,0.324,-0.226,0.926,-4.580,-5.832,34.885
3.890,0.311,-0.224,0.918,-4.534,-5.695,32.687
3.890,0.303,-0.215,0.902,-5.191,-5.389,30.550
3.900,0.285,-0.208,0.907,-5.863,-5.908,28.504
3.900,0.288,-0.203,0.914,-6.443,-4.748,26.412
3.900,0.275,-0.211,0.919,-6.229,-3.969,24.412
3.910,0.269,-0.202,0.921,-6.290,-2.244,22.779
3.910,0.255,-0.200,0.925,-5.954,-0.748,21.282
3.920,0.244,-0.198,0.905,-5.817,0.382,19.511
3.920,0.235,-0.190,0.903,-5.603,0.534,17.603
3.920,0.230,-0.187,0.901,-5.603,-0.198,15.740
3.930,0.219,-0.181,0.899,-5.557,-1.542,13.557
3.930,0.214,-0.182,0.903,-5.115,-2.000,11.466
3.940,0.201,-0.177,0.892,-4.718,-3.038,9.115
3.940,0.193,-0.174,0.894,-4.687,-4.962,7.038
3.940,0.177,-0.170,0.891,-4.473,-7.374,5.130
3.950,0.162,-0.170,0.888,-4.336,-9.099,3.863
3.950,0.150,-0.161,0.889,-4.504,-10.504,2.977
3.960,0.145,-0.162,0.890,-4.672,-10.870,2.672
3.960,0.137,-0.163,0.902,-4.397,-10.458,2.382
3.960,0.126,-0.166,0.898,-4.015,-9.771,2.321
3.970,0.123,-0.164,0.895,-3.878,-8.779,2.397
3.970,0.116,-0.164,0.894,-3.435,-7.832,2.458
3.980,0.118,-0.162,0.881,-3.420,-7.252,2.626
3.980,0.106,-0.159,0.899,-3.344,-7.206,2.855
3.980,0.116,-0.163,0.901,-2.748,-5.832,3.298
3.990,0.109,-0.172,0.895,-2.260,-4.076,3.786
3.990,0.109,-0.164,0.888,-1.450,-2.504,4.229
4.000,0.100,-0.165,0.871,-1.618,-2.275,4.214
4.000,0.113,-0.160,0.870,-2.550,-1.954,4.122
4.000,0.109,-0.160,0.865,-2.840,-2.061,3.542
4.010,0.115,-0.154,0.870,-2.855,-1.069,3.389
4.010,0.108,-0.158,0.871,-2.824,-0.183,3.099
4.020,0.112,-0.163,0.869,-3.115,0.198,2.687
4.020,0.117,-0.169,0.861,-3.527,0.702,2.183
4.020,0.108,-0.169,0.867,-3.893,1.359,1.313
4.030,0.103,-0.173,0.879,-3.695,0.992,0.382
4.030,0.081,-0.173,0.868,-4.076,-0.351,-0.473
4.040,0.081,-0.167,0.874,-4.748,-1.695,-1.328
4.040,0.078,-0.174,0.879,-5.221,-2.015,-2.275
4.040,0.074,-0.177,0.894,-5.160,-1.893,-3.053
4.050,0.071,-0.175,0.903,-4.550,-1.405,-3.618
4.050,0.055,-0.181,0.890,-4.000,-1.466,-3.954
4.060,0.052,-0.177,0.883,-3.603,-1.267,-4.168
4.060,0.048,-0.181,0.874,-4.275,-1.588,-4.183
4.060,0.045,-0.179,0.883,-4.702,-1.420,-3.863
4.070,0.040,-0.178,0.888,-4.412,-0.840,-3.786
4.070,0.027,-0.174,0.902,-3.786,0.000,-3.191
4.080,0.026,-0.175,0.898,-3.420,0.656,-2.656
