Time,acce_x,acce_y,acce_z,gyro_x,gyro_y,gyro_z
0.000,0.081,-0.149,0.893,-1.023,3.069,0.641
0.000,0.080,-0.152,0.899,-0.550,3.191,0.565
0.010,0.078,-0.147,0.890,-0.779,2.840,0.458
0.010,0.071,-0.158,0.881,-0.641,2.046,0.443
0.010,0.072,-0.149,0.888,-0.916,1.420,0.397
0.020,0.075,-0.148,0.881,-0.794,1.008,0.351
0.020,0.070,-0.153,0.887,-0.641,0.733,0.550
0.020,0.070,-0.144,0.890,-0.656,0.366,0.672
0.030,0.072,-0.142,0.875,-0.748,0.412,0.977
0.030,0.076,-0.140,0.865,-0.855,0.214,0.916
0.030,0.075,-0.144,0.869,-0.977,-0.046,1.084
0.040,0.075,-0.141,0.882,-1.099,-0.748,0.977
0.040,0.080,-0.142,0.884,-1.008,-1.115,1.069
0.040,0.084,-0.144,0.890,-0.916,-0.916,0.718
0.050,0.086,-0.148,0.891,-1.023,-0.656,1.023
0.050,0.089,-0.143,0.893,-0.840,-0.107,0.992
0.050,0.092,-0.140,0.889,-1.053,-0.107,0.779
0.060,0.094,-0.146,0.889,-1.237,-0.107,0.565
0.060,0.097,-0.144,0.898,-1.099,0.565,0.366
0.070,0.094,-0.147,0.892,-0.992,1.466,0.153
0.070,0.099,-0.142,0.892,-1.023,1.817,0.244
0.070,0.098,-0.141,0.897,-0.595,1.985,-0.061
0.080,0.092,-0.140,0.905,-0.382,2.061,-0.168
0.080,0.088,-0.136,0.899,-0.031,2.550,-0.244
0.090,0.077,-0.143,0.889,0.031,2.565,-0.260
0.090,0.073,-0.135,0.880,-0.015,2.382,0.000
0.090,0.074,-0.141,0.879,-0.015,2.366,-0.153
0.100,0.079,-0.134,0.874,-0.061,2.000,-0.061
0.100,0.081,-0.138,0.868,-0.229,1.725,-0.229
0.110,0.067,-0.136,0.865,-0.733,1.008,-0.260
0.110,0.067,-0.133,0.858,-1.435,0.031,-0.641
0.110,0.066,-0.137,0.868,-2.092,-0.901,-0.489
0.120,0.069,-0.134,0.868,-2.504,-1.267,-0.565
0.120,0.062,-0.134,0.873,-2.947,-1.618,-0.244
0.130,0.064,-0.136,0.876,-3.374,-2.336,-0.214
0.130,0.068,-0.138,0.894,-3.588,-2.824,-0.015
0.130,0.076,-0.142,0.887,-3.206,-2.580,-0.153
0.140,0.081,-0.143,0.890,-3.313,-2.061,-0.046
0.140,0.079,-0.139,0.890,-3.008,-2.031,0.092
0.150,0.080,-0.147,0.901,-2.366,-1.206,0.168
0.150,0.073,-0.147,0.903,-2.260,-1.298,0.336
0.150,0.094,-0.141,0.906,-1.924,-0.198,0.214
0.160,0.084,-0.144,0.900,-1.985,0.336,0.198
0.160,0.086,-0.151,0.898,-1.450,0.000,-0.107
0.170,0.097,-0.142,0.904,-1.496,0.107,-0.458
0.170,0.096,-0.147,0.902,-1.466,0.336,-0.718
0.170,0.087,-0.147,0.902,-1.267,0.092,-0.855
0.180,0.074,-0.142,0.904,-0.824,-0.550,-0.916
0.180,0.076,-0.143,0.892,-0.992,-1.282,-0.824
0.190,0.079,-0.139,0.892,-0.916,-1.740,-1.099
0.190,0.077,-0.139,0.892,-0.748,-1.481,-0.824
0.190,0.075,-0.144,0.891,-0.427,-1.237,-0.534
0.200,0.071,-0.139,0.873,-0.489,-1.603,-0.855
0.200,0.075,-0.137,0.879,-0.794,-1.695,-0.992
0.210,0.074,-0.137,0.877,-0.885,-1.496,-0.901
0.210,0.062,-0.138,0.877,-0.855,-1.145,-0.718
0.210,0.057,-0.134,0.877,-0.916,-1.313,-0.214
0.220,0.057,-0.138,0.866,-1.573,-1.328,0.107
0.220,0.056,-0.141,0.879,-2.046,-1.313,0.183
0.230,0.070,-0.132,0.879,-2.290,-0.763,0.519
0.230,0.067,-0.142,0.880,-2.565,0.382,0.931
0.230,0.071,-0.137,0.878,-2.519,0.916,0.947
0.240,0.074,-0.138,0.875,-2.550,1.008,0.992
0.240,0.082,-0.141,0.883,-2.718,0.198,0.870
0.250,0.091,-0.134,0.887,-2.443,0.336,0.672
0.250,0.093,-0.139,0.882,-2.092,0.672,0.489
0.250,0.100,-0.139,0.898,-2.137,0.702,0.351
0.260,0.098,-0.140,0.899,-1.695,1.145,0.031
0.260,0.100,-0.140,0.900,-1.252,1.450,-0.305
0.270,0.101,-0.141,0.901,-0.885,1.542,-0.779
0.270,0.105,-0.135,0.895,-0.931,1.939,-1.252
0.270,0.097,-0.139,0.896,-0.947,2.290,-1.725
0.280,0.102,-0.136,0.892,-0.824,2.305,-2.061
0.280,0.085,-0.131,0.894,-0.626,2.244,-2.229
0.290,0.071,-0.133,0.889,-0.702,2.122,-2.137
0.290,0.075,-0.135,0.897,-0.550,1.832,-2.305
0.290,0.061,-0.138,0.888,-0.870,1.328,-1.969
0.300,0.055,-0.137,0.875,-1.206,1.038,-1.985
0.300,0.055,-0.137,0.872,-1.420,0.427,-1.679
0.310,0.052,-0.142,0.883,-1.466,0.305,-1.466
0.310,0.052,-0.138,0.884,-1.710,0.260,-1.160
0.310,0.054,-0.136,0.874,-1.969,0.412,-0.916
0.320,0.055,-0.143,0.885,-2.244,0.244,-0.580
0.320,0.052,-0.138,0.886,-2.168,0.000,-0.397
0.330,0.049,-0.145,0.879,-2.153,-0.397,-0.260
0.330,0.050,-0.145,0.885,-2.504,-0.443,-0.092
0.330,0.050,-0.147,0.892,-2.412,-1.130,0.260
0.340,0.048,-0.148,0.897,-1.985,-1.511,0.382
0.340,0.050,-0.144,0.898,-1.603,-1.634,0.687
0.350,0.064,-0.142,0.909,-1.496,-1.573,0.977
0.350,0.072,-0.146,0.905,-1.267,-1.603,0.855
0.350,0.073,-0.149,0.898,-0.855,-1.679,0.779
0.360,0.075,-0.147,0.903,-0.595,-1.618,0.687
0.360,0.086,-0.142,0.905,-0.412,-0.809,0.473
0.370,0.084,-0.141,0.900,-0.031,-0.229,0.427
0.370,0.083,-0.140,0.902,-0.275,0.870,0.427
0.370,0.075,-0.142,0.891,0.153,1.481,0.504
0.380,0.069,-0.137,0.884,-0.031,1.847,0.504
0.380,0.065,-0.135,0.877,-0.183,1.710,0.458
0.390,0.066,-0.133,0.880,-0.122,0.550,0.092
0.390,0.063,-0.136,0.871,-0.290,0.153,-0.031
0.390,0.063,-0.139,0.885,-0.153,-0.412,-0.183
0.400,0.063,-0.135,0.869,-0.519,-1.099,-0.153
0.400,0.064,-0.132,0.870,-1.053,-1.374,-0.015
0.410,0.071,-0.134,0.875,-1.130,-1.069,0.305
0.410,0.070,-0.139,0.876,-1.435,-0.947,0.626
0.410,0.064,-0.137,0.876,-1.573,-1.069,0.656
0.420,0.077,-0.134,0.875,-1.863,-1.069,0.702
0.420,0.075,-0.137,0.877,-1.878,-0.580,0.718
0.430,0.076,-0.140,0.879,-1.878,-0.046,0.901
0.430,0.071,-0.138,0.873,-2.153,0.366,1.237
0.430,0.076,-0.130,0.878,-2.412,0.397,0.977
0.440,0.072,-0.135,0.870,-2.595,0.336,1.191
0.440,0.078,-0.138,0.885,-3.115,-0.702,0.672
0.450,0.083,-0.142,0.884,-3.282,-1.252,0.305
0.450,0.085,-0.142,0.888,-3.420,-0.794,0.153
0.450,0.077,-0.140,0.894,-3.267,-0.519,0.382
0.460,0.083,-0.141,0.901,-3.405,-0.183,0.351
0.460,0.085,-0.146,0.904,-3.099,-0.076,0.489
0.470,0.087,-0.148,0.907,-2.351,0.427,0.656
0.470,0.091,-0.149,0.903,-1.832,0.840,0.427
0.470,0.077,-0.147,0.912,-1.038,0.733,0.229
0.480,0.084,-0.146,0.914,-0.672,0.382,0.275
0.480,0.082,-0.145,0.898,-0.290,-0.107,-0.046
0.490,0.082,-0.142,0.901,0.076,-0.290,-0.122
0.490,0.075,-0.141,0.896,0.198,-0.214,-0.061
0.490,0.068,-0.141,0.892,0.031,-0.260,0.046
0.500,0.066,-0.139,0.890,0.000,-0.458,0.351
0.500,0.080,-0.143,0.882,0.305,-0.046,0.443
0.500,0.073,-0.139,0.877,0.412,0.489,0.427
0.510,0.071,-0.140,0.881,0.290,0.336,0.641
0.510,0.079,-0.133,0.862,-0.031,0.244,0.931
0.520,0.074,-0.134,0.855,-0.366,1.359,1.099
0.520,0.080,-0.133,0.866,-1.298,1.756,1.176
0.520,0.079,-0.140,0.858,-1.649,2.595,1.191
0.530,0.076,-0.134,0.886,-1.756,2.076,1.252
0.530,0.075,-0.137,0.875,-1.939,1.313,0.931
0.540,0.073,-0.141,0.875,-2.168,1.115,0.870
0.540,0.080,-0.141,0.875,-1.740,1.069,0.595
0.540,0.073,-0.137,0.880,-2.031,0.366,0.565
0.550,0.076,-0.137,0.880,-2.458,-0.260,0.473
0.550,0.079,-0.139,0.880,-2.473,-0.153,0.595
0.560,0.076,-0.140,0.887,-2.015,0.321,0.565
0.560,0.082,-0.144,0.891,-1.863,0.870,0.870
0.560,0.085,-0.140,0.891,-1.725,0.870,0.534
0.570,0.077,-0.141,0.877,-1.802,0.824,0.427
0.570,0.077,-0.140,0.881,-2.046,0.458,0.244
0.580,0.082,-0.151,0.884,-1.939,0.702,0.473
0.580,0.079,-0.141,0.889,-2.000,0.626,0.489
0.580,0.078,-0.141,0.889,-2.015,0.595,0.550
0.590,0.082,-0.145,0.895,-1.756,-0.076,0.473
0.590,0.076,-0.148,0.894,-1.420,-1.069,0.198
0.590,0.073,-0.143,0.893,-1.344,-2.107,-0.137
0.600,0.080,-0.148,0.896,-1.237,-3.115,-0.412
0.600,0.088,-0.147,0.907,-1.053,-3.725,-0.489
0.610,0.085,-0.145,0.910,-0.489,-3.817,-0.519
0.610,0.085,-0.142,0.898,-0.504,-3.878,-0.763
0.620,0.091,-0.142,0.896,-0.656,-3.496,-0.641
0.620,0.087,-0.136,0.882,-0.855,-2.718,-0.702
0.620,0.089,-0.138,0.895,-0.947,-1.695,-0.656
0.630,0.089,-0.142,0.890,-1.145,-1.145,-0.504
0.630,0.085,-0.135,0.897,-1.267,-0.458,-0.366
0.640,0.093,-0.131,0.892,-1.466,0.550,-0.260
0.640,0.091,-0.139,0.898,-1.481,1.069,-0.076
0.640,0.080,-0.149,0.913,-1.557,1.847,-0.107
0.650,0.080,-0.141,0.913,-1.527,1.985,-0.229
0.650,0.081,-0.146,0.902,-1.405,1.435,-0.351
0.660,0.073,-0.150,0.916,-1.282,0.840,-0.382
0.660,0.078,-0.154,0.925,-0.809,0.534,-0.214
0.660,0.075,-0.149,0.940,-0.397,0.336,-0.290
0.670,0.069,-0.155,0.931,0.366,-0.015,0.000
0.670,0.076,-0.154,0.925,1.008,-0.244,-0.183
0.680,0.075,-0.155,0.917,1.740,-0.733,-0.061
0.680,0.080,-0.148,0.921,1.603,-0.046,-0.061
0.680,0.061,-0.144,0.920,1.710,-0.718,0.122
0.690,0.071,-0.146,0.907,1.863,-0.092,0.214
0.690,0.060,-0.139,0.886,1.618,-0.382,0.534
0.700,0.062,-0.146,0.907,1.466,-0.809,0.840
0.700,0.069,-0.139,0.911,1.771,-0.733,0.901
0.700,0.072,-0.147,0.919,1.832,-0.504,1.099
0.710,0.067,-0.145,0.920,1.985,-0.244,1.038
0.710,0.073,-0.138,0.926,1.969,-0.092,1.237
0.710,0.082,-0.139,0.923,1.649,0.275,1.374
0.720,0.095,-0.140,0.914,2.107,1.496,1.542
0.720,0.099,-0.141,0.924,2.305,2.153,1.435
0.730,0.098,-0.136,0.936,2.519,2.641,1.466
0.730,0.100,-0.133,0.927,2.748,3.023,1.099
0.730,0.114,-0.136,0.931,3.267,3.802,0.885
0.740,0.123,-0.133,0.946,3.511,4.718,0.550
0.740,0.120,-0.135,0.939,4.168,5.679,0.351
0.750,0.119,-0.137,0.961,4.809,6.122,-0.198
0.750,0.115,-0.140,0.947,5.496,5.985,-0.672
0.750,0.107,-0.143,0.955,5.893,5.389,-1.160
0.760,0.096,-0.138,0.969,6.504,4.870,-1.649
0.760,0.085,-0.141,0.948,7.221,4.031,-1.740
0.760,0.077,-0.140,0.941,8.229,2.992,-1.771
0.770,0.067,-0.143,0.931,8.275,2.000,-1.725
0.770,0.061,-0.144,0.933,8.718,0.550,-1.664
0.780,0.061,-0.140,0.927,8.947,-0.427,-1.634
0.780,0.052,-0.141,0.921,8.901,-1.740,-1.710
0.780,0.048,-0.143,0.919,8.809,-2.748,-1.450
0.790,0.044,-0.142,0.928,9.069,-3.344,-1.008
0.790,0.039,-0.139,0.937,9.588,-3.069,-0.412
0.800,0.042,-0.135,0.922,9.389,-2.550,0.214
0.800,0.042,-0.136,0.913,9.344,-1.740,0.870
0.800,0.042,-0.139,0.927,9.466,-1.679,1.618
0.810,0.049,-0.135,0.925,9.328,-0.840,1.969
0.810,0.063,-0.136,0.927,9.634,0.107,2.595
0.820,0.069,-0.136,0.933,9.588,0.977,2.626
0.820,0.067,-0.131,0.936,9.435,1.069,2.626
0.820,0.068,-0.130,0.932,9.573,0.809,2.412
0.830,0.079,-0.128,0.948,9.573,1.053,2.397
0.830,0.081,-0.118,0.930,9.649,1.344,2.214
0.840,0.081,-0.127,0.953,9.786,1.084,2.137
0.840,0.074,-0.131,0.950,10.534,0.473,1.710
0.840,0.074,-0.128,0.934,11.466,-0.183,1.573
0.850,0.075,-0.124,0.922,11.710,-0.626,1.069
0.850,0.060,-0.125,0.929,12.718,-2.137,0.733
0.850,0.052,-0.123,0.932,13.389,-3.985,0.794
0.860,0.047,-0.121,0.927,14.137,-5.038,0.947
0.860,0.047,-0.121,0.920,14.763,-5.221,1.405
0.870,0.043,-0.117,0.911,14.779,-5.313,1.878
0.870,0.040,-0.118,0.923,14.641,-5.847,2.122
0.870,0.056,-0.114,0.913,14.672,-5.466,2.305
0.880,0.075,-0.119,0.920,15.069,-3.969,2.321
0.880,0.074,-0.106,0.917,15.023,-2.565,2.779
0.890,0.078,-0.102,0.913,14.733,-0.290,2.992
0.890,0.086,-0.094,0.912,14.153,1.679,3.176
0.890,0.098,-0.098,0.912,13.832,3.344,3.344
0.900,0.108,-0.096,0.921,13.771,4.550,3.313
0.900,0.113,-0.100,0.934,13.664,5.832,2.901
0.910,0.116,-0.098,0.942,13.939,6.565,2.580
0.910,0.114,-0.102,0.942,14.321,6.809,2.000
0.910,0.107,-0.097,0.944,14.458,5.802,1.695
0.920,0.114,-0.108,0.944,15.191,5.252,1.069
0.920,0.101,-0.100,0.945,15.908,4.901,0.870
0.930,0.095,-0.104,0.934,16.626,5.145,0.656
0.930,0.089,-0.109,0.942,17.023,5.023,0.489
0.930,0.079,-0.102,0.946,17.557,4.305,0.504
0.940,0.065,-0.105,0.959,18.473,3.511,1.038
0.940,0.057,-0.109,0.975,19.527,3.313,1.588
0.950,0.052,-0.118,0.973,21.008,3.985,2.290
0.950,0.060,-0.119,0.980,22.198,4.550,2.702
0.950,0.061,-0.122,0.979,23.053,5.557,3.145
0.960,0.062,-0.118,0.983,23.939,5.908,3.298
0.960,0.065,-0.115,0.992,24.916,6.305,3.450
0.960,0.077,-0.120,0.986,25.557,6.748,3.450
0.970,0.070,-0.111,0.980,25.969,7.038,3.405
0.970,0.070,-0.107,0.986,26.855,6.702,3.176
0.980,0.050,-0.113,0.986,27.221,5.588,3.557
0.980,-0.001,-0.131,1.019,28.092,3.008,4.366
0.980,0.004,-0.094,0.980,29.405,2.427,6.656
0.990,0.026,-0.124,1.038,30.107,1.618,7.527
0.990,0.038,-0.120,1.052,31.252,2.427,8.290
1.000,0.038,-0.136,1.079,33.450,3.221,8.901
1.000,0.037,-0.146,1.119,35.664,3.038,9.511
1.000,0.044,-0.151,1.164,38.275,3.679,10.427
1.010,0.062,-0.162,1.202,41.939,6.534,10.855
1.010,0.062,-0.177,1.234,46.641,10.870,12.534
1.020,0.061,-0.172,1.261,51.221,14.687,13.634
1.020,0.055,-0.170,1.262,55.786,17.374,14.748
1.020,0.054,-0.166,1.260,60.214,19.176,15.771
1.030,0.062,-0.158,1.250,64.351,20.198,16.534
1.030,0.065,-0.152,1.256,67.389,20.198,16.916
1.040,0.064,-0.147,1.253,70.168,19.863,16.702
1.040,0.061,-0.142,1.274,72.901,17.985,16.626
1.040,0.054,-0.148,1.293,75.771,15.298,15.908
1.050,0.057,-0.150,1.296,79.237,11.710,15.496
1.050,0.063,-0.143,1.315,82.748,9.481,14.824
1.060,0.062,-0.143,1.327,86.718,7.496,14.076
1.060,0.064,-0.139,1.335,90.840,5.985,13.298
1.060,0.073,-0.142,1.326,95.084,5.267,12.153
1.070,0.073,-0.127,1.296,98.656,4.702,10.626
1.070,0.066,-0.120,1.297,101.679,3.313,9.160
1.080,0.058,-0.117,1.293,104.901,3.344,7.924
1.080,0.050,-0.099,1.256,108.183,4.962,7.542
1.080,0.032,-0.083,1.227,110.366,6.641,7.649
1.090,0.009,-0.063,1.203,111.725,7.527,8.153
1.090,0.006,-0.057,1.202,112.992,9.145,8.931
1.100,0.006,-0.044,1.184,114.168,11.176,9.893
1.100,0.002,-0.031,1.169,115.160,13.710,11.084
1.110,-0.005,-0.021,1.164,116.031,15.756,12.870
1.110,-0.001,-0.010,1.153,115.893,17.389,14.366
1.110,0.007,-0.003,1.146,116.015,18.519,15.725
1.120,0.019,-0.010,1.161,117.237,20.244,16.840
1.120,0.029,-0.004,1.174,119.328,21.496,17.649
1.130,0.030,-0.002,1.176,121.298,21.328,18.611
1.130,0.030,-0.011,1.208,123.405,19.511,19.603
1.130,0.045,-0.012,1.213,126.504,19.252,20.168
1.140,0.050,-0.017,1.235,130.290,19.985,21.038
1.140,0.053,-0.016,1.246,134.412,19.771,21.160
1.150,0.057,-0.016,1.247,139.267,19.160,21.389
1.150,0.042,-0.007,1.218,143.634,18.122,21.710
1.160,0.031,-0.008,1.194,146.809,17.206,22.107
1.160,0.037,0.017,1.176,150.260,16.137,22.015
1.160,0.046,0.028,1.135,152.076,14.580,21.023
1.170,0.030,0.041,1.116,152.809,10.427,20.107
1.170,0.010,0.068,1.096,153.359,6.015,19.145
1.180,0.014,0.083,1.064,153.756,2.901,18.092
1.180,0.021,0.100,1.036,153.008,1.573,17.740
1.180,0.023,0.121,1.022,152.031,1.206,17.542
1.190,0.015,0.121,1.010,151.405,1.267,17.618
1.190,0.008,0.127,1.001,151.084,2.443,18.351
1.200,0.009,0.144,1.003,150.824,4.351,19.206
1.200,0.010,0.154,0.986,150.366,6.595,20.031
1.200,0.020,0.162,0.981,149.313,8.748,20.962
1.210,0.020,0.173,0.975,148.656,10.550,21.405
1.210,0.023,0.175,0.984,148.122,11.939,22.000
1.220,0.028,0.182,0.981,147.710,13.344,22.550
1.220,0.037,0.190,0.992,148.031,14.885,22.702
1.220,0.051,0.185,1.012,149.420,15.466,22.672
1.230,0.064,0.184,1.011,151.939,15.802,22.000
1.230,0.055,0.194,0.998,154.397,15.374,21.618
1.240,0.040,0.199,0.979,156.290,14.122,21.466
1.240,0.033,0.203,0.949,158.336,12.168,21.664
1.240,0.021,0.202,0.948,160.382,10.397,22.168
1.250,0.012,0.203,0.958,162.702,8.550,23.099
1.250,0.012,0.198,0.960,165.145,7.160,24.107
1.260,0.015,0.206,0.947,167.221,7.908,25.420
1.260,0.017,0.211,0.938,169.160,7.832,26.214
1.260,0.033,0.219,0.922,169.802,6.840,26.015
1.270,0.045,0.228,0.907,170.382,5.359,25.405
1.270,0.065,0.232,0.896,170.809,4.519,23.893
1.280,0.075,0.248,0.890,170.824,4.595,22.351
1.280,0.073,0.253,0.866,170.397,4.718,20.733
1.280,0.048,0.263,0.862,170.290,3.344,19.588
1.290,0.036,0.267,0.854,170.473,1.115,18.427
1.290,0.039,0.277,0.848,171.817,-0.137,18.198
1.300,0.027,0.276,0.839,173.450,-0.122,18.122
1.300,0.027,0.284,0.821,174.947,-0.366,17.939
1.300,0.013,0.303,0.792,176.046,-1.252,17.832
1.310,0.005,0.319,0.754,176.473,-1.847,17.985
1.310,-0.005,0.326,0.746,176.824,-2.427,18.611
1.320,-0.010,0.335,0.733,177.817,-1.939,19.405
1.320,0.014,0.336,0.735,178.489,-0.794,20.275
1.330,0.018,0.344,0.721,179.176,0.458,20.840
1.330,0.022,0.355,0.696,179.053,1.908,22.000
1.330,0.036,0.366,0.685,179.084,3.359,23.008
1.340,0.055,0.372,0.675,178.916,5.191,23.313
1.340,0.083,0.379,0.661,179.008,7.939,23.359
1.350,0.106,0.387,0.644,178.947,10.977,23.023
1.350,0.103,0.390,0.637,179.664,13.069,23.023
1.350,0.101,0.392,0.608,180.519,13.420,22.122
1.360,0.093,0.405,0.595,180.427,13.115,21.939
1.360,0.076,0.406,0.582,180.534,11.908,21.832
1.370,0.078,0.414,0.579,179.115,11.359,21.756
1.370,0.065,0.436,0.570,175.389,10.015,22.168
1.370,0.093,0.380,0.508,180.153,14.733,20.840
1.380,0.058,0.417,0.577,183.695,10.916,20.656
1.380,0.069,0.417,0.550,185.771,10.137,20.382
1.390,0.070,0.435,0.519,187.099,10.931,20.443
1.390,0.066,0.440,0.492,187.649,12.107,20.412
1.390,0.066,0.444,0.485,188.473,12.000,20.366
1.400,0.060,0.458,0.461,188.779,11.863,20.443
1.400,0.055,0.470,0.429,188.641,12.183,20.733
1.410,0.065,0.481,0.396,187.573,12.885,21.237
1.410,0.054,0.493,0.376,185.695,12.427,20.947
1.410,0.037,0.510,0.371,183.771,9.069,21.710
1.420,0.037,0.506,0.359,181.389,5.481,21.725
1.420,0.036,0.515,0.354,178.366,2.534,21.863
1.430,0.046,0.508,0.356,176.962,1.954,22.626
1.430,0.057,0.508,0.347,177.145,2.275,22.595
1.430,0.049,0.513,0.325,177.237,0.733,22.656
1.440,0.045,0.530,0.312,176.260,-1.252,22.427
1.440,0.049,0.524,0.312,176.275,-2.931,22.412
1.450,0.062,0.519,0.338,177.298,-2.779,22.183
1.450,0.081,0.526,0.337,178.931,-0.702,22.183
1.450,0.092,0.532,0.311,179.725,1.481,22.107
1.460,0.082,0.543,0.280,179.374,2.260,21.847
1.460,0.077,0.554,0.266,179.038,1.481,21.481
1.470,0.086,0.557,0.270,179.649,1.115,21.252
1.470,0.096,0.553,0.287,181.237,2.046,21.221
1.470,0.101,0.554,0.266,181.786,3.924,21.298
1.480,0.099,0.560,0.232,181.817,5.588,21.618
1.480,0.104,0.563,0.235,182.351,6.962,21.924
1.490,0.110,0.559,0.239,183.771,8.183,21.435
1.490,0.115,0.559,0.218,184.992,10.351,21.069
1.490,0.115,0.565,0.192,184.977,12.183,20.672
1.500,0.089,0.571,0.156,184.290,13.191,21.282
1.500,0.071,0.579,0.146,183.725,13.740,21.710
1.510,0.080,0.572,0.158,184.214,13.145,22.076
1.510,0.089,0.564,0.164,186.092,12.702,22.947
1.520,0.114,0.567,0.134,185.954,16.107,22.244
1.520,0.094,0.596,0.117,186.122,15.252,23.221
1.520,0.053,0.559,0.125,189.130,9.710,22.443
1.530,0.071,0.570,0.116,190.351,7.511,22.519
1.530,0.108,0.585,0.068,191.588,9.573,22.092
1.540,0.086,0.585,0.050,193.664,10.397,23.252
1.540,0.085,0.587,0.017,194.641,9.710,23.466
1.540,0.096,0.604,-0.021,195.084,10.122,23.771
1.550,0.122,0.618,-0.103,193.557,13.969,24.519
1.550,0.068,0.641,-0.136,193.832,10.916,26.168
1.560,0.089,0.628,-0.170,194.443,10.794,25.603
1.560,0.096,0.663,-0.238,192.031,9.603,26.519
1.560,0.102,0.661,-0.269,189.557,9.328,26.504
1.570,0.107,0.671,-0.314,185.099,8.870,26.641
1.570,0.120,0.671,-0.326,180.702,8.290,26.092
1.580,0.102,0.661,-0.325,177.344,4.061,25.557
1.580,0.114,0.656,-0.324,173.298,0.229,24.885
1.580,0.120,0.666,-0.354,169.344,-1.359,24.733
1.590,0.124,0.663,-0.353,166.076,-3.160,24.443
1.590,0.128,0.654,-0.334,164.687,-5.817,24.336
1.600,0.138,0.643,-0.323,164.107,-8.000,23.710
1.600,0.149,0.641,-0.349,163.740,-9.191,22.840
1.610,0.164,0.660,-0.384,162.351,-9.359,21.802
1.610,0.164,0.659,-0.389,160.214,-9.053,20.870
1.610,0.155,0.664,-0.388,159.344,-8.702,20.015
1.620,0.157,0.663,-0.407,159.038,-7.282,19.359
1.620,0.157,0.684,-0.442,157.252,-5.969,19.176
1.630,0.142,0.696,-0.473,154.489,-4.183,19.115
1.630,0.168,0.709,-0.535,149.252,2.260,19.939
1.630,0.100,0.730,-0.529,145.603,-0.473,20.351
1.640,0.110,0.715,-0.512,143.527,-2.305,19.740
1.640,0.166,0.718,-0.636,141.420,0.153,19.374
1.650,0.155,0.749,-0.687,134.275,0.855,18.412
1.650,0.141,0.772,-0.687,127.115,-1.389,18.153
1.660,0.135,0.752,-0.661,121.924,-3.618,16.748
1.660,0.197,0.754,-0.666,114.885,0.763,17.206
1.660,0.136,0.753,-0.595,112.733,-3.511,17.023
1.670,0.156,0.717,-0.569,112.321,-6.504,15.771
1.670,0.166,0.725,-0.602,110.443,-6.580,14.809
1.680,0.155,0.728,-0.624,108.947,-6.794,14.260
1.680,0.135,0.721,-0.594,110.046,-8.595,13.435
1.680,0.116,0.714,-0.614,111.496,-11.725,13.099
1.690,0.110,0.732,-0.665,109.802,-13.328,12.305
1.690,0.097,0.737,-0.687,108.168,-14.763,12.412
1.700,0.074,0.729,-0.678,107.282,-17.176,12.534
1.700,0.078,0.722,-0.660,107.313,-18.351,13.115
1.710,0.088,0.717,-0.651,107.573,-18.260,13.893
1.710,0.071,0.720,-0.687,106.580,-17.374,14.885
1.710,0.094,0.724,-0.700,106.229,-12.718,16.092
1.720,0.102,0.723,-0.696,106.489,-5.756,17.053
1.720,0.139,0.731,-0.678,110.061,-0.214,19.618
1.730,0.056,0.746,-0.709,106.718,-8.153,20.687
1.730,0.022,0.744,-0.768,103.053,-20.382,20.275
1.730,0.051,0.753,-0.804,99.786,-24.733,20.366
1.740,0.092,0.766,-0.786,96.870,-26.214,20.733
1.740,0.124,0.765,-0.773,95.237,-25.176,20.840
1.750,0.135,0.755,-0.774,94.962,-23.389,21.420
1.750,0.129,0.749,-0.771,95.084,-23.725,21.603
1.760,0.124,0.759,-0.813,95.038,-23.817,22.061
1.760,0.133,0.758,-0.847,95.832,-23.115,22.626
1.760,0.137,0.762,-0.872,96.260,-21.634,23.588
1.770,0.145,0.764,-0.907,98.198,-18.229,24.702
1.770,0.164,0.753,-0.954,97.542,-12.458,25.985
1.780,0.178,0.776,-0.993,95.756,-6.275,26.565
1.780,0.197,0.793,-1.050,92.840,-3.145,26.962
1.780,0.207,0.790,-1.094,89.038,-2.855,26.504
1.790,0.208,0.803,-1.122,85.176,-2.198,25.771
1.790,0.210,0.821,-1.178,80.809,-3.145,24.962
1.800,0.195,0.837,-1.233,77.191,-5.282,24.321
1.800,0.174,0.861,-1.289,71.893,-9.466,24.168
1.810,0.154,0.886,-1.346,65.679,-13.038,23.908
1.810,0.164,0.910,-1.432,56.641,-10.779,23.527
1.810,0.253,0.927,-1.469,48.718,4.336,24.733
1.820,0.161,0.919,-1.428,39.634,2.733,25.176
1.820,0.069,0.912,-1.435,30.840,-11.710,24.260
1.830,0.097,0.904,-1.442,20.702,-20.931,23.435
1.830,0.143,0.892,-1.419,10.611,-22.870,23.344
1.830,0.189,0.862,-1.338,2.962,-24.672,22.656
1.840,0.212,0.859,-1.282,-3.160,-25.038,21.542
1.840,0.231,0.852,-1.232,-9.481,-25.069,21.130
1.850,0.237,0.840,-1.201,-15.008,-24.504,19.725
1.850,0.240,0.825,-1.151,-19.832,-24.412,18.595
1.850,0.251,0.831,-1.106,-24.580,-23.634,17.527
1.860,0.260,0.820,-1.049,-28.809,-22.885,15.634
1.860,0.268,0.829,-1.000,-31.664,-22.000,13.771
1.870,0.276,0.822,-0.915,-33.267,-19.542,11.649
1.870,0.322,0.807,-0.850,-30.550,-9.573,10.137
1.880,0.302,0.812,-0.787,-31.282,-5.588,9.618
1.880,0.255,0.809,-0.761,-31.588,-5.557,7.832
1.880,0.231,0.811,-0.701,-32.733,-7.084,6.687
1.890,0.249,0.810,-0.665,-33.420,-5.313,6.168
1.890,0.254,0.823,-0.632,-35.130,-1.313,5.832
1.900,0.237,0.816,-0.592,-36.107,1.237,5.405
1.900,0.231,0.819,-0.518,-35.908,0.809,4.855
1.900,0.217,0.815,-0.479,-34.473,-0.992,3.786
1.910,0.244,0.817,-0.450,-32.550,0.107,2.992
1.910,0.250,0.817,-0.425,-31.221,2.550,2.046
1.920,0.241,0.826,-0.395,-29.237,3.527,1.313
1.920,0.231,0.820,-0.379,-26.550,3.420,0.733
1.920,0.230,0.815,-0.371,-23.511,4.229,0.260
1.930,0.228,0.829,-0.362,-21.023,5.634,-0.260
1.930,0.221,0.824,-0.367,-17.664,7.603,-0.550
1.940,0.215,0.824,-0.374,-14.000,8.824,-0.580
1.940,0.214,0.837,-0.402,-10.351,8.977,-1.069
1.940,0.211,0.850,-0.433,-8.305,8.733,-1.527
1.950,0.208,0.873,-0.482,-7.298,8.580,-1.481
1.950,0.222,0.883,-0.518,-7.603,8.641,-2.046
1.960,0.233,0.891,-0.546,-8.290,8.611,-2.611
1.960,0.251,0.903,-0.567,-9.710,9.405,-3.176
1.960,0.272,0.904,-0.594,-11.374,10.458,-4.061
1.970,0.284,0.901,-0.614,-13.069,11.237,-5.359
1.970,0.289,0.907,-0.622,-14.595,11.389,-6.916
1.980,0.311,0.908,-0.658,-16.244,13.252,-8.855
1.980,0.341,0.909,-0.681,-19.313,15.435,-10.794
1.990,0.338,0.914,-0.674,-21.725,16.321,-12.672
1.990,0.325,0.896,-0.664,-23.099,16.595,-14.565
1.990,0.320,0.891,-0.667,-24.595,18.244,-16.015
2.000,0.306,0.883,-0.667,-25.802,19.145,-17.679
2.000,0.289,0.881,-0.661,-26.412,18.229,-19.405
2.010,0.277,0.873,-0.682,-26.809,16.656,-20.779
2.010,0.248,0.872,-0.684,-26.992,14.947,-22.076
2.020,0.238,0.868,-0.678,-27.115,13.496,-22.962
2.020,0.205,0.860,-0.683,-26.962,12.000,-23.649
2.020,0.194,0.861,-0.695,-27.313,10.122,-24.107
2.030,0.177,0.866,-0.697,-28.092,9.008,-24.122
2.030,0.160,0.861,-0.699,-29.084,7.313,-24.031
2.040,0.144,0.857,-0.682,-29.695,5.176,-24.061
2.040,0.135,0.855,-0.665,-30.107,3.145,-23.679
2.040,0.124,0.851,-0.651,-30.183,2.031,-22.840
2.050,0.113,0.855,-0.648,-30.611,2.031,-21.832
2.050,0.104,0.856,-0.655,-31.176,2.321,-20.519
2.060,0.099,0.858,-0.646,-31.695,2.198,-19.267
2.060,0.083,0.861,-0.655,-32.412,1.817,-17.679
2.070,0.074,0.868,-0.665,-33.389,1.588,-15.908
2.070,0.074,0.874,-0.666,-35.237,2.214,-13.802
2.070,0.065,0.880,-0.678,-36.687,2.855,-11.939
2.080,0.071,0.877,-0.661,-38.000,2.305,-10.290
2.080,0.075,0.873,-0.671,-38.947,1.527,-9.069
2.090,0.093,0.872,-0.660,-39.893,1.634,-8.137
2.090,0.100,0.876,-0.668,-40.962,2.275,-7.679
2.090,0.107,0.874,-0.669,-42.092,2.840,-7.374
2.100,0.114,0.868,-0.685,-43.435,3.847,-7.191
2.100,0.121,0.873,-0.710,-44.504,5.053,-6.931
2.110,0.126,0.877,-0.723,-46.168,5.527,-6.992
2.110,0.127,0.883,-0.743,-48.122,5.359,-7.099
2.110,0.137,0.891,-0.760,-50.885,5.908,-7.634
2.120,0.150,0.894,-0.777,-54.061,6.305,-8.305
2.120,0.157,0.900,-0.788,-58.031,6.748,-9.176
2.130,0.160,0.905,-0.803,-62.611,7.252,-9.527
2.130,0.153,0.895,-0.798,-67.466,7.420,-10.107
2.140,0.159,0.888,-0.787,-71.252,8.061,-10.534
2.140,0.172,0.876,-0.761,-74.870,8.794,-10.824
2.140,0.172,0.871,-0.750,-77.802,9.053,-11.313
2.150,0.166,0.852,-0.734,-79.863,8.748,-11.908
2.150,0.173,0.848,-0.719,-81.573,9.069,-12.397
2.160,0.159,0.834,-0.701,-82.809,8.779,-12.962
2.160,0.168,0.829,-0.689,-83.664,8.443,-13.618
2.160,0.165,0.821,-0.688,-83.756,8.840,-14.122
2.170,0.167,0.825,-0.689,-84.244,9.725,-14.534
2.170,0.162,0.834,-0.722,-85.542,10.611,-15.084
2.180,0.155,0.835,-0.728,-87.023,11.069,-15.985
2.180,0.158,0.828,-0.741,-88.443,11.389,-16.840
2.190,0.162,0.822,-0.747,-90.137,12.260,-18.260
2.190,0.142,0.842,-0.766,-92.534,13.130,-19.206
2.190,0.132,0.850,-0.807,-95.924,13.420,-19.756
2.200,0.118,0.866,-0.815,-100.550,13.954,-19.771
2.200,0.098,0.859,-0.820,-105.634,15.359,-19.313
2.210,0.083,0.858,-0.822,-110.427,16.183,-18.290
2.210,0.083,0.868,-0.828,-116.321,16.550,-16.733
2.220,0.084,0.865,-0.829,-122.656,17.099,-15.344
2.220,0.094,0.852,-0.811,-128.366,16.000,-14.290
2.220,0.098,0.855,-0.772,-133.939,13.160,-13.252
2.230,0.132,0.835,-0.740,-138.763,10.931,-12.626
2.230,0.149,0.823,-0.713,-142.916,7.420,-12.534
2.240,0.173,0.803,-0.675,-144.977,3.725,-13.405
2.240,0.198,0.796,-0.656,-147.008,0.519,-14.626
2.250,0.209,0.797,-0.645,-149.298,-1.832,-16.351
2.250,0.220,0.790,-0.633,-151.313,-4.275,-18.183
2.250,0.221,0.781,-0.619,-152.550,-7.130,-20.351
2.260,0.229,0.778,-0.601,-154.031,-10.504,-22.595
2.260,0.228,0.770,-0.587,-155.588,-13.176,-24.748
2.270,0.216,0.769,-0.568,-157.527,-15.237,-27.038
2.270,0.196,0.758,-0.561,-159.191,-17.328,-28.794
2.280,0.180,0.760,-0.553,-161.863,-19.420,-30.000
2.280,0.166,0.754,-0.543,-165.069,-19.893,-30.427
2.290,0.162,0.757,-0.532,-168.275,-19.237,-30.260
2.290,0.150,0.744,-0.511,-171.573,-18.733,-29.588
2.290,0.141,0.732,-0.497,-174.519,-17.969,-28.870
2.300,0.128,0.723,-0.474,-177.542,-17.145,-27.115
2.300,0.118,0.714,-0.443,-180.107,-14.626,-24.779
2.310,0.103,0.704,-0.416,-181.786,-11.634,-21.191
2.310,0.094,0.698,-0.411,-184.229,-8.000,-17.679
2.320,0.109,0.695,-0.391,-186.489,-3.802,-14.244
2.320,0.113,0.692,-0.407,-189.359,1.878,-11.008
2.320,0.127,0.703,-0.390,-193.176,6.824,-8.153
2.330,0.159,0.704,-0.350,-195.344,10.702,-6.763
2.330,0.173,0.683,-0.319,-195.863,9.725,-6.947
2.340,0.187,0.670,-0.285,-196.779,6.122,-8.382
2.340,0.220,0.663,-0.234,-196.870,3.313,-10.076
2.350,0.247,0.643,-0.195,-196.901,2.290,-12.382
2.350,0.262,0.637,-0.160,-196.366,4.519,-14.000
2.350,0.272,0.626,-0.140,-195.267,9.313,-15.511
2.360,0.277,0.611,-0.110,-193.542,13.374,-16.718
2.360,0.262,0.617,-0.090,-192.000,16.611,-17.695
2.370,0.180,0.592,-0.030,-185.664,10.473,-21.496
2.370,0.265,0.620,-0.121,-187.359,20.763,-22.489
2.380,0.232,0.643,-0.165,-192.779,27.969,-24.641
2.380,0.173,0.634,-0.113,-194.763,26.702,-26.809
2.380,0.187,0.622,-0.094,-196.153,24.641,-27.954
2.390,0.192,0.650,-0.120,-201.863,24.626,-29.786
2.390,0.177,0.646,-0.108,-207.511,21.893,-31.405
2.400,0.116,0.616,-0.050,-210.656,10.824,-34.534
2.400,0.212,0.607,-0.071,-215.954,11.710,-35.267
2.410,0.188,0.609,-0.046,-221.969,11.740,-36.702
2.410,0.163,0.555,0.022,-222.290,7.802,-37.557
2.420,0.136,0.493,0.138,-217.695,1.725,-40.702
2.420,0.156,0.521,0.112,-218.809,-0.580,-41.603
2.420,0.119,0.512,0.131,-223.023,-3.649,-43.160
2.430,0.081,0.481,0.163,-223.618,-8.824,-44.168
2.430,0.081,0.474,0.208,-223.634,-14.947,-45.084
2.440,0.060,0.472,0.240,-222.687,-19.802,-44.412
2.440,0.061,0.420,0.258,-219.802,-20.229,-45.664
2.440,0.071,0.446,0.267,-219.557,-20.183,-44.656
2.450,0.022,0.416,0.343,-217.664,-24.260,-44.168
2.450,-0.007,0.393,0.393,-211.466,-27.969,-44.061
2.460,0.052,0.394,0.360,-210.473,-22.870,-41.603
2.460,0.018,0.394,0.388,-211.969,-20.198,-39.634
2.470,-0.015,0.375,0.420,-209.695,-20.748,-36.702
2.470,0.007,0.337,0.499,-206.076,-17.527,-34.809
2.480,0.036,0.376,0.471,-207.588,-6.702,-31.023
2.480,0.030,0.359,0.505,-207.832,3.160,-28.443
2.480,0.014,0.353,0.555,-206.595,6.290,-26.000
2.490,0.022,0.342,0.563,-204.947,9.695,-25.176
2.490,0.047,0.346,0.578,-202.870,12.931,-25.191
2.500,0.013,0.327,0.657,-196.855,9.160,-25.527
2.500,0.041,0.296,0.674,-191.771,6.992,-27.771
2.500,0.035,0.330,0.702,-190.840,2.107,-27.954
2.510,0.039,0.313,0.723,-186.718,-1.649,-28.794
2.510,0.046,0.310,0.750,-181.267,-7.221,-28.977
2.520,0.029,0.331,0.743,-176.015,-12.809,-29.542
2.520,0.071,0.324,0.693,-173.008,-13.771,-29.695
2.530,0.052,0.348,0.645,-171.405,-15.847,-30.122
2.530,0.042,0.350,0.660,-169.527,-21.878,-30.885
2.530,0.045,0.347,0.657,-167.832,-27.069,-31.496
2.540,0.053,0.347,0.618,-168.046,-29.664,-31.359
2.540,0.039,0.342,0.600,-169.725,-30.687,-30.656
2.550,0.036,0.329,0.618,-171.374,-30.992,-29.420
2.550,0.045,0.321,0.635,-173.649,-29.924,-27.664
2.560,0.058,0.292,0.655,-176.656,-25.878,-25.939
2.560,0.060,0.272,0.668,-178.885,-19.420,-23.557
2.570,0.062,0.252,0.713,-179.679,-13.542,-20.901
2.570,0.052,0.215,0.781,-178.718,-8.565,-19.084
2.570,0.072,0.186,0.844,-176.595,-2.427,-17.786
2.580,0.071,0.163,0.892,-174.061,3.511,-16.702
2.580,0.063,0.145,0.944,-170.809,7.023,-16.427
2.590,0.060,0.138,0.982,-167.130,8.901,-16.504
2.590,0.057,0.125,0.996,-163.557,10.137,-16.931
2.590,0.060,0.123,0.992,-159.618,12.260,-17.847
2.600,0.072,0.124,1.009,-156.382,14.733,-19.115
2.600,0.074,0.135,0.990,-153.786,16.672,-20.962
2.610,0.071,0.134,0.977,-151.832,18.168,-23.069
2.610,0.046,0.142,0.957,-150.992,17.954,-25.115
2.620,0.020,0.128,0.995,-149.893,14.595,-27.389
2.620,0.006,0.125,1.004,-147.588,12.168,-29.130
2.620,-0.028,0.124,1.003,-146.092,10.458,-29.771
2.630,-0.046,0.120,0.997,-145.267,9.405,-29.649
2.630,-0.058,0.121,0.991,-145.069,8.947,-28.947
2.640,-0.065,0.116,0.996,-144.794,9.969,-27.511
2.640,-0.066,0.106,0.987,-144.748,12.473,-26.366
2.650,-0.087,0.101,0.988,-144.153,13.847,-25.084
2.650,-0.102,0.084,1.039,-143.084,12.565,-23.282
2.650,-0.105,0.068,1.074,-141.191,9.802,-21.771
2.660,-0.121,0.056,1.112,-138.962,8.458,-19.252
2.660,-0.119,0.043,1.141,-135.695,9.008,-16.443
2.670,-0.106,0.036,1.184,-131.649,10.092,-13.725
2.670,-0.070,0.018,1.194,-126.672,12.672,-11.908
2.680,-0.043,0.026,1.221,-121.267,15.130,-10.901
2.680,-0.035,0.011,1.232,-115.573,17.282,-11.038
2.680,-0.012,0.026,1.225,-110.702,20.855,-11.924
2.690,-0.010,0.031,1.215,-106.244,21.115,-12.962
2.690,-0.040,0.042,1.198,-103.481,15.160,-14.260
2.700,-0.053,0.052,1.184,-100.107,11.466,-15.649
2.700,-0.039,0.057,1.177,-95.344,13.817,-16.092
2.710,-0.053,0.069,1.161,-92.290,14.305,-16.427
2.710,-0.068,0.077,1.130,-90.137,12.855,-16.153
2.710,-0.067,0.092,1.081,-88.916,10.931,-16.443
2.720,-0.077,0.083,1.051,-87.939,9.008,-17.145
2.720,-0.082,0.097,1.033,-88.519,8.321,-17.893
2.730,-0.056,0.093,1.034,-89.252,8.687,-18.137
2.730,-0.101,0.087,1.007,-92.885,0.366,-20.061
2.740,-0.076,0.089,1.007,-93.420,-0.641,-21.313
2.740,-0.036,0.074,1.053,-91.740,6.137,-20.580
2.740,-0.082,0.074,1.075,-90.763,8.733,-19.466
2.750,-0.115,0.070,1.060,-90.977,7.069,-18.229
2.750,-0.129,0.066,1.069,-91.389,4.916,-17.176
2.760,-0.132,0.050,1.089,-91.130,3.710,-16.061
2.760,-0.115,0.030,1.139,-89.176,3.664,-15.053
2.770,-0.117,0.023,1.169,-86.901,3.008,-14.382
2.770,-0.113,0.015,1.190,-83.435,1.893,-13.908
2.770,-0.111,0.007,1.209,-79.725,-0.412,-13.496
2.780,-0.114,0.002,1.225,-75.557,-4.427,-13.145
2.780,-0.114,0.003,1.218,-71.649,-8.458,-13.130
2.790,-0.108,0.010,1.210,-67.771,-12.550,-13.939
2.790,-0.097,0.015,1.208,-64.626,-15.160,-13.786
2.790,-0.095,0.016,1.181,-61.603,-17.069,-13.206
2.800,-0.089,0.029,1.166,-57.740,-18.534,-14.748
2.800,-0.105,0.018,1.165,-53.603,-22.382,-18.076
2.810,-0.066,0.091,1.104,-53.527,-20.229,-12.153
2.810,-0.074,0.048,1.086,-53.084,-20.153,-11.130
2.820,-0.053,0.045,1.077,-52.611,-20.290,-11.252
2.820,-0.049,0.043,1.064,-51.924,-18.748,-11.053
2.830,-0.050,0.048,1.046,-51.954,-16.473,-10.794
2.830,-0.057,0.054,1.021,-52.153,-14.031,-10.214
2.830,-0.065,0.058,1.010,-53.023,-12.901,-9.466
2.840,-0.067,0.068,0.993,-54.000,-12.779,-8.687
2.840,-0.045,0.072,0.988,-54.504,-11.313,-8.031
2.850,-0.026,0.072,0.983,-55.420,-9.344,-7.435
2.850,-0.010,0.081,0.971,-55.771,-7.252,-7.099
2.860,0.013,0.075,0.961,-55.863,-6.107,-7.298
2.860,0.025,0.070,0.985,-55.786,-5.985,-8.092
2.860,0.036,0.070,0.987,-55.038,-6.046,-9.160
2.870,0.051,0.062,1.001,-53.786,-5.725,-9.939
2.870,0.047,0.056,1.005,-52.947,-6.290,-10.779
2.880,0.035,0.048,1.009,-52.198,-6.916,-11.527
2.880,0.038,0.037,1.010,-51.252,-8.626,-12.534
2.880,0.036,0.037,1.014,-50.168,-10.000,-13.771
2.890,0.051,0.035,1.007,-49.557,-11.298,-14.809
2.890,0.036,0.027,1.010,-48.733,-12.214,-15.756
2.900,0.025,0.022,1.002,-48.168,-12.107,-16.244
2.900,0.028,0.019,1.002,-47.481,-12.107,-16.641
2.910,0.022,0.007,1.019,-46.748,-10.901,-16.458
2.910,0.011,0.000,1.025,-45.374,-8.962,-16.107
2.910,0.005,-0.009,1.023,-44.260,-6.977,-15.679
2.920,-0.017,-0.015,1.027,-43.252,-5.023,-14.672
2.920,-0.032,-0.020,1.033,-42.229,-3.435,-13.557
2.930,-0.049,-0.032,1.042,-40.733,-1.802,-12.168
2.930,-0.065,-0.045,1.059,-39.725,-0.366,-10.702
2.940,-0.060,-0.048,1.080,-38.718,0.947,-9.542
2.940,-0.052,-0.054,1.084,-37.160,2.565,-8.382
2.940,-0.052,-0.061,1.096,-35.008,3.969,-7.740
2.950,-0.054,-0.063,1.102,-33.420,3.939,-6.977
2.950,-0.058,-0.057,1.080,-31.893,3.252,-6.382
2.960,-0.059,-0.057,1.068,-30.519,2.397,-6.153
2.960,-0.060,-0.055,1.078,-28.656,1.374,-5.664
2.960,-0.065,-0.060,1.067,-26.779,0.397,-5.282
2.970,-0.069,-0.058,1.052,-25.237,-0.870,-5.038
2.970,-0.062,-0.055,1.058,-23.924,-2.901,-4.427
2.980,-0.056,-0.052,1.048,-22.458,-3.954,-4.015
2.980,-0.056,-0.054,1.052,-21.298,-5.237,-3.389
2.990,-0.053,-0.048,1.047,-20.061,-5.573,-3.023
2.990,-0.052,-0.050,1.041,-18.702,-5.802,-2.595
2.990,-0.035,-0.046,1.039,-17.679,-6.702,-2.397
3.000,-0.025,-0.045,1.043,-16.809,-5.924,-2.214
3.000,-0.009,-0.038,1.033,-15.695,-4.443,-1.939
3.010,-0.003,-0.042,1.045,-14.519,-2.137,-1.817
3.010,0.000,-0.044,1.018,-13.206,-1.176,-1.664
3.020,0.003,-0.036,1.015,-12.473,-0.794,-2.122
3.020,0.015,-0.037,1.009,-11.420,-0.473,-2.427
3.020,0.018,-0.035,0.999,-10.137,0.733,-2.794
3.030,0.016,-0.031,0.991,-9.588,1.405,-3.344
3.030,0.003,-0.022,0.978,-9.237,1.191,-3.802
3.040,0.006,-0.031,0.968,-8.626,1.405,-3.893
3.040,-0.002,-0.021,0.948,-8.458,1.069,-4.092
3.040,-0.012,-0.017,0.945,-8.214,0.168,-4.168
3.050,-0.020,-0.020,0.928,-8.366,-1.542,-4.076
3.050,-0.022,-0.017,0.921,-8.687,-3.160,-3.725
3.060,-0.021,-0.014,0.925,-9.573,-3.939,-3.954
3.060,-0.018,-0.015,0.905,-10.366,-4.443,-3.618
3.060,-0.027,-0.021,0.897,-11.053,-5.344,-3.313
3.070,-0.038,-0.018,0.921,-11.450,-6.855,-3.099
3.070,-0.027,-0.020,0.915,-11.695,-8.015,-2.672
3.080,-0.021,-0.023,0.912,-11.588,-8.962,-2.489
3.080,-0.020,-0.033,0.916,-11.298,-10.458,-2.565
3.090,-0.014,-0.031,0.925,-10.779,-11.679,-2.519
3.090,-0.004,-0.027,0.916,-10.260,-12.092,-2.534
3.090,0.004,-0.025,0.924,-9.695,-11.634,-2.336
3.100,0.006,-0.033,0.912,-8.809,-11.252,-2.504
3.100,0.013,-0.031,0.924,-8.763,-11.374,-2.550
3.110,0.008,-0.030,0.919,-8.595,-11.206,-1.985
3.110,0.018,-0.038,0.914,-8.275,-9.847,-1.603
3.120,0.021,-0.036,0.933,-8.031,-7.786,-1.237
3.120,0.033,-0.038,0.937,-7.649,-5.420,-1.115
3.120,0.040,-0.036,0.939,-7.420,-3.405,-1.252
3.130,0.037,-0.041,0.918,-7.466,-2.153,-1.573
3.130,0.032,-0.041,0.920,-7.282,-1.038,-1.786
3.140,0.020,-0.040,0.928,-6.977,-0.122,-1.939
3.140,0.008,-0.039,0.917,-6.733,0.046,-2.092
3.140,0.003,-0.037,0.898,-6.794,0.122,-2.031
3.150,0.001,-0.032,0.905,-7.481,0.229,-1.878
3.150,-0.005,-0.043,0.891,-7.420,0.504,-1.740
3.160,-0.015,-0.034,0.888,-7.588,0.336,-1.603
3.160,-0.030,-0.042,0.883,-7.969,-0.061,-0.977
3.160,-0.041,-0.037,0.883,-8.580,-1.008,-0.519
3.170,-0.038,-0.042,0.881,-8.931,-1.832,-0.031
3.170,-0.040,-0.040,0.884,-9.313,-2.855,0.473
3.180,-0.031,-0.044,0.881,-9.405,-3.573,0.748
3.180,-0.026,-0.050,0.890,-9.634,-4.214,1.115
3.180,-0.016,-0.043,0.892,-10.061,-5.069,1.298
3.190,-0.007,-0.049,0.896,-9.878,-5.679,1.176
3.190,0.001,-0.057,0.906,-9.740,-6.214,0.824
3.200,0.002,-0.054,0.909,-9.466,-7.252,0.550
3.200,0.008,-0.056,0.900,-8.916,-7.878,0.183
3.200,0.005,-0.056,0.908,-8.412,-8.260,0.351
3.210,0.008,-0.050,0.899,-7.664,-8.275,0.611
3.210,0.005,-0.051,0.897,-7.069,-8.473,0.901
3.220,0.012,-0.051,0.898,-6.229,-8.458,1.023
3.220,0.017,-0.052,0.896,-5.511,-7.924,1.130
3.220,0.017,-0.046,0.887,-5.450,-7.603,1.145
3.230,0.017,-0.048,0.882,-5.817,-7.099,1.206
3.230,0.019,-0.044,0.878,-5.679,-6.336,1.359
3.240,0.024,-0.038,0.869,-5.618,-5.145,1.328
3.240,0.047,-0.029,0.858,-7.359,-2.656,1.450
3.240,0.030,-0.033,0.871,-7.771,-2.260,1.588
3.250,0.029,-0.034,0.880,-8.794,-1.282,1.847
3.250,0.044,-0.046,0.885,-9.679,0.565,1.771
3.260,0.058,-0.047,0.900,-10.321,2.885,1.939
3.260,0.053,-0.051,0.920,-10.061,4.214,1.649
3.260,0.053,-0.061,0.926,-9.847,5.145,1.115
3.270,0.064,-0.058,0.927,-9.695,6.305,0.626
3.270,0.060,-0.066,0.926,-9.130,7.237,-0.137
3.280,0.047,-0.071,0.926,-9.191,7.496,-1.115
3.280,0.040,-0.070,0.922,-8.458,6.977,-1.664
3.280,0.026,-0.071,0.920,-8.046,6.000,-2.061
3.290,0.014,-0.067,0.915,-7.649,4.611,-2.198
3.290,-0.006,-0.064,0.909,-7.282,2.473,-2.092
3.300,-0.029,-0.069,0.910,-6.733,-1.237,-2.015
3.300,-0.042,-0.066,0.902,-6.412,-4.794,-1.939
3.300,-0.034,-0.071,0.902,-6.382,-8.000,-1.710
3.310,-0.032,-0.062,0.899,-6.321,-9.802,-1.359
3.310,-0.016,-0.064,0.907,-6.076,-10.336,-0.855
3.320,-0.006,-0.065,0.905,-6.076,-10.397,-0.504
3.320,0.010,-0.070,0.913,-6.351,-10.000,-0.550
3.330,0.017,-0.064,0.904,-6.656,-9.084,-0.504
3.330,0.029,-0.064,0.911,-6.656,-7.191,-0.489
3.330,0.028,-0.062,0.913,-6.885,-5.450,-0.504
3.340,0.023,-0.068,0.917,-7.817,-3.939,-0.137
3.340,0.031,-0.060,0.926,-7.939,-2.733,-0.046
3.350,0.029,-0.070,0.928,-7.985,-0.672,0.366
3.350,0.036,-0.068,0.927,-8.290,0.321,0.672
3.350,0.033,-0.074,0.945,-8.137,0.885,0.733
3.360,0.034,-0.072,0.952,-7.496,1.450,0.718
3.360,0.024,-0.080,0.966,-6.412,1.756,0.687
3.370,0.032,-0.082,0.959,-5.557,2.061,0.595
3.370,0.030,-0.086,0.966,-4.412,2.336,0.519
3.370,0.024,-0.079,0.947,-3.466,2.031,0.565
3.380,0.023,-0.081,0.951,-2.351,2.107,0.718
3.380,0.027,-0.084,0.946,-1.466,2.504,0.656
3.390,0.029,-0.076,0.936,-0.504,2.076,0.412
3.390,0.021,-0.072,0.926,-0.031,1.237,-0.321
3.390,0.027,-0.068,0.914,-0.015,-0.015,-0.656
3.400,0.021,-0.070,0.910,-0.076,-0.382,-0.840
3.400,0.018,-0.064,0.896,-0.107,-0.153,-0.794
3.410,0.008,-0.059,0.897,-0.901,-0.321,-0.550
3.410,-0.006,-0.060,0.890,-1.542,-0.992,-0.092
3.410,0.005,-0.060,0.896,-2.443,-2.092,-0.092
3.420,-0.002,-0.058,0.892,-2.977,-2.397,0.198
3.420,0.003,-0.054,0.904,-3.450,-2.641,0.504
3.430,-0.001,-0.064,0.906,-3.710,-2.687,0.840
3.430,0.015,-0.063,0.910,-4.168,-2.641,1.206
3.430,0.016,-0.065,0.911,-4.092,-2.305,1.405
3.440,0.020,-0.068,0.895,-4.107,-1.115,1.328
3.440,0.021,-0.062,0.901,-4.687,-1.542,1.313
3.450,0.027,-0.067,0.914,-4.473,-1.954,1.115
3.450,0.035,-0.070,0.919,-4.214,-0.794,1.053
3.450,0.034,-0.062,0.906,-4.214,0.992,1.008
3.460,0.027,-0.062,0.899,-4.305,1.527,1.359
3.460,0.028,-0.064,0.907,-3.969,1.924,1.237
3.470,0.029,-0.059,0.909,-3.771,1.420,1.206
3.470,0.033,-0.059,0.909,-3.405,1.542,0.840
3.470,0.031,-0.068,0.909,-3.557,1.618,0.733
3.480,0.020,-0.062,0.911,-3.557,1.130,0.473
3.480,0.021,-0.068,0.908,-3.298,0.916,0.397
3.490,0.025,-0.071,0.904,-2.885,-0.290,0.244
3.490,0.018,-0.074,0.920,-2.733,-1.618,0.122
3.490,0.031,-0.074,0.928,-2.198,-2.305,-0.153
3.500,0.028,-0.080,0.932,-1.008,-3.160,-0.519
3.500,0.028,-0.080,0.932,-0.168,-4.641,-0.870
3.510,0.023,-0.078,0.935,0.763,-5.939,-1.359
3.510,0.012,-0.069,0.920,1.695,-6.214,-1.405
3.510,0.017,-0.069,0.917,1.939,-6.061,-1.221
3.520,0.005,-0.068,0.892,1.771,-5.435,-0.672
3.520,0.005,-0.061,0.892,1.847,-4.489,-0.092
3.530,0.012,-0.057,0.883,1.206,-3.588,0.183
3.530,0.014,-0.059,0.874,0.382,-3.191,0.397
3.530,0.014,-0.056,0.865,-0.550,-2.641,0.550
3.540,0.023,-0.057,0.874,-1.450,-2.382,0.519
3.540,0.031,-0.056,0.867,-2.534,-1.542,0.565
3.550,0.031,-0.059,0.872,-3.176,-0.351,0.565
3.550,0.022,-0.055,0.868,-3.695,0.870,0.641
3.550,0.022,-0.054,0.873,-4.397,1.481,0.840
3.560,0.024,-0.060,0.861,-4.794,1.969,1.038
3.560,0.031,-0.062,0.881,-4.779,2.046,1.023
3.560,0.033,-0.065,0.882,-4.382,2.198,0.718
3.570,0.033,-0.077,0.893,-4.427,1.832,0.550
3.570,0.031,-0.075,0.900,-3.847,1.496,0.305
3.580,0.034,-0.082,0.910,-2.931,1.466,0.076
3.580,0.029,-0.085,0.918,-1.985,1.847,0.107
3.580,0.030,-0.085,0.922,-0.947,2.092,0.107
3.590,0.028,-0.082,0.929,0.168,1.893,0.137
3.590,0.027,-0.080,0.911,0.931,1.008,-0.198
3.600,0.027,-0.077,0.906,1.496,0.122,-0.626
3.600,0.031,-0.070,0.896,2.015,-0.275,-0.687
3.600,0.034,-0.071,0.891,2.504,-0.443,-0.870
3.610,0.021,-0.071,0.889,2.214,-0.504,-0.763
3.610,0.018,-0.063,0.878,1.634,-0.519,-0.672
3.620,0.022,-0.065,0.874,1.160,-0.427,-0.550
3.620,0.022,-0.062,0.864,0.687,0.122,-0.473
3.620,0.015,-0.062,0.853,-0.168,0.336,-0.611
3.630,0.011,-0.062,0.849,-1.359,0.473,-0.366
3.630,0.007,-0.060,0.835,-2.229,0.031,-0.290
3.640,0.001,-0.058,0.845,-3.023,-0.550,-0.275
3.640,0.013,-0.057,0.849,-4.168,-1.053,-0.168
3.640,0.020,-0.065,0.865,-4.550,-0.214,-0.107
3.650,0.031,-0.063,0.863,-4.962,1.038,0.122
3.650,0.023,-0.063,0.867,-5.237,2.168,0.443
3.660,0.030,-0.059,0.882,-5.328,2.427,0.351
3.660,0.034,-0.063,0.885,-4.901,3.115,0.183
3.660,0.042,-0.072,0.900,-4.641,4.198,0.229
3.670,0.036,-0.071,0.905,-4.214,4.443,-0.076
3.670,0.034,-0.073,0.911,-3.405,4.321,-0.290
3.680,0.032,-0.073,0.905,-2.702,4.534,-0.214
3.680,0.024,-0.078,0.904,-1.969,3.954,-0.550
3.680,0.020,-0.071,0.900,-1.908,3.038,-0.489
3.690,0.012,-0.073,0.895,-1.649,1.954,-0.458
3.690,0.003,-0.077,0.903,-1.221,0.611,-0.672
3.700,-0.002,-0.064,0.885,-0.901,-1.008,-0.870
3.700,0.001,-0.074,0.887,-1.053,-3.038,-0.901
3.700,-0.000,-0.068,0.881,-1.145,-4.382,-1.069
3.710,0.004,-0.067,0.881,-1.496,-5.756,-0.733
3.710,0.006,-0.067,0.889,-1.634,-6.244,-0.641
3.720,0.009,-0.074,0.891,-1.527,-5.878,-0.290
3.720,0.018,-0.073,0.898,-1.542,-4.885,0.031
3.720,0.027,-0.069,0.899,-1.496,-4.153,0.229
3.730,0.031,-0.068,0.911,-1.099,-2.931,0.443
3.730,0.042,-0.071,0.908,-1.069,-1.588,0.229
3.740,0.037,-0.073,0.906,-1.176,-0.076,0.153
3.740,0.048,-0.067,0.909,-1.405,1.252,-0.092
3.740,0.045,-0.068,0.899,-1.740,2.840,-0.107
3.750,0.044,-0.070,0.895,-1.771,4.351,-0.214
3.750,0.044,-0.068,0.893,-2.015,4.779,-0.351
3.760,0.037,-0.068,0.894,-2.489,4.947,-0.565
3.760,0.035,-0.066,0.906,-2.550,4.824,-0.870
3.760,0.026,-0.063,0.896,-2.443,4.763,-0.947
3.770,0.024,-0.061,0.898,-2.763,4.061,-0.901
3.770,0.015,-0.063,0.886,-2.809,3.420,-0.916
3.780,0.006,-0.069,0.893,-2.687,1.985,-1.053
3.780,0.002,-0.068,0.890,-2.580,0.687,-0.947
3.780,0.003,-0.067,0.898,-2.427,-0.122,-0.977
3.790,0.006,-0.066,0.894,-1.786,-1.298,-0.947
3.790,0.003,-0.071,0.905,-1.618,-2.748,-1.008
3.800,0.010,-0.072,0.906,-1.008,-3.099,-1.008
3.800,0.022,-0.073,0.920,-0.595,-3.634,-1.084
3.800,0.019,-0.077,0.913,-0.260,-3.176,-1.099
3.810,0.023,-0.072,0.915,-0.092,-2.580,-0.931
3.810,0.019,-0.071,0.915,0.397,-1.710,-0.977
3.820,0.022,-0.073,0.908,0.260,-0.840,-1.023
3.820,0.024,-0.067,0.902,0.244,-0.122,-0.840
3.820,0.014,-0.067,0.882,0.046,0.763,-0.672
3.830,0.005,-0.060,0.889,-0.290,1.267,-0.443
3.830,0.013,-0.067,0.894,-0.794,1.008,-0.183
3.840,0.011,-0.075,0.886,-0.977,1.053,0.000
3.840,0.017,-0.068,0.900,-1.160,1.450,0.214
3.840,0.012,-0.070,0.883,-1.420,2.290,0.397
3.850,0.016,-0.065,0.888,-1.710,2.855,0.580
3.850,0.008,-0.072,0.872,-1.924,3.252,0.595
3.860,0.012,-0.069,0.891,-1.725,3.130,0.718
3.860,0.011,-0.069,0.891,-1.588,2.870,0.534
3.860,0.016,-0.071,0.903,-1.359,2.702,0.565
3.870,0.007,-0.074,0.903,-0.702,2.412,0.626
3.870,0.009,-0.069,0.905,-0.489,1.771,0.809
3.880,0.012,-0.071,0.901,-0.351,0.885,0.565
3.880,0.020,-0.059,0.893,-0.397,0.534,0.718
3.880,0.028,-0.062,0.900,-0.504,0.550,0.580
3.890,0.026,-0.065,0.902,-0.534,0.260,0.229
3.890,0.037,-0.065,0.898,-0.702,0.183,-0.031
3.900,0.035,-0.053,0.893,-0.977,0.000,-0.565
3.900,0.026,-0.055,0.886,-1.237,0.336,-0.718
3.900,0.029,-0.067,0.891,-1.282,0.733,-0.809
3.910,0.030,-0.059,0.898,-1.374,1.374,-0.687
3.910,0.024,-0.064,0.887,-1.893,1.893,-0.809
3.920,0.017,-0.063,0.888,-2.183,2.031,-0.779
3.920,0.010,-0.068,0.891,-2.061,2.565,-0.687
3.920,0.010,-0.073,0.901,-1.740,3.237,-0.214
3.930,0.002,-0.073,0.897,-1.740,4.092,0.046
3.930,0.002,-0.070,0.902,-1.649,4.595,0.519
3.930,-0.006,-0.068,0.895,-1.206,4.412,0.626
3.940,0.000,-0.068,0.905,-1.313,4.458,0.916
3.940,0.011,-0.072,0.903,-0.901,4.214,0.977
3.950,0.006,-0.073,0.896,-0.656,4.168,1.221
3.950,0.018,-0.070,0.900,-0.580,3.725,1.069
3.950,0.017,-0.067,0.895,-0.366,3.863,0.962
3.960,0.008,-0.061,0.896,-0.641,3.145,0.931
3.960,0.013,-0.064,0.886,-0.687,2.504,0.519
3.970,0.021,-0.058,0.881,-0.779,2.229,0.351
3.970,0.010,-0.064,0.888,-0.718,2.183,0.260
3.970,0.006,-0.062,0.881,-0.641,2.122,0.305
3.980,-0.000,-0.061,0.874,-0.824,1.802,0.336
3.980,0.000,-0.062,0.877,-1.374,0.947,0.580
3.990,-0.008,-0.061,0.870,-1.557,0.718,0.626
3.990,-0.005,-0.057,0.881,-1.802,0.687,0.824
3.990,0.001,-0.062,0.888,-1.496,0.275,0.992
4.000,-0.002,-0.064,0.879,-1.847,-0.656,0.931
4.000,0.001,-0.067,0.890,-2.260,-1.344,0.687
4.010,0.010,-0.066,0.888,-1.908,-1.374,0.947
4.010,0.012,-0.064,0.901,-1.740,-1.176,0.901
4.010,0.007,-0.063,0.892,-2.000,-1.008,1.099
4.020,0.009,-0.068,0.884,-1.985,-0.931,1.221
4.020,0.014,-0.064,0.888,-1.847,-0.824,1.252
4.030,0.019,-0.066,0.893,-1.221,-1.252,1.282
4.030,0.032,-0.060,0.903,-1.099,-1.023,0.992
4.030,0.039,-0.061,0.900,-0.687,-0.107,0.794
4.040,0.033,-0.067,0.896,-0.626,0.351,0.565
4.040,0.025,-0.059,0.895,-0.443,0.779,0.336
4.050,0.019,-0.061,0.892,-0.382,0.855,0.214
4.050,0.022,-0.064,0.894,-0.779,0.672,0.244
4.050,0.023,-0.058,0.883,-1.145,1.008,0.351
4.060,0.022,-0.060,0.884,-1.115,0.809,0.214
4.060,0.020,-0.059,0.877,-1.542,0.153,0.397
