Time,acce_x,acce_y,acce_z,gyro_x,gyro_y,gyro_z
0.000,-0.003,-0.099,0.883,-1.450,2.000,-1.099
0.000,-0.010,-0.099,0.875,-1.969,1.878,-1.038
0.010,-0.006,-0.102,0.884,-2.137,1.939,-1.221
0.010,-0.002,-0.103,0.884,-2.153,2.031,-1.374
0.010,-0.003,-0.109,0.892,-2.382,1.725,-1.298
0.020,-0.010,-0.107,0.900,-2.214,1.817,-1.389
0.020,-0.013,-0.099,0.902,-2.214,1.954,-1.206
0.020,-0.020,-0.107,0.898,-2.290,1.679,-1.405
0.030,-0.022,-0.111,0.907,-2.153,1.588,-1.115
0.030,-0.029,-0.113,0.910,-2.076,1.115,-0.901
0.030,-0.025,-0.112,0.912,-1.863,1.115,-0.885
0.040,-0.027,-0.109,0.908,-1.557,0.779,-0.702
0.040,-0.030,-0.115,0.906,-1.145,0.809,-0.763
0.040,-0.026,-0.110,0.909,-0.870,0.733,-0.504
0.050,-0.031,-0.112,0.907,-0.351,0.214,-0.336
0.050,-0.039,-0.108,0.895,-0.656,-0.702,-0.107
0.060,-0.036,-0.106,0.880,-0.672,-1.634,0.031
0.060,-0.032,-0.102,0.882,-1.252,-2.092,0.015
0.060,-0.024,-0.106,0.874,-1.206,-2.183,0.336
0.070,-0.029,-0.099,0.883,-1.435,-1.405,0.550
0.070,-0.025,-0.095,0.886,-1.374,-1.679,0.763
0.080,-0.022,-0.101,0.891,-1.573,-1.618,0.870
0.080,-0.020,-0.097,0.894,-1.786,-1.328,0.901
0.090,-0.017,-0.102,0.889,-1.634,-1.099,1.237
0.090,-0.013,-0.097,0.899,-1.588,-0.824,1.069
0.090,-0.011,-0.098,0.895,-1.939,-1.145,0.794
0.100,-0.003,-0.104,0.903,-1.618,-1.115,0.397
0.100,-0.007,-0.101,0.896,-1.954,-1.450,0.397
0.110,0.000,-0.100,0.900,-1.664,-1.130,0.290
0.110,0.000,-0.103,0.902,-1.924,-1.053,0.046
0.110,0.006,-0.100,0.902,-1.756,-0.458,0.107
0.120,0.001,-0.106,0.895,-1.679,-0.122,-0.244
0.120,-0.007,-0.108,0.910,-1.679,0.153,-0.641
0.130,-0.006,-0.103,0.901,-1.664,-0.244,-0.794
0.130,-0.019,-0.104,0.898,-1.679,-0.870,-0.962
0.130,-0.019,-0.105,0.888,-1.115,-1.145,-0.687
0.140,-0.022,-0.096,0.883,-1.298,-0.947,-0.626
0.140,-0.022,-0.099,0.878,-1.374,-0.931,-0.458
0.150,-0.027,-0.101,0.886,-0.855,-1.725,-0.122
0.150,-0.028,-0.105,0.877,-0.351,-2.504,0.000
0.150,-0.038,-0.100,0.889,-0.168,-3.908,-0.092
0.160,-0.020,-0.098,0.881,-0.458,-3.771,0.244
0.160,-0.018,-0.099,0.885,-0.916,-3.313,0.351
0.170,-0.014,-0.105,0.877,-1.099,-2.977,0.427
0.170,-0.012,-0.098,0.874,-1.527,-2.641,0.702
0.180,-0.015,-0.102,0.874,-1.878,-2.672,0.534
0.180,0.004,-0.099,0.881,-2.061,-2.260,0.427
0.180,0.005,-0.103,0.871,-2.015,-0.733,0.015
0.190,-0.005,-0.103,0.875,-1.878,-0.366,0.046
0.190,-0.007,-0.099,0.875,-2.183,-0.107,0.244
0.200,-0.005,-0.101,0.873,-2.168,0.031,0.198
0.200,-0.014,-0.104,0.880,-2.046,0.412,0.107
0.200,-0.003,-0.106,0.886,-1.924,0.824,0.076
0.210,-0.001,-0.104,0.893,-1.252,1.527,0.198
0.210,-0.007,-0.107,0.900,-1.099,1.863,0.137
0.220,-0.001,-0.104,0.896,-0.824,2.107,0.137
0.220,-0.003,-0.095,0.881,-0.519,2.305,-0.061
0.220,-0.019,-0.102,0.883,-0.519,1.802,-0.076
0.230,-0.015,-0.101,0.878,-0.733,1.664,0.214
0.230,-0.011,-0.099,0.868,-0.779,1.649,0.244
0.240,-0.015,-0.096,0.874,-0.824,2.076,0.229
0.240,-0.019,-0.099,0.873,-0.611,2.321,0.473
0.240,-0.013,-0.095,0.880,-0.702,2.641,0.489
0.250,-0.009,-0.099,0.876,-1.099,3.267,0.565
0.250,-0.011,-0.099,0.881,-1.115,3.695,0.595
0.260,-0.016,-0.102,0.877,-1.191,3.023,0.626
0.260,-0.004,-0.102,0.891,-1.389,2.198,0.214
0.260,-0.003,-0.096,0.888,-0.977,5.649,-0.137
0.270,0.003,-0.110,0.910,-0.198,13.679,-0.870
0.270,-0.009,-0.102,0.916,-0.137,13.924,0.672
0.280,-0.034,-0.090,0.901,-2.931,4.565,0.718
0.280,-0.035,-0.106,0.884,-2.427,-3.557,-0.107
0.280,-0.006,-0.113,0.923,-0.885,-3.817,-0.580
0.290,0.004,-0.108,0.917,-0.534,-1.038,-0.168
0.290,0.009,-0.097,0.911,0.321,0.351,-0.122
0.300,-0.007,-0.100,0.892,0.076,-0.489,-0.214
0.300,-0.011,-0.098,0.883,-0.427,-1.481,-0.275
0.300,-0.014,-0.094,0.880,-1.267,-1.939,-0.336
0.310,-0.014,-0.101,0.889,-1.435,-1.160,-0.580
0.310,-0.003,-0.101,0.888,-1.466,-0.015,-0.519
0.320,-0.010,-0.100,0.894,-1.420,-0.214,-0.397
0.320,-0.026,-0.102,0.900,-1.756,-1.603,-0.351
0.330,-0.016,-0.104,0.889,-2.092,-2.351,-0.580
0.330,-0.026,-0.103,0.887,-2.168,-3.008,-0.534
0.330,-0.022,-0.107,0.899,-1.786,-3.618,-0.504
0.340,-0.018,-0.102,0.894,-1.466,-3.435,-0.290
0.340,-0.012,-0.104,0.893,-1.481,-2.763,-0.137
0.350,-0.009,-0.098,0.883,-1.542,-1.802,0.046
0.350,-0.002,-0.100,0.888,-1.573,-1.267,-0.107
0.350,-0.004,-0.099,0.877,-1.771,-0.641,0.015
0.360,-0.005,-0.100,0.880,-1.893,0.382,-0.107
0.360,-0.006,-0.099,0.887,-2.244,1.252,0.046
0.370,-0.010,-0.094,0.890,-2.183,1.710,0.076
0.370,-0.012,-0.106,0.889,-1.924,1.695,0.122
0.370,-0.014,-0.106,0.890,-2.076,1.832,0.000
0.380,-0.017,-0.099,0.881,-2.168,1.435,-0.122
0.380,-0.021,-0.103,0.893,-2.046,0.977,-0.366
0.390,-0.014,-0.101,0.897,-2.092,0.931,-0.290
0.390,-0.020,-0.102,0.891,-1.847,0.916,-0.214
0.390,-0.028,-0.106,0.903,-2.031,0.305,0.061
0.400,-0.027,-0.097,0.890,-1.649,-0.412,0.321
0.400,-0.027,-0.095,0.889,-1.557,-0.901,0.458
0.410,-0.031,-0.106,0.881,-1.664,-1.496,0.519
0.410,-0.030,-0.101,0.891,-1.756,-1.863,0.840
0.420,-0.017,-0.107,0.887,-1.679,-1.786,0.916
0.420,-0.013,-0.102,0.889,-1.557,-1.450,0.916
0.420,-0.016,-0.097,0.887,-1.649,-1.420,0.855
0.430,-0.010,-0.100,0.894,-1.710,-1.817,1.069
0.430,-0.010,-0.106,0.890,-1.618,-1.450,0.672
0.440,-0.009,-0.098,0.883,-1.405,-1.542,0.412
0.440,-0.015,-0.103,0.897,-1.420,-1.160,0.443
0.440,-0.009,-0.103,0.893,-1.221,-1.115,0.458
0.450,-0.017,-0.096,0.886,-1.374,-1.099,0.336
0.450,-0.020,-0.098,0.882,-1.557,-2.000,0.000
0.460,-0.012,-0.097,0.878,-1.298,-2.519,0.092
0.460,-0.008,-0.095,0.900,-1.099,-2.061,0.076
0.460,-0.015,-0.101,0.882,-1.099,-1.939,0.076
0.470,-0.016,-0.090,0.895,-1.069,-1.954,0.321
0.470,-0.008,-0.093,0.885,-1.176,-1.542,0.489
0.480,-0.009,-0.094,0.880,-1.405,-0.809,0.733
0.480,-0.008,-0.102,0.891,-1.771,-0.153,0.855
0.480,0.011,-0.102,0.895,-1.847,0.275,0.489
0.490,0.005,-0.098,0.901,-1.878,0.656,0.275
0.490,0.010,-0.105,0.899,-2.076,1.053,-0.031
0.500,-0.001,-0.100,0.900,-1.908,1.023,-0.015
0.500,-0.002,-0.098,0.901,-2.061,1.145,0.000
0.500,0.002,-0.100,0.898,-2.122,1.053,-0.061
0.510,-0.002,-0.102,0.891,-1.756,0.885,-0.107
0.510,-0.003,-0.105,0.881,-0.687,1.435,-0.198
0.520,-0.021,-0.106,0.885,-0.580,0.962,-0.382
0.520,-0.018,-0.110,0.888,-0.672,0.534,-0.260
0.520,-0.029,-0.101,0.896,-0.931,-0.779,0.107
0.530,-0.021,-0.098,0.876,-1.069,-1.298,0.031
0.530,-0.019,-0.100,0.881,-1.191,-1.221,0.153
0.540,-0.029,-0.103,0.875,-1.420,-1.847,0.321
0.540,-0.021,-0.103,0.872,-1.450,-2.046,0.244
0.550,-0.023,-0.100,0.885,-1.344,-2.427,0.336
0.550,-0.013,-0.104,0.886,-1.252,-2.351,0.366
0.550,-0.015,-0.099,0.887,-1.252,-1.389,0.397
0.560,-0.004,-0.106,0.893,-1.237,-0.977,0.550
0.560,-0.007,-0.104,0.894,-1.679,-0.748,0.397
0.570,-0.004,-0.103,0.877,-1.588,-0.702,0.183
0.570,-0.005,-0.104,0.885,-1.878,-0.672,0.244
0.570,-0.007,-0.103,0.898,-1.695,-0.885,0.046
0.580,-0.012,-0.106,0.899,-1.328,-0.336,-0.015
0.580,-0.005,-0.104,0.895,-1.313,-0.107,0.031
0.590,-0.011,-0.099,0.893,-1.298,-0.214,0.198
0.590,-0.010,-0.103,0.899,-1.237,0.000,0.076
0.590,-0.021,-0.105,0.876,-1.099,-0.198,0.153
0.600,-0.025,-0.104,0.875,-1.679,-1.237,0.046
0.600,-0.023,-0.103,0.871,-1.634,-1.924,-0.046
0.610,-0.020,-0.102,0.877,-1.527,-1.542,0.321
0.610,-0.026,-0.098,0.887,-1.542,-1.191,0.550
0.610,-0.017,-0.102,0.892,-1.435,-1.115,0.824
0.620,-0.017,-0.108,0.900,-1.405,-1.313,0.901
0.620,-0.011,-0.096,0.893,-1.588,-1.282,0.794
0.630,-0.007,-0.102,0.900,-1.481,-1.023,0.763
0.630,-0.006,-0.104,0.901,-1.618,-0.855,0.763
0.630,-0.001,-0.105,0.900,-1.420,-0.794,0.595
0.640,0.002,-0.102,0.904,-1.405,-0.458,0.519
0.640,0.005,-0.103,0.906,-1.267,-0.183,0.290
0.650,0.006,-0.104,0.896,-1.038,0.336,0.443
0.650,-0.002,-0.102,0.898,-1.160,0.779,0.229
0.650,-0.005,-0.101,0.893,-1.145,0.031,-0.031
0.660,-0.008,-0.094,0.888,-1.359,-0.870,-0.275
0.660,-0.005,-0.101,0.885,-1.252,-1.145,-0.366
0.670,-0.017,-0.114,0.889,-1.115,-1.053,-0.305
0.670,-0.014,-0.111,0.890,-0.779,-0.626,-0.351
0.680,-0.013,-0.101,0.883,-0.962,-0.702,-0.321
0.680,-0.017,-0.103,0.876,-1.130,-0.901,-0.198
0.680,-0.026,-0.103,0.881,-0.855,-1.023,-0.076
0.690,-0.030,-0.110,0.880,-0.473,-0.855,0.489
0.690,-0.020,-0.094,0.878,-1.145,-0.076,1.130
0.700,-0.021,-0.109,0.887,-1.450,0.275,1.252
0.700,-0.009,-0.102,0.895,-1.863,0.198,1.344
0.700,-0.002,-0.104,0.896,-1.725,0.611,1.221
0.710,0.000,-0.104,0.895,-1.756,1.160,1.160
0.710,-0.006,-0.101,0.898,-1.740,1.115,1.038
0.720,-0.006,-0.107,0.909,-1.664,0.412,0.748
0.720,0.000,-0.107,0.903,-1.374,-0.321,0.427
0.720,0.003,-0.104,0.904,-1.099,-1.008,0.122
0.730,0.005,-0.103,0.915,-0.809,-1.359,-0.198
0.730,-0.008,-0.108,0.903,0.031,-1.725,-0.168
0.740,-0.012,-0.108,0.897,0.366,-1.771,0.000
0.740,-0.015,-0.102,0.894,0.794,-2.336,-0.015
0.740,-0.010,-0.102,0.889,0.427,-2.641,0.214
0.750,-0.006,-0.102,0.895,1.023,-2.137,0.031
0.750,-0.007,-0.091,0.885,0.748,-1.817,0.168
0.760,-0.009,-0.097,0.900,0.382,-1.740,0.198
0.760,-0.003,-0.091,0.885,-0.137,-1.725,0.321
0.760,0.000,-0.095,0.874,-0.122,-1.374,0.244
0.770,-0.000,-0.093,0.883,-0.580,-1.115,0.305
0.770,-0.002,-0.091,0.885,-0.824,-0.641,0.489
0.780,-0.008,-0.098,0.895,-0.641,-0.397,0.611
0.780,-0.004,-0.099,0.895,-0.611,0.214,0.748
0.780,0.003,-0.103,0.890,-0.305,1.069,0.840
0.790,0.007,-0.096,0.890,-0.336,2.046,0.763
0.790,-0.001,-0.099,0.897,-0.366,2.550,0.779
0.800,0.002,-0.106,0.886,-0.412,2.290,0.565
0.800,-0.006,-0.101,0.891,-0.275,1.176,0.351
0.800,-0.017,-0.102,0.898,-0.061,-0.580,0.229
0.810,-0.010,-0.101,0.890,-0.260,-1.435,0.137
0.810,-0.014,-0.103,0.889,-0.260,-1.573,0.198
0.820,-0.008,-0.093,0.889,-0.244,-1.786,0.122
0.820,-0.010,-0.098,0.879,-0.137,-2.046,0.275
0.820,-0.013,-0.102,0.880,-0.641,-2.534,0.229
0.830,-0.006,-0.100,0.890,-0.534,-2.595,0.198
0.830,-0.006,-0.098,0.882,-0.687,-1.695,0.290
0.840,-0.002,-0.096,0.876,-0.611,-1.115,0.412
0.840,0.002,-0.093,0.886,-0.718,-0.412,0.397
0.850,0.000,-0.092,0.879,-0.947,-0.351,0.107
0.850,0.006,-0.098,0.885,-1.038,-0.076,-0.061
0.850,0.012,-0.094,0.888,-1.206,0.702,-0.443
0.860,0.013,-0.095,0.884,-1.740,1.298,-0.489
0.860,0.007,-0.088,0.890,-2.244,2.122,-0.595
0.870,0.003,-0.092,0.890,-2.305,2.382,-0.489
0.870,0.003,-0.098,0.885,-2.244,3.267,-0.489
0.870,0.002,-0.098,0.888,-2.229,3.847,-0.214
0.880,-0.010,-0.103,0.894,-2.031,3.496,-0.382
0.880,-0.011,-0.094,0.897,-1.740,2.672,-0.519
0.890,-0.012,-0.101,0.894,-1.496,1.588,-0.321
0.890,-0.012,-0.107,0.891,-1.023,0.397,-0.779
0.890,-0.014,-0.098,0.896,-1.176,-0.198,-0.824
0.900,-0.014,-0.102,0.892,-1.053,-0.397,-0.733
0.900,-0.014,-0.095,0.894,-0.611,-0.809,-0.443
0.910,-0.019,-0.098,0.896,-0.763,-1.557,-0.168
0.910,-0.010,-0.100,0.895,-0.580,-2.244,-0.412
0.910,-0.004,-0.100,0.893,-0.412,-1.817,-0.382
0.920,0.000,-0.092,0.889,-0.397,-1.786,-0.336
0.920,-0.002,-0.101,0.890,-0.809,-1.435,-0.427
0.930,0.000,-0.099,0.900,-0.687,-0.916,-0.427
0.930,-0.003,-0.098,0.907,-0.519,-0.366,-0.260
0.930,-0.007,-0.104,0.908,-0.443,-0.504,-0.351
0.940,-0.010,-0.105,0.906,-0.260,-0.489,-0.260
0.940,-0.004,-0.111,0.918,0.015,-0.168,-0.137
0.950,-0.004,-0.101,0.912,0.321,0.763,-0.351
0.950,-0.009,-0.107,0.903,0.641,1.450,-0.122
0.960,-0.016,-0.103,0.904,0.473,1.511,0.076
0.960,-0.019,-0.100,0.900,0.351,1.634,-0.061
0.960,-0.009,-0.096,0.900,0.550,2.565,0.092
0.970,-0.013,-0.094,0.889,0.580,3.374,0.336
0.970,-0.019,-0.097,0.886,0.412,4.229,0.550
0.970,-0.013,-0.097,0.887,0.489,4.870,0.885
0.980,-0.013,-0.090,0.876,0.183,4.885,0.931
0.980,-0.013,-0.097,0.894,-0.061,4.504,1.160
0.990,-0.006,-0.096,0.899,0.137,5.099,0.885
0.990,-0.001,-0.104,0.916,0.504,5.099,0.840
0.990,0.002,-0.103,0.916,0.885,5.053,0.656
1.000,0.000,-0.102,0.914,0.916,4.290,0.519
1.000,0.006,-0.100,0.918,1.527,3.725,0.061
1.010,0.015,-0.106,0.917,1.924,2.809,-0.443
1.010,0.002,-0.109,0.921,2.412,1.863,-0.718
1.010,0.000,-0.099,0.908,2.824,1.679,-0.870
1.020,-0.002,-0.101,0.899,3.023,2.473,-0.885
1.020,-0.005,-0.097,0.891,3.130,3.053,-0.702
1.030,-0.012,-0.098,0.891,3.221,2.702,-0.641
1.030,-0.013,-0.096,0.877,2.718,2.046,-0.901
1.030,-0.012,-0.093,0.893,2.626,1.527,-1.023
1.040,-0.014,-0.100,0.890,2.763,0.794,-1.099
1.040,-0.007,-0.101,0.903,2.733,-0.046,-1.160
1.050,-0.017,-0.098,0.901,2.641,-0.504,-1.084
1.050,-0.021,-0.102,0.896,3.267,-0.519,-1.053
1.050,-0.025,-0.100,0.890,2.824,-0.046,-0.916
1.060,-0.031,-0.102,0.893,2.916,-0.198,-0.687
1.060,-0.027,-0.100,0.891,2.595,-0.366,-0.473
1.070,-0.025,-0.086,0.884,2.351,-0.321,-0.137
1.070,-0.027,-0.097,0.885,2.702,0.092,-0.153
1.070,-0.031,-0.087,0.887,2.626,0.336,0.000
1.080,-0.026,-0.086,0.883,2.794,0.427,0.244
1.080,-0.023,-0.087,0.877,2.595,0.626,0.641
1.090,-0.030,-0.088,0.883,2.321,1.069,1.160
1.090,-0.029,-0.082,0.871,2.260,1.527,1.527
1.090,-0.026,-0.078,0.871,2.061,1.481,1.908
1.100,-0.023,-0.079,0.877,1.664,1.450,1.695
1.100,-0.013,-0.077,0.871,1.252,1.420,1.679
1.110,-0.004,-0.079,0.879,0.870,1.802,1.496
1.110,0.011,-0.074,0.893,0.534,2.366,1.099
1.110,0.010,-0.074,0.902,0.794,2.809,0.748
1.120,0.014,-0.078,0.905,0.763,3.496,0.336
1.120,0.008,-0.076,0.902,0.580,3.634,0.168
1.120,0.005,-0.085,0.911,0.840,2.702,-0.336
1.130,0.006,-0.082,0.903,1.374,1.618,-0.702
1.130,0.002,-0.080,0.913,1.740,0.763,-0.977
1.140,-0.010,-0.081,0.907,2.015,0.061,-1.160
1.140,-0.014,-0.080,0.912,2.015,-0.855,-1.069
1.140,-0.012,-0.086,0.910,2.275,-1.725,-1.145
1.150,-0.013,-0.087,0.901,2.107,-2.809,-1.145
1.150,-0.015,-0.093,0.930,2.229,-3.588,-1.344
1.160,-0.017,-0.098,0.934,2.947,-3.069,-1.496
1.160,-0.021,-0.096,0.933,3.863,-2.718,-1.252
1.160,-0.026,-0.091,0.926,4.290,-2.412,-0.947
1.170,-0.034,-0.090,0.903,4.489,-1.618,-0.412
1.170,-0.035,-0.089,0.914,4.519,-0.794,0.092
1.180,-0.031,-0.087,0.908,4.550,0.443,0.580
1.180,-0.033,-0.087,0.896,4.275,1.405,0.885
1.180,-0.031,-0.083,0.889,3.893,1.664,1.267
1.190,-0.041,-0.089,0.886,3.435,1.328,1.282
1.190,-0.031,-0.078,0.879,3.099,0.947,1.374
1.200,-0.026,-0.077,0.891,2.595,0.779,1.344
1.200,-0.026,-0.073,0.894,2.351,1.053,1.863
1.200,-0.020,-0.081,0.895,2.321,1.618,2.031
1.210,-0.030,-0.073,0.901,2.137,1.252,2.107
1.210,-0.024,-0.073,0.904,2.382,0.427,2.092
1.220,-0.016,-0.070,0.905,2.336,-0.489,1.740
1.220,0.001,-0.071,0.920,2.611,-0.840,1.664
1.220,0.007,-0.083,0.919,3.313,-0.275,1.359
1.230,0.009,-0.077,0.935,4.183,0.061,1.130
1.230,0.002,-0.078,0.928,4.855,0.244,0.855
1.240,0.001,-0.085,0.941,5.252,-0.076,0.779
1.240,-0.000,-0.075,0.938,5.786,-0.611,0.748
1.240,0.007,-0.076,0.927,6.397,-0.763,0.321
1.250,0.004,-0.074,0.929,6.489,-1.206,0.183
1.250,-0.003,-0.081,0.945,6.092,-2.076,-0.290
1.260,-0.002,-0.083,0.940,5.863,-2.580,-0.397
1.260,-0.000,-0.086,0.965,6.489,-2.534,-0.855
1.260,-0.007,-0.094,0.981,7.176,-2.244,-0.840
1.270,-0.009,-0.097,0.988,8.107,-1.618,-0.672
1.270,-0.018,-0.098,0.997,8.901,-1.359,-0.397
1.280,-0.024,-0.103,0.994,9.847,-1.313,-0.565
1.280,-0.032,-0.104,0.998,10.534,-0.794,-0.336
1.280,-0.038,-0.105,1.009,12.153,-0.214,0.336
1.290,-0.051,-0.102,1.031,13.145,0.504,1.160
1.290,-0.049,-0.104,1.032,14.183,0.855,2.153
1.300,-0.034,-0.103,1.058,15.191,1.847,3.206
1.300,-0.024,-0.100,1.067,16.427,3.695,3.985
1.300,-0.006,-0.091,1.081,17.969,5.985,4.733
1.310,0.018,-0.083,1.083,19.191,9.023,5.511
1.310,0.052,-0.080,1.106,20.290,12.229,5.282
1.320,0.084,-0.071,1.130,21.527,16.260,5.145
1.320,0.100,-0.077,1.135,22.840,19.542,4.412
1.320,0.113,-0.077,1.147,24.336,22.366,3.115
1.330,0.107,-0.080,1.162,26.504,23.771,1.664
1.330,0.096,-0.094,1.196,28.260,23.817,0.214
1.340,0.069,-0.098,1.198,30.168,23.160,-0.702
1.340,0.039,-0.110,1.211,32.580,22.031,-1.634
1.340,0.000,-0.125,1.230,35.481,20.947,-2.198
1.350,-0.041,-0.130,1.240,38.962,18.672,-2.015
1.350,-0.083,-0.146,1.262,42.489,15.588,-1.389
1.360,-0.107,-0.147,1.273,47.008,13.267,-0.198
1.360,-0.122,-0.155,1.287,51.496,12.076,1.023
1.360,-0.138,-0.158,1.272,55.817,11.023,2.229
1.370,-0.201,-0.177,1.308,60.153,7.985,3.954
1.370,-0.189,-0.165,1.284,64.947,7.344,6.336
1.380,-0.180,-0.167,1.297,68.931,7.435,7.664
1.380,-0.179,-0.158,1.289,72.580,7.557,9.298
1.380,-0.196,-0.153,1.276,76.885,6.824,10.855
1.390,-0.209,-0.149,1.276,79.649,4.214,12.489
1.390,-0.192,-0.143,1.279,82.000,2.824,13.924
1.400,-0.192,-0.144,1.269,85.130,2.137,15.695
1.400,-0.193,-0.135,1.289,87.969,0.595,17.634
1.410,-0.184,-0.133,1.286,91.160,-1.695,19.115
1.410,-0.165,-0.124,1.295,94.244,-2.794,20.198
1.410,-0.141,-0.117,1.295,96.305,-3.206,21.252
1.420,-0.123,-0.110,1.311,100.718,-2.458,22.168
1.420,-0.107,-0.116,1.320,104.733,-1.542,22.840
1.430,-0.075,-0.101,1.312,108.687,0.748,23.084
1.430,-0.055,-0.097,1.319,112.534,2.260,22.733
1.430,-0.049,-0.090,1.299,116.321,3.649,22.702
1.440,-0.055,-0.081,1.299,120.046,4.992,23.084
1.440,-0.055,-0.079,1.283,123.771,6.840,23.267
1.450,-0.039,-0.071,1.275,127.206,8.962,23.573
1.450,-0.054,-0.059,1.259,130.779,10.244,23.939
1.460,-0.066,-0.065,1.250,134.076,10.565,24.290
1.460,-0.077,-0.050,1.236,137.359,10.519,24.870
1.460,-0.078,-0.040,1.209,140.290,10.977,25.740
1.470,-0.077,-0.022,1.179,142.458,11.328,26.397
1.470,-0.074,-0.010,1.163,143.756,11.802,27.221
1.480,-0.069,0.010,1.124,144.519,12.565,28.382
1.480,-0.071,0.021,1.109,145.069,13.069,29.038
1.480,-0.056,0.036,1.099,145.389,14.260,29.771
1.490,-0.038,0.035,1.094,145.740,15.939,30.519
1.490,-0.024,0.048,1.092,146.244,17.573,30.992
1.500,-0.019,0.052,1.081,146.901,18.473,31.038
1.500,-0.017,0.068,1.066,147.588,19.878,31.344
1.510,-0.003,0.067,1.061,148.809,23.985,31.924
1.510,0.007,0.070,1.076,150.519,31.847,33.160
1.510,0.016,0.084,1.077,152.397,40.290,34.244
1.520,-0.005,0.078,1.081,152.885,44.519,35.863
1.520,-0.044,0.080,1.074,154.870,46.366,38.672
1.530,-0.052,0.080,1.078,157.740,49.267,41.847
1.530,-0.049,0.079,1.084,160.733,53.069,44.916
1.530,-0.058,0.090,1.073,162.901,57.389,47.954
1.540,-0.026,0.095,1.104,164.198,79.450,47.298
1.540,0.032,0.113,1.002,168.198,92.626,52.427
1.550,-0.050,0.128,1.077,167.160,84.122,54.809
1.550,-0.142,0.133,1.000,169.298,61.252,55.557
1.560,-0.156,0.134,0.990,171.802,40.534,54.870
1.560,-0.094,0.173,0.977,172.382,30.779,54.305
1.560,-0.065,0.189,0.954,172.534,27.252,53.435
1.570,-0.073,0.207,0.911,172.763,20.885,52.534
1.570,-0.078,0.220,0.875,173.557,12.305,51.664
1.580,-0.066,0.259,0.838,172.931,3.008,50.244
1.580,-0.078,0.245,0.830,172.656,-7.084,48.015
1.580,-0.066,0.273,0.838,170.336,-10.840,46.656
1.590,-0.058,0.294,0.793,169.481,-11.298,44.702
1.590,-0.066,0.283,0.816,169.557,-16.260,42.580
1.600,-0.070,0.300,0.827,169.588,-21.664,40.947
1.600,-0.055,0.301,0.813,168.809,-21.069,40.076
1.610,-0.033,0.315,0.799,168.656,-16.046,39.405
1.610,-0.010,0.313,0.795,169.298,-8.504,38.702
1.610,-0.017,0.315,0.799,170.519,-3.282,38.214
1.620,-0.042,0.322,0.797,170.702,-2.031,37.679
1.620,-0.052,0.330,0.779,170.260,-0.809,37.664
1.630,-0.048,0.335,0.765,170.351,1.191,37.939
1.630,-0.051,0.346,0.761,170.794,2.992,38.137
1.630,-0.051,0.346,0.749,170.824,4.550,38.336
1.640,-0.041,0.354,0.721,170.977,6.122,38.244
1.640,-0.045,0.368,0.715,171.237,6.595,38.229
1.650,-0.069,0.369,0.698,171.542,5.328,38.397
1.650,-0.079,0.373,0.685,172.214,2.885,38.763
1.660,-0.080,0.379,0.676,172.321,0.595,39.084
1.660,-0.083,0.385,0.657,172.015,-0.565,39.237
1.660,-0.078,0.407,0.634,171.756,-1.328,39.206
1.670,-0.079,0.406,0.614,171.771,-2.977,39.267
1.670,-0.053,0.414,0.599,171.344,-3.664,38.733
1.680,-0.033,0.427,0.595,170.901,-3.710,38.412
1.680,-0.034,0.436,0.563,170.153,-3.832,37.252
1.680,-0.032,0.445,0.542,168.977,-4.244,36.687
1.690,-0.039,0.460,0.517,167.771,-4.076,36.336
1.690,-0.033,0.475,0.501,166.534,-3.435,36.214
1.700,-0.048,0.474,0.482,165.405,-2.672,36.214
1.700,-0.059,0.470,0.479,165.267,-3.130,36.336
1.710,-0.064,0.479,0.478,165.527,-4.626,36.397
1.710,-0.046,0.485,0.463,165.130,-5.206,36.336
1.710,-0.053,0.489,0.449,164.931,-5.939,36.427
1.720,-0.046,0.493,0.434,164.809,-6.870,36.748
1.720,-0.046,0.499,0.424,164.687,-7.695,37.359
1.730,-0.018,0.512,0.401,164.489,-6.763,37.985
1.730,-0.013,0.515,0.381,164.351,-5.405,38.473
1.730,-0.017,0.523,0.371,163.878,-4.382,38.947
1.740,-0.011,0.520,0.361,163.145,-2.611,39.206
1.740,-0.000,0.529,0.357,162.748,-1.023,39.313
1.750,0.010,0.534,0.345,162.733,-0.534,39.221
1.750,0.018,0.541,0.339,162.626,-0.382,38.855
1.760,0.016,0.547,0.319,162.260,-0.824,38.534
1.760,0.023,0.555,0.294,162.153,-1.771,37.863
1.760,0.017,0.561,0.277,161.847,-3.969,37.405
1.770,0.009,0.570,0.243,161.618,-6.748,36.870
1.770,0.006,0.580,0.225,160.672,-10.458,36.473
1.780,0.004,0.576,0.219,159.771,-13.817,35.969
1.780,0.021,0.586,0.228,159.176,-15.695,36.626
1.780,0.040,0.591,0.195,158.626,-15.282,36.336
1.790,0.064,0.608,0.173,157.588,-13.802,36.611
1.790,0.077,0.608,0.150,156.183,-11.649,35.603
1.800,0.090,0.616,0.134,155.084,-9.511,35.313
1.800,0.103,0.624,0.115,154.092,-5.588,34.794
1.800,0.107,0.623,0.112,152.015,-0.412,35.099
1.810,0.101,0.635,0.119,150.580,5.374,36.305
1.810,0.106,0.608,0.144,149.893,11.282,37.145
1.820,0.096,0.614,0.152,149.389,17.817,38.565
1.820,0.097,0.601,0.168,148.702,26.687,41.038
1.820,0.096,0.597,0.174,148.198,36.901,43.878
1.830,0.096,0.580,0.203,148.229,46.321,48.916
1.830,0.079,0.586,0.187,146.977,59.817,53.618
1.840,0.080,0.607,0.155,144.168,69.557,60.412
1.840,0.057,0.573,0.183,148.870,74.885,64.824
1.850,0.094,0.577,0.175,153.771,79.099,67.618
1.850,0.111,0.596,0.104,155.252,83.145,69.603
1.850,0.129,0.619,0.032,152.183,84.824,69.893
1.860,0.115,0.642,0.036,151.878,80.794,70.779
1.860,0.131,0.624,0.043,154.290,75.344,69.435
1.870,0.171,0.656,0.008,150.916,76.595,69.206
1.870,0.149,0.664,-0.067,150.901,70.260,66.870
1.870,0.130,0.671,-0.071,152.992,56.366,64.107
1.880,0.150,0.680,-0.098,153.527,43.053,60.748
1.880,0.186,0.711,-0.135,151.618,36.351,57.298
1.890,0.191,0.724,-0.160,148.641,32.015,52.672
1.890,0.233,0.741,-0.210,142.733,32.321,51.496
1.890,0.173,0.756,-0.202,139.893,24.382,48.168
1.900,0.148,0.736,-0.209,142.168,12.748,45.710
1.900,0.127,0.741,-0.211,141.557,2.137,44.626
1.910,0.160,0.766,-0.222,138.931,-1.206,43.389
1.910,0.193,0.762,-0.233,137.786,-0.656,41.115
1.920,0.187,0.781,-0.281,138.580,-10.901,38.046
1.920,0.172,0.758,-0.264,133.038,-11.756,37.802
1.920,0.197,0.780,-0.261,128.015,-3.466,40.702
1.930,0.176,0.758,-0.227,130.840,1.832,41.740
1.930,0.198,0.748,-0.221,130.641,5.878,41.084
1.940,0.206,0.784,-0.246,125.786,4.473,41.115
1.940,0.204,0.801,-0.283,121.588,3.756,39.710
1.940,0.227,0.793,-0.294,117.466,4.473,38.748
1.950,0.198,0.790,-0.284,114.626,1.603,37.389
1.950,0.220,0.794,-0.283,112.229,1.588,36.443
1.960,0.228,0.786,-0.298,110.427,3.160,34.366
1.960,0.257,0.813,-0.327,107.542,6.870,34.626
1.960,0.180,0.800,-0.264,108.336,0.733,33.786
1.970,0.198,0.786,-0.266,110.779,-1.069,32.855
1.970,0.221,0.793,-0.299,111.405,-0.198,32.168
1.980,0.214,0.806,-0.325,111.496,-1.206,30.870
1.980,0.209,0.808,-0.321,111.664,-4.565,29.817
1.990,0.205,0.808,-0.352,110.977,-7.466,28.046
1.990,0.197,0.836,-0.379,107.618,-10.901,26.718
1.990,0.183,0.844,-0.367,105.282,-15.069,25.450
2.000,0.197,0.852,-0.390,102.916,-15.710,25.069
2.000,0.186,0.863,-0.397,100.351,-14.916,23.969
2.010,0.184,0.864,-0.420,97.863,-15.695,23.802
2.010,0.185,0.866,-0.444,94.534,-16.672,23.435
2.020,0.174,0.881,-0.465,89.802,-18.748,22.916
2.020,0.150,0.885,-0.479,84.504,-25.435,23.053
2.020,0.146,0.895,-0.460,79.115,-33.435,22.351
2.030,0.180,0.883,-0.441,77.496,-34.153,21.237
2.030,0.206,0.860,-0.393,76.931,-31.634,20.641
2.040,0.200,0.853,-0.380,76.183,-30.687,20.336
2.040,0.173,0.841,-0.394,76.763,-29.313,20.366
2.040,0.162,0.832,-0.399,77.313,-28.656,20.748
2.050,0.177,0.829,-0.397,77.893,-28.061,20.794
2.050,0.189,0.812,-0.388,78.702,-27.389,20.489
2.060,0.193,0.802,-0.379,79.511,-28.122,19.832
2.060,0.198,0.816,-0.374,80.458,-27.679,19.603
2.070,0.199,0.810,-0.381,81.588,-26.015,19.237
2.070,0.209,0.803,-0.368,82.122,-24.305,18.748
2.070,0.210,0.804,-0.368,83.252,-23.008,18.412
2.080,0.227,0.810,-0.392,84.244,-20.290,18.046
2.080,0.239,0.807,-0.436,83.588,-14.534,17.313
2.090,0.220,0.828,-0.462,82.214,-12.290,16.489
2.090,0.212,0.826,-0.435,83.603,-12.336,16.046
2.090,0.230,0.840,-0.471,82.794,-8.947,15.985
2.100,0.230,0.854,-0.525,80.611,-1.817,15.847
2.100,0.202,0.855,-0.540,78.947,1.496,16.015
2.110,0.179,0.847,-0.534,77.282,1.954,16.198
2.110,0.182,0.847,-0.555,75.802,3.817,16.550
2.110,0.197,0.865,-0.588,72.763,9.664,16.473
2.120,0.175,0.868,-0.600,68.427,11.115,16.443
2.120,0.142,0.849,-0.608,66.992,10.290,16.733
2.130,0.153,0.862,-0.583,62.870,9.267,18.321
2.130,0.161,0.849,-0.586,61.985,6.550,18.779
2.130,0.094,0.827,-0.572,59.023,-6.336,17.511
2.140,0.146,0.857,-0.593,55.908,-8.656,16.427
2.140,0.204,0.840,-0.584,54.962,-1.374,16.336
2.150,0.148,0.824,-0.530,56.076,-3.176,17.145
2.150,0.124,0.820,-0.504,56.870,-10.504,16.824
2.150,0.137,0.821,-0.540,57.618,-15.695,16.779
2.160,0.135,0.825,-0.566,57.771,-20.321,17.282
2.160,0.086,0.832,-0.600,54.962,-30.733,16.718
2.170,0.114,0.849,-0.598,52.977,-32.718,16.901
2.170,0.194,0.810,-0.613,55.237,-24.046,17.756
2.180,0.162,0.823,-0.582,57.985,-24.321,18.748
2.180,0.132,0.810,-0.558,60.137,-28.519,19.069
2.180,0.155,0.811,-0.590,61.176,-30.504,18.947
2.190,0.177,0.813,-0.613,61.084,-30.244,18.916
2.190,0.195,0.816,-0.614,60.550,-28.992,18.901
2.200,0.204,0.817,-0.614,60.260,-27.435,18.489
2.200,0.219,0.817,-0.631,59.679,-25.771,18.779
2.200,0.237,0.815,-0.634,59.374,-24.122,18.962
2.210,0.260,0.820,-0.656,57.420,-20.504,18.366
2.210,0.231,0.826,-0.663,55.832,-22.672,18.977
2.220,0.183,0.827,-0.686,50.824,-32.687,17.374
2.220,0.205,0.819,-0.694,46.641,-34.687,18.351
2.230,0.257,0.803,-0.690,45.176,-30.641,18.290
2.230,0.275,0.823,-0.672,44.748,-30.244,17.603
2.230,0.310,0.834,-0.689,42.733,-25.649,16.427
2.240,0.275,0.824,-0.654,43.237,-25.710,17.084
2.240,0.289,0.812,-0.679,42.794,-23.939,17.206
2.250,0.291,0.838,-0.698,40.641,-22.656,17.542
2.250,0.343,0.818,-0.718,40.336,-20.275,16.779
2.250,0.334,0.841,-0.707,40.595,-21.084,15.695
2.260,0.354,0.819,-0.708,40.977,-20.565,14.168
2.260,0.379,0.843,-0.732,41.038,-17.664,12.061
2.270,0.387,0.855,-0.726,39.664,-15.557,10.947
2.270,0.393,0.854,-0.721,40.702,-13.985,8.809
2.280,0.407,0.849,-0.735,42.489,-11.573,6.870
2.280,0.418,0.873,-0.757,42.000,-6.901,4.947
2.280,0.386,0.857,-0.773,44.779,-7.130,1.908
2.290,0.412,0.874,-0.779,46.611,-5.603,-0.092
2.290,0.410,0.890,-0.805,46.641,-2.763,-2.550
2.300,0.397,0.909,-0.860,44.916,-0.183,-4.443
2.300,0.374,0.906,-0.878,41.603,1.542,-5.099
2.300,0.336,0.923,-0.910,36.687,1.817,-5.618
2.310,0.329,0.921,-0.917,32.031,2.641,-6.153
2.310,0.313,0.934,-0.904,26.809,1.969,-6.550
2.320,0.308,0.914,-0.893,22.458,2.061,-6.656
2.320,0.313,0.912,-0.895,17.969,4.611,-6.855
2.320,0.300,0.912,-0.879,12.916,6.092,-6.672
2.330,0.280,0.891,-0.865,8.947,5.710,-7.008
2.330,0.279,0.891,-0.863,5.527,5.115,-7.069
2.340,0.261,0.883,-0.847,2.092,5.008,-6.931
2.340,0.249,0.886,-0.830,-1.450,3.802,-6.672
2.340,0.237,0.886,-0.812,-4.702,1.313,-6.305
2.350,0.230,0.887,-0.805,-7.252,-1.160,-5.649
2.350,0.234,0.872,-0.778,-9.221,-2.733,-5.450
2.360,0.230,0.866,-0.764,-10.641,-4.397,-5.023
2.360,0.229,0.862,-0.750,-12.275,-5.924,-4.992
2.360,0.231,0.870,-0.744,-14.214,-6.397,-4.794
2.370,0.230,0.865,-0.722,-15.359,-6.290,-4.580
2.370,0.219,0.857,-0.701,-16.168,-6.565,-4.183
2.380,0.216,0.857,-0.688,-16.794,-7.191,-3.756
2.380,0.210,0.852,-0.675,-17.328,-7.618,-3.450
2.380,0.215,0.846,-0.655,-17.450,-7.618,-3.282
2.390,0.214,0.846,-0.644,-17.618,-7.252,-2.931
2.390,0.211,0.847,-0.629,-18.168,-8.214,-2.885
2.400,0.217,0.846,-0.610,-18.595,-8.763,-2.611
2.400,0.220,0.848,-0.595,-18.947,-8.260,-2.443
2.410,0.232,0.847,-0.583,-18.885,-7.511,-2.427
2.410,0.241,0.850,-0.576,-18.473,-6.947,-2.504
2.410,0.240,0.850,-0.581,-18.214,-6.366,-2.855
2.420,0.246,0.859,-0.583,-18.092,-4.473,-3.252
2.420,0.245,0.860,-0.586,-18.153,-2.321,-3.359
2.430,0.246,0.865,-0.598,-18.565,-0.458,-3.725
2.430,0.237,0.870,-0.610,-18.473,0.992,-4.122
2.430,0.228,0.870,-0.612,-18.748,1.634,-4.000
2.440,0.222,0.871,-0.617,-19.282,2.107,-4.107
2.440,0.224,0.868,-0.627,-19.985,3.191,-4.244
2.450,0.224,0.870,-0.615,-20.718,4.290,-4.107
2.450,0.225,0.860,-0.624,-20.931,4.641,-4.382
2.460,0.220,0.860,-0.610,-21.053,3.115,-4.855
2.460,0.222,0.859,-0.615,-21.389,1.573,-5.053
2.460,0.242,0.854,-0.607,-21.695,1.405,-5.420
2.470,0.248,0.845,-0.620,-21.389,1.847,-5.573
2.470,0.247,0.846,-0.625,-21.008,2.412,-6.015
2.480,0.258,0.856,-0.652,-20.641,2.794,-6.290
2.480,0.265,0.856,-0.666,-21.176,2.824,-6.794
2.480,0.267,0.859,-0.693,-21.420,3.389,-7.435
2.490,0.274,0.858,-0.697,-22.168,3.710,-8.046
2.490,0.268,0.861,-0.724,-23.008,4.519,-8.611
2.500,0.271,0.874,-0.728,-24.397,5.435,-9.008
2.500,0.269,0.881,-0.746,-26.382,6.076,-8.962
2.500,0.270,0.888,-0.770,-29.084,6.443,-9.664
2.510,0.277,0.891,-0.771,-31.740,6.855,-10.244
2.510,0.287,0.891,-0.780,-34.748,6.412,-10.901
2.520,0.289,0.892,-0.775,-38.382,5.756,-11.740
2.520,0.284,0.884,-0.774,-41.053,4.779,-12.916
2.520,0.293,0.882,-0.764,-44.061,4.046,-13.695
2.530,0.296,0.874,-0.757,-46.870,3.481,-14.794
2.530,0.295,0.869,-0.752,-49.237,2.641,-16.137
2.540,0.300,0.871,-0.741,-51.084,2.656,-17.145
2.540,0.298,0.877,-0.749,-53.618,2.931,-18.351
2.550,0.293,0.873,-0.734,-55.924,3.145,-19.359
2.550,0.282,0.878,-0.730,-58.046,3.221,-20.443
2.550,0.281,0.872,-0.715,-60.137,3.267,-21.359
2.560,0.269,0.871,-0.714,-62.168,3.298,-22.076
2.560,0.266,0.872,-0.697,-64.397,3.160,-23.282
2.570,0.254,0.864,-0.685,-66.061,3.084,-24.275
2.570,0.245,0.860,-0.677,-67.740,4.656,-24.824
2.570,0.241,0.857,-0.664,-69.405,6.824,-25.359
2.580,0.232,0.856,-0.666,-70.672,7.313,-26.015
2.580,0.226,0.854,-0.654,-71.985,8.061,-26.427
2.590,0.218,0.855,-0.656,-73.221,8.947,-27.237
2.590,0.210,0.853,-0.655,-74.412,9.206,-27.725
2.600,0.200,0.857,-0.660,-75.634,9.542,-28.214
2.600,0.193,0.863,-0.679,-77.160,9.954,-28.595
2.600,0.179,0.859,-0.695,-79.160,10.107,-28.672
2.610,0.162,0.857,-0.697,-82.015,9.115,-28.794
2.610,0.154,0.853,-0.691,-84.244,7.344,-29.389
2.620,0.147,0.856,-0.692,-86.412,6.733,-29.466
2.620,0.139,0.865,-0.704,-88.794,5.389,-29.282
2.630,0.130,0.865,-0.720,-92.183,3.786,-29.115
2.630,0.132,0.872,-0.729,-95.557,2.321,-29.176
2.630,0.132,0.881,-0.741,-99.389,-0.015,-29.053
2.640,0.132,0.868,-0.742,-102.977,-1.863,-29.115
2.640,0.134,0.865,-0.736,-106.534,-3.481,-29.023
2.650,0.135,0.867,-0.725,-110.214,-5.221,-28.901
2.650,0.135,0.859,-0.713,-114.198,-6.947,-28.534
2.660,0.144,0.860,-0.718,-117.847,-8.107,-28.275
2.660,0.141,0.853,-0.704,-121.328,-8.702,-27.924
2.660,0.144,0.847,-0.686,-124.412,-8.626,-27.511
2.670,0.152,0.836,-0.670,-127.267,-8.198,-27.344
2.670,0.161,0.843,-0.667,-129.969,-7.832,-27.374
2.680,0.169,0.835,-0.651,-133.221,-7.069,-27.466
2.680,0.217,0.838,-0.648,-136.672,-2.702,-27.817
2.690,0.229,0.826,-0.640,-138.702,4.076,-28.489
2.690,0.183,0.833,-0.630,-142.443,3.099,-29.466
2.690,0.177,0.819,-0.612,-145.725,1.084,-31.282
2.700,0.202,0.818,-0.609,-148.641,3.038,-32.153
2.700,0.213,0.815,-0.576,-151.679,6.427,-33.603
2.710,0.199,0.806,-0.575,-154.489,8.534,-34.290
2.710,0.179,0.800,-0.570,-158.229,10.183,-34.870
2.720,0.158,0.805,-0.559,-162.137,9.542,-35.023
2.720,0.138,0.802,-0.543,-165.588,6.351,-34.916
2.720,0.135,0.797,-0.517,-168.870,3.237,-34.962
2.730,0.128,0.796,-0.513,-172.840,-0.092,-35.023
2.730,0.129,0.791,-0.504,-176.763,-3.634,-35.557
2.740,0.123,0.791,-0.481,-180.626,-7.710,-35.389
2.740,0.118,0.784,-0.478,-184.214,-12.763,-35.359
2.750,0.115,0.780,-0.445,-188.443,-18.229,-35.389
2.750,0.125,0.772,-0.439,-192.244,-22.672,-35.282
2.750,0.139,0.761,-0.417,-195.359,-26.351,-35.267
2.760,0.142,0.754,-0.410,-198.565,-28.473,-35.206
2.760,0.144,0.746,-0.383,-201.145,-30.931,-35.053
2.770,0.143,0.729,-0.365,-203.771,-32.748,-34.718
2.770,0.156,0.717,-0.331,-205.939,-32.000,-34.214
2.780,0.183,0.704,-0.294,-207.557,-26.748,-33.969
2.780,0.182,0.677,-0.241,-208.107,-23.191,-33.847
2.790,0.160,0.665,-0.216,-208.061,-21.664,-33.863
2.790,0.160,0.640,-0.177,-208.015,-20.153,-34.305
2.790,0.167,0.634,-0.149,-207.267,-17.756,-34.443
2.800,0.167,0.624,-0.109,-206.351,-14.885,-34.382
2.800,0.157,0.619,-0.093,-205.374,-12.519,-34.855
2.810,0.149,0.614,-0.077,-204.748,-10.794,-35.511
2.810,0.134,0.602,-0.073,-203.924,-9.405,-35.725
2.820,0.107,0.606,-0.050,-203.313,-9.267,-35.282
2.820,0.088,0.605,-0.053,-203.038,-8.244,-34.611
2.820,0.061,0.602,-0.051,-204.183,-8.290,-33.924
2.830,0.036,0.607,-0.058,-205.878,-9.298,-32.656
2.830,0.032,0.600,-0.034,-207.130,-10.733,-31.145
2.840,0.033,0.610,-0.058,-210.137,-9.725,-29.405
2.840,0.029,0.605,-0.061,-213.130,-9.237,-28.198
2.850,0.038,0.594,-0.056,-216.290,-8.580,-26.565
2.850,0.046,0.594,-0.045,-219.969,-5.863,-25.756
2.860,0.057,0.577,-0.042,-223.389,-2.779,-25.679
2.860,0.052,0.557,-0.035,-226.122,-1.221,-25.695
2.860,0.045,0.537,-0.010,-229.237,-1.817,-26.153
2.870,0.027,0.518,0.030,-231.237,-4.321,-27.435
2.870,0.018,0.499,0.070,-231.160,-9.756,-28.809
2.880,0.006,0.453,0.132,-229.282,-17.771,-30.534
2.880,0.007,0.417,0.181,-224.550,-23.206,-31.313
2.890,-0.003,0.431,0.225,-220.458,-29.908,-30.595
2.890,-0.022,0.400,0.248,-215.832,-38.794,-30.260
2.890,0.000,0.385,0.253,-209.557,-43.466,-29.649
2.900,0.033,0.390,0.307,-203.374,-41.069,-26.183
2.900,0.011,0.376,0.318,-198.580,-42.794,-22.443
2.910,0.016,0.381,0.299,-196.794,-45.053,-19.008
2.910,0.056,0.370,0.329,-194.565,-41.649,-15.939
2.920,0.075,0.372,0.367,-193.969,-37.573,-12.611
2.920,0.116,0.362,0.378,-196.519,-32.458,-11.176
2.920,0.134,0.362,0.391,-198.458,-28.473,-10.687
2.930,0.143,0.355,0.389,-200.885,-23.817,-11.298
2.930,0.161,0.356,0.387,-204.824,-18.122,-12.153
2.940,0.162,0.349,0.373,-209.115,-13.817,-13.435
2.940,0.128,0.330,0.384,-211.802,-13.389,-14.366
2.950,0.115,0.317,0.394,-214.000,-14.427,-15.160
2.950,0.118,0.312,0.396,-215.893,-14.824,-16.336
2.960,0.095,0.304,0.418,-216.992,-16.580,-16.885
2.960,0.099,0.292,0.407,-218.519,-16.626,-17.237
2.960,0.090,0.270,0.433,-218.992,-16.977,-17.664
2.970,0.086,0.256,0.476,-218.321,-18.763,-18.168
2.970,0.063,0.237,0.531,-216.977,-21.771,-18.321
2.980,0.055,0.219,0.568,-214.336,-24.198,-18.122
2.980,0.054,0.201,0.608,-210.031,-25.924,-18.031
2.990,0.069,0.175,0.616,-206.198,-25.511,-17.313
2.990,0.055,0.175,0.685,-204.809,-29.160,-15.725
2.990,0.067,0.142,0.696,-201.618,-28.458,-14.153
3.000,0.058,0.117,0.740,-196.901,-28.076,-11.450
3.000,0.075,0.109,0.749,-195.084,-25.282,-8.336
3.010,0.110,0.092,0.764,-196.351,-19.389,-6.092
3.010,0.114,0.072,0.798,-197.389,-13.893,-4.870
3.020,0.102,0.068,0.825,-196.977,-8.672,-3.924
3.020,0.120,0.052,0.858,-196.855,-1.099,-2.992
3.020,0.117,0.030,0.894,-196.031,4.595,-2.656
3.030,0.104,0.016,0.927,-193.908,6.489,-3.237
3.030,0.116,-0.003,0.972,-191.298,7.084,-4.840
3.040,0.109,-0.006,0.999,-187.771,8.076,-6.916
3.040,0.104,-0.010,1.006,-184.137,7.908,-9.176
3.040,0.090,-0.009,1.018,-180.427,6.214,-11.328
3.050,0.090,-0.001,1.012,-175.924,5.008,-12.992
3.050,0.094,0.013,1.022,-171.527,5.328,-14.061
3.060,0.078,0.017,0.998,-167.878,6.183,-14.397
3.060,0.060,0.031,0.970,-165.496,6.458,-14.473
3.070,0.052,0.041,0.946,-164.931,6.840,-14.427
3.070,0.051,0.047,0.938,-165.221,7.359,-14.611
3.070,0.052,0.041,0.944,-166.031,7.618,-15.008
3.080,0.043,0.029,0.975,-166.672,8.641,-14.916
3.080,0.030,0.024,0.986,-167.176,10.336,-14.076
3.090,0.014,0.019,1.011,-167.481,11.725,-12.763
3.090,-0.001,0.004,1.019,-168.397,11.908,-11.359
3.100,0.011,-0.007,1.042,-168.931,12.748,-10.321
3.100,0.025,-0.034,1.073,-168.412,14.626,-9.786
3.100,0.031,-0.049,1.107,-166.656,15.634,-9.252
3.110,0.035,-0.056,1.146,-163.893,16.092,-8.809
3.110,0.039,-0.069,1.168,-159.695,14.931,-8.702
3.120,0.046,-0.064,1.202,-155.359,13.282,-9.099
3.120,0.039,-0.079,1.198,-150.763,9.740,-10.137
3.130,0.013,-0.079,1.203,-145.573,2.351,-11.191
3.130,0.066,-0.078,1.240,-140.595,-0.061,-12.992
3.130,0.128,-0.069,1.260,-133.496,4.061,-15.344
3.140,0.098,-0.080,1.246,-127.740,0.931,-16.107
3.140,0.031,-0.070,1.237,-124.901,-12.504,-17.221
3.150,0.039,-0.076,1.234,-120.229,-19.084,-17.725
3.150,0.098,-0.079,1.228,-115.069,-15.053,-17.435
3.160,0.099,-0.079,1.225,-110.244,-8.137,-16.489
3.160,0.081,-0.071,1.196,-106.885,-2.427,-15.725
3.160,0.066,-0.069,1.175,-105.328,0.580,-14.992
3.170,0.057,-0.061,1.163,-104.656,2.824,-14.473
3.170,0.051,-0.066,1.147,-103.771,5.374,-13.969
3.180,0.047,-0.076,1.154,-103.359,5.802,-13.863
3.180,0.046,-0.070,1.146,-102.702,4.366,-14.382
3.190,0.023,-0.067,1.153,-102.336,1.008,-14.779
3.190,0.028,-0.083,1.151,-101.542,-2.107,-15.634
3.190,0.026,-0.084,1.151,-99.954,-5.084,-15.740
3.200,0.018,-0.094,1.154,-98.198,-8.565,-15.557
3.200,0.019,-0.103,1.148,-96.534,-13.206,-15.817
3.210,0.007,-0.106,1.151,-94.901,-17.939,-16.260
3.210,0.047,-0.121,1.166,-91.237,-15.924,-16.550
3.220,-0.005,-0.144,1.184,-87.985,-22.260,-16.046
3.220,-0.080,-0.148,1.202,-86.198,-36.458,-15.359
3.220,-0.046,-0.160,1.214,-83.176,-42.550,-14.672
3.230,0.007,-0.159,1.264,-80.076,-42.534,-13.252
3.230,0.023,-0.158,1.275,-77.206,-40.321,-11.664
3.240,0.028,-0.165,1.275,-74.748,-39.252,-10.458
3.240,0.054,-0.159,1.275,-72.534,-37.206,-9.420
3.250,0.079,-0.158,1.257,-69.817,-32.198,-8.366
3.250,0.098,-0.153,1.255,-67.038,-25.969,-7.466
3.250,0.099,-0.144,1.243,-64.519,-20.244,-6.687
3.260,0.107,-0.136,1.229,-62.198,-15.282,-6.122
3.260,0.104,-0.139,1.211,-60.000,-11.466,-5.878
3.270,0.093,-0.133,1.203,-57.557,-9.252,-5.817
3.270,0.084,-0.120,1.180,-55.878,-9.221,-6.122
3.280,0.076,-0.126,1.159,-53.893,-10.947,-6.504
3.280,0.070,-0.113,1.141,-52.092,-13.695,-6.794
3.280,0.065,-0.102,1.124,-50.794,-16.000,-6.733
3.290,0.073,-0.102,1.115,-49.786,-18.901,-6.641
3.290,0.082,-0.098,1.085,-48.824,-21.435,-6.992
3.300,0.095,-0.089,1.066,-48.321,-23.511,-7.191
3.300,0.108,-0.088,1.060,-47.679,-25.267,-7.527
3.310,0.129,-0.077,1.048,-47.588,-25.374,-7.466
3.310,0.149,-0.087,1.050,-47.466,-23.557,-7.863
3.310,0.165,-0.085,1.041,-47.237,-20.427,-7.908
3.320,0.170,-0.083,1.021,-47.008,-16.702,-8.168
3.320,0.179,-0.083,1.024,-47.084,-13.466,-8.137
3.330,0.187,-0.093,1.019,-46.947,-9.221,-8.351
3.330,0.183,-0.099,1.022,-46.061,-4.931,-8.611
3.330,0.154,-0.107,1.015,-45.450,-1.405,-8.672
3.340,0.144,-0.108,1.013,-45.237,0.901,-8.321
3.340,0.138,-0.115,1.013,-45.023,2.489,-7.893
3.350,0.132,-0.128,1.020,-44.321,3.740,-7.618
3.350,0.127,-0.143,1.039,-43.252,3.099,-7.893
3.360,0.123,-0.156,1.054,-42.336,1.420,-8.366
3.360,0.111,-0.167,1.076,-40.931,-0.153,-8.626
3.360,0.113,-0.174,1.082,-38.855,-0.901,-8.672
3.370,0.108,-0.181,1.088,-36.534,-1.771,-8.748
3.370,0.103,-0.173,1.079,-34.000,-2.473,-8.763
3.380,0.112,-0.178,1.074,-31.618,-3.160,-9.115
3.380,0.096,-0.183,1.085,-27.771,-4.015,-8.809
3.380,0.125,-0.167,1.047,-27.786,-0.290,-8.672
3.390,0.118,-0.159,1.006,-28.321,2.824,-8.641
3.390,0.086,-0.168,1.030,-26.458,1.023,-8.702
3.400,0.070,-0.165,1.012,-25.924,-0.550,-8.504
3.400,0.091,-0.160,0.988,-26.260,1.176,-8.076
3.410,0.099,-0.157,0.988,-26.107,2.916,-7.786
3.410,0.077,-0.165,0.997,-25.817,2.092,-7.725
3.410,0.072,-0.160,0.994,-25.435,0.855,-7.649
3.420,0.076,-0.166,0.987,-25.053,0.412,-7.649
3.420,0.064,-0.169,0.992,-24.702,-0.061,-7.634
3.430,0.075,-0.167,0.997,-23.817,-0.107,-7.023
3.430,0.076,-0.169,0.991,-22.824,0.382,-6.748
3.430,0.074,-0.172,0.985,-21.847,-0.290,-6.565
3.440,0.064,-0.181,0.988,-20.382,-0.351,-5.618
3.440,0.096,-0.170,0.962,-21.084,2.885,-4.992
3.450,0.089,-0.179,0.981,-20.031,4.168,-5.115
3.450,0.078,-0.178,0.986,-18.962,2.626,-5.435
3.450,0.092,-0.175,0.978,-18.672,2.901,-5.756
3.460,0.066,-0.166,1.065,-6.260,21.069,-2.885
3.460,-0.010,-0.159,1.049,-18.885,12.870,-5.160
3.470,0.079,-0.211,1.016,-15.832,17.863,-3.756
3.470,0.047,-0.197,1.043,-12.870,15.282,-3.160
3.480,-0.013,-0.398,1.061,2.290,14.107,-5.237
3.480,0.083,-0.125,1.055,-2.046,19.191,-2.000
3.480,0.078,-0.177,1.071,-9.206,29.160,-1.603
3.490,0.057,-0.190,1.093,-8.931,32.977,-1.359
3.490,0.047,-0.218,1.076,-6.031,32.687,0.595
3.500,-0.061,-0.223,1.054,-6.550,17.237,-1.267
3.500,-0.022,-0.212,1.045,-2.214,12.153,-0.382
3.500,0.033,-0.229,1.058,6.107,12.153,0.061
3.510,0.011,-0.205,1.069,6.794,7.008,-1.053
3.510,0.065,-0.200,1.036,8.702,11.649,0.534
3.520,0.032,-0.180,1.023,8.977,10.046,0.198
3.520,0.009,-0.180,0.994,9.237,5.450,0.412
3.520,0.027,-0.167,0.987,8.122,3.405,0.412
3.530,0.040,-0.168,0.986,7.588,3.038,0.427
3.530,0.036,-0.167,0.977,8.015,1.756,0.595
3.530,0.036,-0.157,0.967,7.542,1.145,0.779
3.540,0.042,-0.149,0.958,6.992,0.229,0.824
3.540,0.046,-0.147,0.939,5.756,-0.733,1.176
3.550,0.043,-0.148,0.930,5.282,-1.786,1.374
3.550,0.049,-0.137,0.919,4.504,-2.962,1.374
3.550,0.055,-0.142,0.914,3.389,-4.000,1.527
3.560,0.069,-0.134,0.910,2.183,-4.489,1.527
3.560,0.075,-0.135,0.915,1.435,-3.603,1.511
3.570,0.082,-0.132,0.922,0.351,-2.550,1.481
3.570,0.083,-0.139,0.922,0.015,-2.427,1.588
3.570,0.079,-0.135,0.922,-0.183,-3.145,1.115
3.580,0.076,-0.141,0.919,-0.809,-4.290,0.382
3.580,0.080,-0.140,0.911,-1.328,-5.374,0.214
3.590,0.079,-0.129,0.917,-2.641,-5.069,0.076
3.590,0.090,-0.143,0.904,-1.664,-2.763,0.565
3.590,0.060,-0.129,0.906,-2.443,-5.053,0.076
3.600,0.065,-0.137,0.877,-1.634,-4.947,0.443
3.600,0.060,-0.133,0.883,-2.183,-6.595,-0.031
3.610,0.086,-0.136,0.878,-1.664,-5.496,0.107
3.610,0.083,-0.135,0.873,-1.878,-4.702,0.153
3.610,0.080,-0.139,0.881,-1.634,-4.519,0.214
3.620,0.085,-0.138,0.886,-1.252,-4.519,-0.153
3.620,0.076,-0.141,0.887,-1.176,-5.221,-0.351
3.630,0.062,-0.144,0.879,-1.206,-7.145,-0.382
3.630,0.049,-0.148,0.882,-1.252,-9.206,-0.489
3.630,0.049,-0.145,0.886,-1.160,-11.389,-0.733
3.640,0.057,-0.146,0.892,-1.160,-12.153,-0.519
3.640,0.062,-0.144,0.895,-0.901,-11.817,-0.122
3.650,0.059,-0.149,0.888,-0.672,-11.588,0.489
3.650,0.056,-0.145,0.884,-0.214,-10.458,1.344
3.650,0.064,-0.145,0.876,-0.198,-9.588,1.802
3.660,0.069,-0.142,0.882,-0.015,-8.519,2.458
3.660,0.079,-0.148,0.877,0.046,-6.412,3.328
3.670,0.083,-0.144,0.883,-0.031,-3.908,3.634
3.670,0.093,-0.139,0.868,0.290,-1.603,4.031
3.670,0.096,-0.145,0.873,0.550,-0.519,4.107
3.680,0.093,-0.137,0.864,0.947,0.504,4.229
3.680,0.087,-0.149,0.872,0.748,0.977,4.122
3.690,0.101,-0.135,0.860,0.595,2.214,3.924
3.690,0.097,-0.139,0.869,0.107,3.038,4.153
3.690,0.102,-0.140,0.864,-0.305,3.206,4.366
3.700,0.096,-0.140,0.865,-0.458,2.214,3.969
3.700,0.079,-0.143,0.881,-1.573,-1.099,3.191
3.710,0.096,-0.137,0.880,-1.344,-2.534,2.458
3.710,0.120,-0.144,0.885,-0.458,-3.817,1.924
3.710,0.127,-0.143,0.890,0.580,-2.794,1.634
3.720,0.110,-0.135,0.891,1.634,-3.115,1.099
3.720,0.105,-0.140,0.881,2.153,-4.321,0.702
3.730,0.115,-0.134,0.871,2.168,-4.809,0.565
3.730,0.123,-0.128,0.856,2.229,-3.634,0.412
3.730,0.125,-0.129,0.862,2.244,-2.046,0.534
3.740,0.130,-0.122,0.858,1.221,-0.794,0.397
3.740,0.136,-0.124,0.841,0.656,2.489,0.809
3.740,0.121,-0.126,0.843,0.504,2.885,0.534
3.750,0.133,-0.123,0.833,-0.489,3.023,0.214
3.750,0.130,-0.129,0.836,-0.183,3.527,0.229
3.760,0.120,-0.116,0.839,-2.336,2.198,-0.458
3.760,0.137,-0.122,0.839,-1.511,6.443,0.183
3.760,0.099,-0.119,0.861,-2.885,4.458,-0.595
3.770,0.120,-0.128,0.860,-2.534,6.748,0.015
3.770,0.107,-0.133,0.865,-2.305,6.443,-0.382
3.780,0.091,-0.119,0.867,-1.634,6.168,-0.336
3.780,0.091,-0.137,0.879,-1.924,5.374,-0.870
3.780,0.091,-0.134,0.889,-3.496,3.756,-0.947
3.790,0.110,-0.150,0.886,-1.145,7.573,-0.885
3.790,0.090,-0.127,0.896,-1.527,5.725,-0.672
3.800,0.125,-0.137,0.876,-0.519,10.107,0.000
3.800,0.087,-0.135,0.896,-1.588,4.794,-0.947
3.800,0.115,-0.160,0.890,0.137,7.634,-0.962
3.810,0.075,-0.175,0.895,4.046,3.557,-1.374
3.810,0.100,-0.135,0.887,4.229,2.458,-0.992
3.820,0.103,-0.134,0.880,1.557,4.504,-1.771
3.820,0.071,-0.167,0.901,3.313,3.634,-1.695
3.820,0.114,-0.117,0.878,-2.061,7.420,-1.618
3.830,0.099,-0.143,0.885,-2.168,8.092,-1.450
3.830,0.083,-0.145,0.898,-0.901,6.947,-1.450
3.840,0.083,-0.146,0.900,-1.420,6.168,-1.588
3.840,0.069,-0.138,0.901,-2.550,4.794,-1.832
3.840,0.085,-0.157,0.887,-1.038,6.107,-1.374
3.850,0.039,-0.146,0.917,-3.023,4.061,-1.542
3.850,0.065,-0.146,0.904,-2.931,5.359,-0.885
3.860,0.069,-0.152,0.904,-1.954,4.076,-0.611
3.860,0.059,-0.147,0.910,-1.466,3.435,-0.260
3.860,0.073,-0.143,0.912,-1.252,3.252,-0.031
3.870,0.071,-0.143,0.915,-1.298,3.267,0.076
3.870,0.083,-0.156,0.910,0.305,3.389,0.397
3.880,0.071,-0.146,0.928,-0.153,2.427,0.000
3.880,0.084,-0.139,0.926,-0.595,3.740,0.061
3.880,0.079,-0.152,0.923,-0.748,4.092,0.244
3.890,0.075,-0.153,0.936,-0.443,3.359,0.122
3.890,0.070,-0.148,0.932,0.031,2.427,0.244
3.890,0.076,-0.147,0.937,-0.122,2.412,0.397
3.900,0.082,-0.142,0.921,-0.137,2.153,0.626
3.900,0.084,-0.147,0.916,0.061,1.802,0.656
3.910,0.079,-0.139,0.918,-0.031,1.038,0.321
3.910,0.076,-0.141,0.906,-0.198,0.351,-0.137
3.910,0.079,-0.135,0.894,-0.901,-0.794,-0.458
3.920,0.080,-0.136,0.897,-1.115,-1.893,-0.763
3.920,0.080,-0.133,0.895,-1.160,-1.679,-0.779
3.930,0.075,-0.143,0.900,-1.023,-1.924,-0.824
3.930,0.060,-0.132,0.882,-1.298,-2.641,-0.656
3.930,0.058,-0.128,0.868,-1.786,-4.000,-0.595
3.940,0.062,-0.126,0.881,-1.893,-4.855,-0.626
3.940,0.061,-0.139,0.873,-1.847,-4.641,-0.595
3.950,0.060,-0.134,0.872,-2.031,-3.802,-0.229
3.950,0.062,-0.130,0.865,-2.336,-3.573,-0.046
3.950,0.066,-0.138,0.865,-2.656,-3.374,0.000
3.960,0.068,-0.139,0.866,-2.687,-3.344,0.183
3.960,0.066,-0.135,0.880,-2.855,-3.786,0.397
3.970,0.058,-0.140,0.879,-2.611,-4.137,0.092
3.970,0.088,-0.145,0.888,-2.748,-4.046,0.611
3.970,0.079,-0.134,0.901,-2.397,-4.000,0.473
3.980,0.073,-0.138,0.883,-2.122,-4.626,0.198
3.980,0.070,-0.144,0.906,-2.565,-5.466,0.122
3.990,0.078,-0.144,0.900,-2.351,-6.351,0.214
3.990,0.098,-0.142,0.921,-1.298,-6.092,-0.031
3.990,0.099,-0.142,0.929,-0.580,-6.412,-0.382
4.000,0.087,-0.140,0.922,-0.321,-6.290,-0.305
4.000,0.090,-0.140,0.919,0.626,-5.878,-0.305
4.010,0.092,-0.136,0.914,1.267,-6.443,-0.046
4.010,0.076,-0.138,0.959,3.969,-9.282,0.733
4.010,0.055,-0.140,0.948,7.023,-15.511,-0.275
4.020,0.123,-0.136,0.877,4.137,-4.504,-1.557
4.020,0.243,-0.098,0.800,5.847,18.580,0.794
4.030,0.121,-0.121,0.841,0.198,17.069,1.939
4.030,-0.002,-0.119,0.865,-0.962,1.252,1.634
4.030,0.038,-0.122,0.846,-1.435,-4.198,1.008
4.040,0.117,-0.121,0.844,-1.328,0.702,0.672
4.040,0.128,-0.131,0.861,-1.115,6.275,0.794
4.050,0.092,-0.130,0.883,-0.824,5.725,0.748
4.050,0.077,-0.123,0.878,-0.656,4.290,0.916
4.050,0.091,-0.125,0.862,-1.191,4.595,0.473
4.060,0.087,-0.132,0.858,-1.313,4.641,0.580
4.060,0.086,-0.129,0.861,-1.481,3.893,0.198
4.070,0.072,-0.147,0.886,0.137,3.160,0.061
4.070,0.064,-0.143,0.883,1.802,1.344,-0.046
4.070,0.078,-0.128,0.854,1.939,1.084,0.366
4.080,0.079,-0.115,0.842,-0.366,2.198,0.443
4.080,0.075,-0.125,0.852,-1.405,1.023,0.275
4.090,0.076,-0.134,0.878,-1.679,-0.748,0.137
4.090,0.096,-0.132,0.892,-1.206,1.145,0.427
