Time,acce_x,acce_y,acce_z,gyro_x,gyro_y, gyro_z
0.000,-0.176,0.090,0.841,2.137,12.595,0.153
0.000,-0.186,0.106,0.832,2.733,10.901,0.977
0.010,-0.196,0.111,0.832,3.328,10.366,2.137
0.010,-0.200,0.116,0.831,3.496,9.695,3.985
0.010,-0.202,0.124,0.841,3.847,9.771,5.603
0.020,-0.177,0.129,0.833,4.290,10.076,7.084
0.020,-0.165,0.132,0.828,3.908,10.092,7.832
0.020,-0.156,0.133,0.822,3.618,10.076,8.183
0.030,-0.135,0.131,0.832,3.359,10.000,8.092
0.030,-0.120,0.130,0.831,3.160,10.092,7.618
0.030,-0.101,0.129,0.837,3.145,10.687,7.359
0.040,-0.086,0.135,0.841,2.565,11.847,6.947
0.040,-0.075,0.136,0.830,2.397,13.038,6.519
0.040,-0.066,0.135,0.809,2.000,14.305,6.229
0.050,-0.064,0.138,0.818,1.221,15.664,5.756
0.050,-0.054,0.144,0.811,0.916,16.977,5.191
0.050,-0.064,0.146,0.795,0.489,18.779,4.351
0.060,-0.080,0.148,0.778,0.015,18.794,3.786
0.060,-0.099,0.147,0.766,-0.748,15.176,1.863
0.070,-0.089,0.152,0.774,-1.618,11.405,0.061
0.070,-0.092,0.150,0.781,-2.122,9.496,-1.359
0.070,-0.116,0.146,0.790,-2.229,9.176,-2.000
0.080,-0.145,0.147,0.784,-3.130,8.977,-1.847
0.080,-0.158,0.152,0.794,-3.771,8.565,-1.450
0.090,-0.173,0.158,0.792,-4.107,8.092,-0.931
0.090,-0.179,0.155,0.789,-4.672,7.908,-0.626
0.090,-0.177,0.157,0.782,-5.221,8.534,-0.198
0.100,-0.174,0.158,0.786,-5.878,10.412,0.076
0.100,-0.169,0.161,0.771,-6.794,12.473,0.443
0.110,-0.169,0.161,0.775,-7.924,14.931,0.885
0.110,-0.169,0.168,0.777,-9.573,17.481,1.405
0.110,-0.168,0.166,0.787,-10.962,19.634,1.603
0.120,-0.174,0.163,0.790,-12.489,21.450,2.183
0.120,-0.191,0.162,0.786,-13.969,22.397,2.168
0.130,-0.207,0.145,0.795,-15.405,21.954,2.137
0.130,-0.233,0.141,0.790,-16.382,20.427,1.725
0.130,-0.247,0.145,0.796,-17.939,15.466,0.901
0.140,-0.247,0.131,0.809,-19.084,10.275,0.183
0.140,-0.238,0.126,0.818,-19.282,5.466,-0.168
0.150,-0.239,0.099,0.868,-18.748,1.786,-0.015
0.150,-0.247,0.087,0.891,-17.893,-0.779,0.962
0.150,-0.243,0.076,0.901,-16.427,-2.061,1.939
0.160,-0.239,0.069,0.907,-15.267,-2.611,3.130
0.160,-0.228,0.066,0.913,-14.031,-2.458,3.954
0.170,-0.226,0.047,0.925,-12.168,-1.435,5.191
0.170,-0.209,0.047,0.943,-10.046,0.626,6.214
0.170,-0.203,0.040,0.951,-7.756,3.450,6.779
0.180,-0.185,0.031,0.963,-5.527,6.519,7.389
0.180,-0.186,0.037,0.967,-3.557,8.214,7.481
0.190,-0.191,0.033,0.954,-2.137,8.718,7.588
0.190,-0.197,0.030,0.950,-1.527,9.130,7.679
0.190,-0.195,0.035,0.946,-0.809,9.939,7.863
0.200,-0.194,0.037,0.952,-0.275,11.435,8.611
0.200,-0.201,0.041,0.936,0.336,12.733,8.901
0.210,-0.208,0.041,0.912,0.855,13.664,9.084
0.210,-0.210,0.033,0.911,0.748,13.634,8.947
0.210,-0.211,0.039,0.906,0.137,13.252,9.481
0.220,-0.207,0.039,0.900,0.061,13.832,9.695
0.220,-0.214,0.039,0.908,0.031,14.718,9.725
0.230,-0.207,0.034,0.902,-0.214,15.649,9.939
0.230,-0.208,0.033,0.908,-0.275,15.939,10.015
0.230,-0.208,0.032,0.915,-0.779,16.489,9.939
0.240,-0.207,0.032,0.907,-0.458,17.023,9.924
0.240,-0.208,0.027,0.894,-1.191,16.931,10.061
0.250,-0.212,0.026,0.906,-1.710,16.779,9.878
0.250,-0.209,0.024,0.911,-1.618,16.412,10.061
0.250,-0.197,0.027,0.906,-1.466,17.267,9.893
0.260,-0.189,0.031,0.905,-1.786,17.359,9.603
0.260,-0.196,0.028,0.896,-1.573,16.672,9.847
0.270,-0.188,0.034,0.887,-0.977,15.634,9.832
0.270,-0.174,0.033,0.888,-0.977,14.977,9.573
0.270,-0.169,0.036,0.884,-0.427,14.382,9.374
0.280,-0.162,0.039,0.877,0.137,13.160,9.008
0.280,-0.154,0.042,0.875,0.198,11.939,8.275
0.290,-0.153,0.036,0.867,-0.107,10.046,7.542
0.290,-0.149,0.043,0.868,-0.305,8.809,6.794
0.290,-0.129,0.037,0.864,-0.504,8.489,6.107
0.300,-0.113,0.035,0.887,-0.412,9.740,5.527
0.300,-0.109,0.032,0.895,-0.015,10.947,4.977
0.310,-0.116,0.035,0.892,0.122,11.328,4.290
0.310,-0.125,0.039,0.882,0.718,11.679,3.359
0.310,-0.136,0.033,0.886,1.053,11.206,2.672
0.320,-0.138,0.050,0.880,1.282,11.420,2.122
0.320,-0.153,0.059,0.865,1.542,12.061,1.786
0.320,-0.154,0.063,0.867,1.679,12.550,1.588
0.330,-0.168,0.079,0.846,1.527,12.473,1.023
0.330,-0.174,0.083,0.828,1.344,11.603,0.809
0.340,-0.183,0.087,0.824,0.641,10.580,0.275
0.340,-0.183,0.093,0.822,0.107,10.382,-0.122
0.340,-0.181,0.104,0.811,-0.733,10.504,-0.427
0.350,-0.189,0.110,0.810,-1.389,10.794,-0.580
0.350,-0.199,0.110,0.808,-1.893,10.672,-0.626
0.360,-0.211,0.114,0.808,-2.397,10.366,-0.366
0.360,-0.221,0.113,0.806,-2.977,9.725,0.183
0.360,-0.235,0.118,0.807,-3.924,8.748,0.794
0.370,-0.225,0.112,0.809,-4.198,7.985,1.481
0.370,-0.229,0.113,0.802,-4.901,7.786,1.725
0.380,-0.231,0.113,0.822,-5.221,7.344,2.321
0.380,-0.230,0.113,0.816,-5.649,7.053,2.901
0.380,-0.226,0.114,0.810,-6.000,6.458,3.115
0.390,-0.222,0.122,0.823,-6.458,5.084,3.328
0.390,-0.217,0.122,0.834,-6.947,3.771,3.618
0.400,-0.216,0.115,0.848,-7.115,2.443,3.634
0.400,-0.208,0.118,0.839,-6.733,2.107,3.954
0.400,-0.211,0.121,0.844,-5.908,0.809,3.969
0.410,-0.206,0.102,0.868,-5.450,-1.328,3.847
0.410,-0.210,0.118,0.875,-4.351,-2.458,3.924
0.420,-0.207,0.116,0.876,-3.420,-2.718,4.000
0.420,-0.203,0.118,0.872,-2.366,-2.550,4.290
0.420,-0.193,0.126,0.890,-1.282,-3.160,4.840
0.430,-0.188,0.127,0.880,-0.244,-2.901,4.779
0.430,-0.184,0.130,0.892,0.214,-3.206,4.626
0.440,-0.170,0.134,0.877,0.351,-3.771,4.336
0.440,-0.166,0.135,0.897,0.656,-3.985,3.847
0.440,-0.166,0.138,0.892,0.489,-5.023,3.115
0.450,-0.174,0.137,0.884,-0.183,-5.954,2.397
0.450,-0.164,0.138,0.896,-0.443,-5.573,1.908
0.450,-0.166,0.136,0.897,-1.008,-4.565,1.557
0.460,-0.177,0.141,0.880,-1.893,-4.290,0.977
0.460,-0.188,0.131,0.885,-3.084,-5.481,0.244
0.470,-0.191,0.132,0.890,-4.183,-6.565,-0.733
0.470,-0.198,0.126,0.898,-4.779,-6.412,-1.115
0.480,-0.209,0.129,0.912,-5.160,-5.328,-1.008
0.480,-0.224,0.109,0.941,-4.840,-3.969,-0.595
0.480,-0.241,0.101,0.943,-4.015,-3.634,0.000
0.490,-0.258,0.096,0.947,-3.557,-3.573,0.458
0.490,-0.263,0.092,0.949,-3.160,-4.214,1.099
0.500,-0.268,0.088,0.957,-2.290,-4.427,1.557
0.500,-0.271,0.090,0.955,-1.649,-4.611,2.076
0.500,-0.274,0.084,0.966,-0.992,-5.115,2.595
0.510,-0.278,0.091,0.954,-0.595,-5.649,3.176
0.510,-0.288,0.089,0.948,-0.198,-6.290,4.031
0.520,-0.283,0.093,0.955,-0.214,-6.901,4.885
0.520,-0.282,0.090,0.946,0.229,-7.695,5.573
0.520,-0.272,0.092,0.951,0.885,-8.702,6.336
0.530,-0.280,0.090,0.960,1.313,-9.954,6.046
0.530,-0.265,0.092,0.944,1.786,-11.832,7.099
0.530,-0.261,0.095,0.949,2.595,-12.260,7.542
0.540,-0.258,0.098,0.941,3.649,-11.618,8.153
0.540,-0.259,0.097,0.933,4.229,-11.817,9.237
0.550,-0.256,0.107,0.924,4.931,-11.756,10.015
0.550,-0.260,0.109,0.913,5.725,-12.840,10.443
0.560,-0.244,0.103,0.908,5.542,-14.458,10.519
0.560,-0.232,0.114,0.898,5.389,-15.450,10.595
0.560,-0.208,0.115,0.913,6.290,-15.374,10.473
0.570,-0.203,0.111,0.911,6.504,-14.947,10.641
0.570,-0.200,0.114,0.905,6.534,-14.550,10.733
0.580,-0.193,0.114,0.906,6.824,-14.046,10.656
0.580,-0.181,0.111,0.910,7.450,-14.733,9.969
0.580,-0.175,0.104,0.918,8.168,-15.588,10.046
0.590,-0.174,0.109,0.916,8.870,-16.336,9.588
0.590,-0.162,0.095,0.899,9.328,-15.344,8.626
0.600,-0.161,0.102,0.896,9.664,-14.763,8.137
0.600,-0.159,0.100,0.887,10.382,-14.962,7.466
0.600,-0.162,0.097,0.884,10.718,-15.573,6.718
0.610,-0.159,0.094,0.876,10.473,-16.031,5.924
0.610,-0.146,0.094,0.871,10.641,-14.779,5.679
0.620,-0.154,0.089,0.873,11.084,-13.237,5.588
0.620,-0.155,0.082,0.868,11.435,-12.473,5.282
0.620,-0.160,0.081,0.873,11.450,-11.328,5.466
0.630,-0.150,0.072,0.866,11.389,-9.802,5.466
0.630,-0.149,0.077,0.861,11.481,-8.015,5.084
0.640,-0.145,0.083,0.850,11.389,-6.550,4.580
0.640,-0.154,0.086,0.855,11.237,-6.504,4.092
0.640,-0.155,0.087,0.859,11.069,-6.687,4.015
0.650,-0.147,0.088,0.855,10.962,-6.061,3.695
0.650,-0.140,0.080,0.847,10.962,-4.244,3.649
0.660,-0.152,0.074,0.844,10.977,-2.840,3.603
0.660,-0.165,0.075,0.846,10.687,-2.214,3.527
0.660,-0.174,0.084,0.847,10.901,-1.908,3.618
0.670,-0.180,0.078,0.836,10.763,-2.412,3.313
0.670,-0.190,0.077,0.842,10.656,-2.962,3.389
0.680,-0.202,0.081,0.829,10.321,-3.206,3.328
0.680,-0.195,0.085,0.821,10.183,-3.435,3.588
0.680,-0.208,0.086,0.819,9.618,-4.565,3.649
0.690,-0.214,0.092,0.813,9.267,-5.527,4.046
0.690,-0.220,0.095,0.809,8.412,-6.916,4.534
0.700,-0.223,0.104,0.807,7.893,-8.015,5.160
0.700,-0.225,0.103,0.809,7.359,-9.206,5.634
0.700,-0.214,0.113,0.802,6.901,-10.550,5.939
0.710,-0.208,0.118,0.814,6.244,-11.786,6.275
0.710,-0.202,0.117,0.814,5.954,-12.916,6.321
0.720,-0.184,0.119,0.814,5.756,-13.618,6.382
0.720,-0.175,0.132,0.823,5.511,-14.504,6.153
0.720,-0.165,0.142,0.818,5.374,-15.634,6.214
0.730,-0.157,0.146,0.820,5.405,-16.321,5.924
0.730,-0.142,0.151,0.813,5.557,-16.031,5.847
0.740,-0.135,0.165,0.806,5.191,-16.000,5.282
0.740,-0.136,0.168,0.800,4.107,-16.534,5.252
0.740,-0.123,0.178,0.795,3.771,-16.061,4.885
0.750,-0.127,0.182,0.796,3.359,-15.924,4.916
0.750,-0.123,0.181,0.799,2.794,-15.924,4.916
0.760,-0.113,0.181,0.824,2.565,-15.069,4.733
0.760,-0.108,0.179,0.808,2.565,-13.924,4.641
0.760,-0.117,0.177,0.816,2.092,-13.298,4.626
0.770,-0.110,0.180,0.819,1.420,-13.084,4.565
0.770,-0.113,0.182,0.812,1.282,-13.435,4.168
0.780,-0.118,0.187,0.806,1.374,-14.107,4.137
0.780,-0.134,0.201,0.802,0.656,-15.084,4.916
0.780,-0.144,0.201,0.799,-0.366,-15.634,5.481
0.790,-0.114,0.204,0.794,-0.870,-13.802,6.336
0.790,-0.099,0.203,0.813,-1.328,-12.427,6.718
0.800,-0.103,0.218,0.809,-1.969,-12.137,6.931
0.800,-0.096,0.208,0.822,-2.580,-12.443,6.916
0.800,-0.081,0.207,0.830,-2.412,-12.641,6.550
0.810,-0.070,0.201,0.843,-1.969,-12.565,5.817
0.810,-0.050,0.202,0.849,-1.618,-11.237,4.992
0.820,-0.042,0.197,0.863,-1.649,-9.405,4.366
0.820,-0.043,0.195,0.864,-1.160,-7.450,3.679
0.820,-0.049,0.198,0.856,-0.687,-6.198,3.160
0.830,-0.056,0.203,0.843,-0.718,-4.870,2.565
0.830,-0.060,0.202,0.835,-0.992,-4.275,2.366
0.840,-0.069,0.199,0.824,-1.527,-3.237,1.618
0.840,-0.082,0.208,0.826,-2.214,-2.565,1.878
0.840,-0.094,0.214,0.801,-2.656,-2.229,1.893
0.850,-0.110,0.224,0.798,-4.137,-3.023,1.985
0.850,-0.114,0.221,0.787,-6.718,-4.046,2.458
0.860,-0.118,0.211,0.801,-8.840,-5.679,1.725
0.860,-0.116,0.213,0.808,-11.084,-6.260,1.771
0.860,-0.128,0.198,0.834,-13.725,-7.664,1.511
0.870,-0.141,0.187,0.862,-16.427,-9.847,1.115
0.870,-0.138,0.165,0.896,-18.015,-11.969,0.672
0.880,-0.146,0.150,0.936,-19.389,-13.466,0.061
0.880,-0.153,0.127,0.970,-19.802,-15.527,-0.534
0.880,-0.156,0.111,1.011,-19.634,-16.641,-1.160
0.890,-0.156,0.097,1.037,-18.641,-16.565,-1.252
0.890,-0.166,0.081,1.068,-17.145,-16.122,-1.069
0.900,-0.177,0.073,1.078,-14.824,-15.664,-0.718
0.900,-0.180,0.064,1.095,-12.397,-14.519,-0.092
0.910,-0.184,0.061,1.108,-9.634,-12.565,0.718
0.910,-0.184,0.063,1.100,-8.031,-10.015,1.664
0.910,-0.186,0.061,1.084,-5.924,-7.954,2.366
0.920,-0.182,0.068,1.080,-4.977,-6.214,3.282
0.920,-0.184,0.075,1.074,-4.061,-4.489,4.290
0.930,-0.173,0.068,1.055,-2.977,-3.130,4.183
0.930,-0.167,0.070,1.047,-2.855,-2.092,4.473
0.930,-0.175,0.073,1.036,-2.779,-2.641,4.275
0.940,-0.183,0.072,1.021,-2.550,-4.840,3.740
0.940,-0.187,0.070,1.015,-2.641,-7.725,3.084
0.950,-0.183,0.067,1.014,-2.336,-10.290,2.504
0.950,-0.181,0.062,1.000,-1.420,-12.763,1.863
0.950,-0.178,0.060,0.980,-0.565,-15.115,1.557
0.960,-0.174,0.059,0.963,0.198,-17.847,0.962
0.960,-0.166,0.048,0.947,1.282,-19.771,0.443
0.970,-0.156,0.047,0.933,2.092,-20.321,0.137
0.970,-0.150,0.046,0.904,3.267,-19.756,-0.061
0.970,-0.156,0.047,0.880,4.275,-18.534,0.153
0.980,-0.155,0.057,0.859,4.198,-15.802,0.351
0.980,-0.149,0.062,0.826,4.290,-13.160,0.656
0.990,-0.156,0.066,0.805,3.802,-10.015,1.069
0.990,-0.152,0.079,0.765,2.672,-6.366,1.847
0.990,-0.155,0.094,0.716,-0.336,-2.076,2.702
1.000,-0.156,0.112,0.675,-3.985,2.000,3.740
1.000,-0.150,0.110,0.672,-5.954,3.542,4.641
1.010,-0.135,0.099,0.686,-7.954,3.954,4.733
1.010,-0.125,0.104,0.675,-10.443,4.885,5.023
1.010,-0.120,0.103,0.670,-12.733,7.099,4.916
1.020,-0.112,0.090,0.669,-14.534,8.885,4.977
1.020,-0.109,0.085,0.677,-15.695,8.672,4.382
1.030,-0.118,0.077,0.689,-15.740,6.977,3.496
1.030,-0.127,0.066,0.697,-14.809,3.130,2.153
1.030,-0.130,0.057,0.707,-14.031,-1.374,0.977
1.040,-0.134,0.055,0.691,-12.534,-5.466,0.260
1.040,-0.134,0.052,0.687,-10.947,-9.527,-0.305
1.050,-0.141,0.059,0.691,-9.573,-13.282,-0.550
1.050,-0.141,0.061,0.677,-8.397,-16.061,-0.489
1.050,-0.130,0.067,0.665,-7.420,-17.725,-0.122
1.060,-0.121,0.074,0.662,-7.130,-18.733,0.336
1.060,-0.114,0.077,0.643,-7.359,-18.321,0.992
1.070,-0.105,0.089,0.630,-8.061,-16.198,1.374
1.070,-0.090,0.091,0.614,-9.603,-13.603,2.031
1.080,-0.088,0.108,0.603,-11.588,-10.611,2.397
1.080,-0.086,0.109,0.596,-14.000,-7.634,3.069
1.080,-0.091,0.125,0.603,-16.382,-5.603,3.786
1.090,-0.077,0.113,0.626,-18.565,-4.107,4.702
1.090,-0.067,0.112,0.641,-20.794,-2.183,4.916
1.100,-0.047,0.103,0.646,-22.992,0.153,4.565
1.100,-0.044,0.095,0.659,-24.519,1.328,3.344
1.100,-0.043,0.082,0.682,-25.863,0.443,1.924
1.110,-0.043,0.076,0.707,-26.702,-0.443,0.305
1.110,-0.041,0.061,0.730,-26.870,-0.748,-1.115
1.120,-0.047,0.051,0.760,-26.336,-0.183,-2.550
1.120,-0.062,0.050,0.773,-25.496,0.336,-3.389
1.120,-0.071,0.051,0.776,-24.473,0.748,-3.969
1.130,-0.077,0.049,0.798,-23.847,1.008,-4.198
1.130,-0.090,0.051,0.793,-22.443,1.191,-4.382
1.140,-0.104,0.048,0.827,-21.145,0.687,-4.382
1.140,-0.103,0.051,0.842,-19.496,1.435,-3.695
1.140,-0.096,0.051,0.862,-18.718,3.588,-3.344
1.150,-0.096,0.049,0.865,-17.863,6.397,-2.672
1.150,-0.096,0.055,0.886,-17.374,8.244,-2.198
1.160,-0.098,0.062,0.880,-17.298,9.435,-1.969
1.160,-0.103,0.067,0.894,-17.328,10.092,-1.863
1.160,-0.101,0.060,0.902,-17.176,10.534,-1.679
1.170,-0.102,0.068,0.919,-17.023,11.664,-1.557
1.170,-0.099,0.073,0.924,-16.733,12.489,-1.420
1.180,-0.104,0.074,0.930,-16.611,11.267,-1.466
1.180,-0.096,0.073,0.947,-16.061,10.076,-1.588
1.190,-0.088,0.071,0.947,-15.771,9.145,-1.939
1.190,-0.081,0.072,0.959,-14.763,9.328,-2.198
1.190,-0.081,0.076,0.957,-14.290,8.916,-2.397
1.200,-0.075,0.070,0.954,-13.481,8.198,-3.389
1.200,-0.073,0.070,0.960,-12.947,7.603,-4.260
1.210,-0.061,0.070,0.973,-12.092,8.672,-4.733
1.210,-0.065,0.067,0.969,-11.542,10.153,-5.084
1.210,-0.078,0.055,0.986,-10.962,10.992,-5.466
1.220,-0.096,0.056,0.979,-10.458,11.252,-5.496
1.220,-0.104,0.055,0.986,-9.618,11.863,-5.313
1.230,-0.120,0.059,0.985,-9.115,12.733,-4.763
1.230,-0.129,0.062,0.976,-8.580,13.267,-4.183
1.230,-0.140,0.063,0.961,-8.397,12.779,-3.710
1.240,-0.130,0.077,0.964,-8.229,12.015,-3.359
1.240,-0.122,0.076,0.943,-8.153,11.557,-2.962
1.250,-0.131,0.091,0.956,-7.939,10.656,-2.824
1.250,-0.135,0.092,0.935,-7.557,9.084,-2.702
1.260,-0.143,0.094,0.927,-7.435,6.489,-2.412
1.260,-0.136,0.093,0.928,-7.771,3.344,-2.260
1.260,-0.136,0.095,0.933,-7.466,0.916,-2.336
1.270,-0.132,0.094,0.931,-7.176,-1.130,-2.198
1.270,-0.125,0.089,0.945,-7.221,-2.763,-2.107
1.280,-0.105,0.080,0.949,-7.206,-4.229,-2.321
1.280,-0.099,0.084,0.961,-6.977,-5.282,-2.351
1.280,-0.089,0.073,0.989,-6.168,-5.069,-2.473
1.290,-0.087,0.068,0.984,-5.863,-5.450,-2.718
1.290,-0.087,0.065,0.994,-5.450,-5.954,-2.809
1.300,-0.089,0.062,0.999,-5.038,-5.985,-2.901
1.300,-0.097,0.062,0.991,-4.565,-7.069,-3.298
1.300,-0.107,0.054,1.002,-4.351,-7.878,-3.344
1.310,-0.110,0.048,1.016,-3.481,-8.366,-2.809
1.310,-0.115,0.046,1.027,-2.580,-8.687,-2.473
1.320,-0.113,0.050,1.032,-1.664,-8.794,-1.878
1.320,-0.115,0.044,1.037,-0.427,-8.870,-1.573
1.320,-0.111,0.044,1.038,1.298,-8.595,-1.267
1.330,-0.115,0.038,1.035,2.656,-7.420,-1.008
1.330,-0.118,0.042,1.029,4.107,-6.260,-0.458
1.340,-0.121,0.045,1.019,5.053,-5.237,0.061
1.340,-0.127,0.055,1.022,5.527,-4.534,0.458
1.340,-0.137,0.053,1.010,6.107,-4.366,0.870
1.350,-0.139,0.046,1.022,6.092,-4.672,1.160
1.350,-0.139,0.045,1.030,6.351,-5.023,1.908
1.360,-0.139,0.039,1.056,7.053,-5.191,2.809
1.360,-0.145,0.031,1.077,8.031,-5.420,3.695
1.360,-0.144,0.016,1.089,9.053,-4.855,5.496
1.370,-0.153,0.016,1.118,10.809,-4.137,6.748
1.370,-0.141,0.006,1.148,13.328,-3.008,7.924
1.380,-0.130,-0.002,1.156,16.229,-0.947,8.443
1.380,-0.138,0.006,1.163,18.779,-0.351,8.275
1.380,-0.140,0.007,1.149,20.855,-0.824,8.000
1.390,-0.141,0.014,1.146,22.947,-1.511,7.664
1.390,-0.128,0.021,1.139,25.221,-2.427,7.740
1.400,-0.141,0.028,1.140,27.206,-4.519,7.160
1.400,-0.147,0.036,1.142,28.336,-7.206,6.519
1.400,-0.140,0.043,1.145,29.847,-10.122,6.183
1.410,-0.141,0.045,1.144,31.588,-11.603,6.565
1.410,-0.146,0.055,1.152,33.176,-11.649,7.603
1.420,-0.141,0.051,1.161,34.916,-11.481,8.382
1.420,-0.144,0.053,1.166,36.901,-11.710,8.916
1.420,-0.143,0.053,1.174,39.191,-11.832,9.649
1.430,-0.122,0.055,1.171,41.252,-11.176,10.229
1.430,-0.114,0.062,1.189,43.924,-9.786,10.534
1.440,-0.109,0.069,1.188,46.397,-8.611,11.496
1.440,-0.121,0.072,1.195,48.336,-8.702,12.473
1.440,-0.130,0.074,1.207,50.366,-9.588,13.435
1.450,-0.127,0.081,1.216,52.061,-10.061,14.214
1.450,-0.106,0.075,1.229,54.534,-10.290,14.901
1.460,-0.072,0.078,1.260,57.176,-9.145,15.481
1.460,-0.066,0.075,1.266,59.863,-7.084,15.908
1.470,-0.061,0.076,1.276,62.305,-6.702,15.695
1.470,-0.061,0.075,1.278,64.550,-7.588,14.992
1.470,-0.063,0.073,1.285,67.344,-8.458,14.550
1.480,-0.060,0.063,1.301,70.611,-8.183,13.817
1.480,-0.067,0.052,1.311,74.534,-7.893,13.282
1.490,-0.069,0.061,1.318,77.924,-8.107,13.160
1.490,-0.075,0.062,1.316,81.405,-8.824,12.855
1.490,-0.083,0.068,1.318,84.824,-8.321,12.779
1.500,-0.073,0.065,1.301,88.076,-6.626,12.595
1.500,-0.082,0.076,1.289,89.924,-5.023,12.611
1.510,-0.094,0.084,1.294,92.489,-3.756,12.931
1.510,-0.110,0.078,1.294,95.313,-2.412,14.198
1.510,-0.126,0.081,1.295,96.550,-2.061,15.160
1.520,-0.119,0.083,1.313,99.832,-1.649,16.351
1.520,-0.121,0.076,1.309,101.878,-0.595,17.298
1.530,-0.112,0.079,1.315,104.351,0.763,18.137
1.530,-0.109,0.078,1.306,106.779,2.076,18.840
1.530,-0.116,0.084,1.292,108.855,2.214,19.328
1.540,-0.116,0.086,1.283,110.489,1.557,18.992
1.540,-0.104,0.084,1.279,112.275,1.557,18.824
1.550,-0.106,0.079,1.280,114.366,0.550,18.351
1.550,-0.117,0.077,1.297,117.084,-0.702,18.198
1.560,-0.134,0.072,1.301,119.511,-2.718,18.321
1.560,-0.145,0.065,1.306,122.718,-4.534,18.962
1.560,-0.145,0.060,1.305,126.534,-5.603,20.061
1.570,-0.143,0.062,1.301,130.519,-4.718,21.069
1.570,-0.137,0.064,1.290,134.702,-3.420,22.275
1.580,-0.166,0.064,1.276,138.305,-3.588,23.924
1.580,-0.183,0.062,1.281,142.351,-4.031,26.198
1.580,-0.164,0.074,1.272,146.718,-2.840,28.458
1.590,-0.149,0.076,1.247,150.702,0.443,30.473
1.590,-0.136,0.089,1.231,153.710,2.641,31.511
1.600,-0.139,0.094,1.213,155.863,2.244,31.985
1.600,-0.129,0.115,1.186,157.710,1.282,31.527
1.600,-0.114,0.114,1.164,158.977,0.534,31.160
1.610,-0.131,0.123,1.137,159.603,-0.122,31.160
1.610,-0.135,0.136,1.137,160.687,-1.191,31.237
1.620,-0.149,0.142,1.124,161.603,-3.176,31.756
1.620,-0.144,0.158,1.110,163.130,-5.481,32.748
1.630,-0.125,0.151,1.118,164.916,-6.687,33.160
1.630,-0.110,0.159,1.111,167.542,-6.183,33.939
1.630,-0.099,0.161,1.102,170.702,-5.145,34.916
1.640,-0.087,0.170,1.084,173.176,-4.000,35.893
1.640,-0.072,0.184,1.079,175.313,-3.588,37.435
1.650,-0.059,0.187,1.062,178.198,-2.733,37.008
1.650,-0.038,0.208,1.052,179.069,-3.115,36.840
1.650,-0.042,0.193,1.034,181.313,-3.863,35.267
1.660,-0.027,0.198,1.029,183.191,-4.000,34.519
1.660,-0.042,0.202,1.016,185.115,-4.870,33.176
1.670,-0.059,0.208,1.008,186.870,-6.855,32.244
1.670,-0.072,0.214,0.988,188.916,-9.008,31.817
1.680,-0.088,0.221,0.949,191.160,-11.710,31.298
1.680,-0.091,0.227,0.930,192.611,-14.305,31.588
1.680,-0.109,0.229,0.906,194.214,-17.237,31.557
1.690,-0.099,0.246,0.896,195.573,-18.137,32.244
1.690,-0.107,0.237,0.878,199.450,-19.466,32.824
1.700,-0.083,0.246,0.846,202.198,-16.504,31.939
1.700,-0.092,0.255,0.842,205.099,-17.069,33.435
1.710,-0.069,0.270,0.801,206.763,-16.015,33.069
1.710,-0.069,0.297,0.778,206.458,-13.817,33.527
1.710,-0.062,0.309,0.730,205.588,-13.420,32.672
1.720,-0.043,0.356,0.700,205.695,-10.885,35.420
1.720,-0.039,0.376,0.638,203.008,-10.061,36.748
1.730,-0.017,0.346,0.620,203.802,-7.313,36.366
1.730,-0.024,0.377,0.621,203.405,-8.168,36.366
1.730,-0.016,0.380,0.596,204.122,-7.664,35.267
1.740,-0.010,0.387,0.572,203.389,-7.863,34.626
1.740,0.005,0.399,0.527,201.405,-7.069,33.634
1.750,0.000,0.414,0.502,200.092,-6.748,33.084
1.750,-0.014,0.408,0.510,199.847,-9.359,32.229
1.760,-0.016,0.401,0.503,199.969,-11.053,30.992
1.760,-0.019,0.395,0.503,200.076,-11.725,30.534
1.760,-0.016,0.403,0.497,200.275,-12.061,29.893
1.770,-0.029,0.408,0.484,200.489,-12.092,29.863
1.770,-0.035,0.402,0.456,200.458,-12.412,29.145
1.780,-0.036,0.405,0.456,200.824,-12.656,28.489
1.780,-0.044,0.421,0.416,201.221,-12.779,27.832
1.790,-0.062,0.419,0.416,201.969,-13.099,28.137
1.790,-0.075,0.440,0.386,202.687,-14.244,28.580
1.790,-0.081,0.443,0.355,203.023,-14.687,29.511
1.800,-0.082,0.450,0.326,203.786,-14.931,31.084
1.800,-0.093,0.448,0.311,204.855,-16.458,32.366
1.810,-0.092,0.452,0.285,205.603,-17.985,33.267
1.810,-0.079,0.452,0.261,206.107,-19.130,33.969
1.810,-0.080,0.458,0.247,206.641,-20.275,34.656
1.820,-0.079,0.450,0.248,207.908,-22.198,34.855
1.820,-0.092,0.450,0.224,209.863,-25.313,35.344
1.830,-0.072,0.459,0.208,211.038,-27.313,36.107
1.830,-0.061,0.473,0.155,211.099,-27.389,36.412
1.840,-0.066,0.484,0.109,209.725,-29.496,36.366
1.840,-0.070,0.491,0.105,207.221,-33.496,37.344
1.840,-0.061,0.511,0.071,205.069,-30.962,36.275
1.850,-0.053,0.482,0.013,209.099,-31.389,36.870
1.850,-0.064,0.523,0.052,209.863,-36.794,38.611
1.860,-0.047,0.520,-0.010,207.466,-37.679,38.031
1.860,-0.064,0.532,-0.042,203.176,-38.351,37.832
1.870,-0.081,0.534,-0.020,199.756,-41.542,38.779
1.870,-0.078,0.523,0.008,197.557,-45.130,39.573
1.870,-0.043,0.509,-0.051,196.168,-41.954,39.985
1.880,-0.042,0.503,-0.043,195.924,-41.466,40.565
1.880,-0.051,0.500,-0.053,197.420,-42.290,40.962
1.890,-0.050,0.511,-0.095,198.779,-42.000,41.511
1.890,-0.036,0.526,-0.110,199.664,-41.160,42.351
1.900,-0.014,0.530,-0.149,199.740,-40.382,42.901
1.900,-0.010,0.541,-0.183,199.542,-39.557,43.634
1.910,-0.005,0.547,-0.209,199.374,-39.481,43.725
1.910,0.007,0.563,-0.227,197.985,-38.260,44.580
1.910,0.011,0.558,-0.239,196.458,-36.427,44.840
1.920,0.025,0.566,-0.261,194.305,-34.244,46.275
1.920,0.019,0.564,-0.272,192.382,-34.260,46.626
1.930,0.031,0.552,-0.310,189.985,-33.710,46.122
1.930,0.054,0.554,-0.336,187.740,-31.191,45.740
1.940,0.059,0.556,-0.348,186.260,-28.244,45.313
1.940,0.058,0.554,-0.367,185.130,-25.679,46.137
1.940,0.052,0.555,-0.391,183.511,-21.786,46.809
1.950,0.049,0.559,-0.414,180.718,-19.267,47.115
1.950,0.029,0.576,-0.435,177.649,-17.679,47.115
1.960,-0.006,0.571,-0.447,175.191,-20.198,47.481
1.960,0.028,0.589,-0.466,171.237,-20.580,48.855
1.960,0.046,0.577,-0.457,168.397,-16.260,49.160
1.970,0.014,0.578,-0.457,164.840,-13.969,50.580
1.970,-0.011,0.567,-0.478,161.878,-15.542,51.038
1.980,-0.011,0.565,-0.490,159.374,-16.824,52.351
1.980,-0.016,0.562,-0.497,157.679,-19.069,53.740
1.990,-0.008,0.563,-0.487,157.450,-19.679,55.298
1.990,0.021,0.566,-0.500,155.664,-18.458,57.023
1.990,0.034,0.558,-0.529,153.618,-18.153,57.786
2.000,0.042,0.559,-0.522,151.649,-18.076,58.198
2.000,0.038,0.557,-0.548,149.481,-18.504,58.824
2.010,0.048,0.559,-0.544,147.557,-18.015,60.260
2.010,0.062,0.547,-0.558,146.244,-17.084,60.763
2.020,0.061,0.552,-0.565,144.427,-16.229,61.863
2.020,0.047,0.539,-0.591,141.695,-17.557,62.061
2.020,0.051,0.538,-0.612,139.359,-19.237,62.137
2.030,0.064,0.543,-0.614,136.702,-20.565,63.084
2.030,0.054,0.533,-0.619,135.740,-22.947,63.588
2.040,0.061,0.548,-0.638,132.779,-24.931,64.855
2.040,0.069,0.542,-0.662,130.366,-26.412,65.252
2.050,0.079,0.534,-0.654,127.908,-26.321,66.214
2.050,0.107,0.535,-0.675,125.679,-25.313,66.122
2.050,0.127,0.556,-0.668,122.763,-24.427,66.290
2.060,0.125,0.543,-0.678,121.008,-23.191,66.183
2.060,0.126,0.542,-0.691,118.443,-23.023,65.802
2.070,0.116,0.555,-0.674,116.198,-23.328,66.473
2.070,0.133,0.563,-0.687,113.908,-21.634,67.420
2.080,0.147,0.561,-0.699,110.931,-20.076,66.473
2.080,0.149,0.568,-0.707,108.000,-18.947,65.450
2.080,0.149,0.559,-0.710,105.924,-19.725,64.763
2.090,0.148,0.557,-0.717,104.168,-21.710,64.260
2.090,0.159,0.557,-0.708,103.206,-22.458,63.969
2.100,0.175,0.548,-0.706,102.733,-21.908,64.107
2.100,0.192,0.535,-0.706,102.076,-21.542,64.076
2.110,0.195,0.543,-0.727,101.618,-22.031,63.420
2.110,0.205,0.538,-0.740,101.832,-24.076,62.443
2.110,0.233,0.548,-0.746,101.481,-25.710,61.450
2.120,0.252,0.557,-0.755,101.023,-26.794,60.595
2.120,0.266,0.564,-0.772,100.183,-27.588,58.519
2.130,0.287,0.581,-0.801,98.962,-29.053,56.580
2.130,0.295,0.606,-0.832,97.160,-30.992,54.290
2.140,0.319,0.620,-0.854,93.985,-31.664,51.863
2.140,0.340,0.635,-0.863,90.656,-30.748,50.122
2.140,0.368,0.638,-0.883,88.046,-28.351,47.756
2.150,0.390,0.646,-0.893,85.328,-25.267,45.160
2.150,0.414,0.654,-0.899,82.321,-22.061,41.985
2.160,0.435,0.648,-0.893,79.313,-18.458,38.458
2.160,0.436,0.657,-0.926,76.794,-14.260,34.916
2.160,0.435,0.661,-0.928,74.061,-9.756,31.878
2.170,0.441,0.662,-0.928,72.107,-5.328,29.908
2.170,0.438,0.647,-0.929,70.412,-0.672,28.382
2.180,0.426,0.645,-0.914,69.466,4.244,27.344
2.180,0.408,0.640,-0.936,68.397,8.794,26.504
2.180,0.409,0.648,-0.957,66.947,12.947,25.878
2.190,0.400,0.663,-0.965,64.962,16.107,25.496
2.190,0.398,0.676,-0.965,63.511,19.405,24.870
2.200,0.397,0.677,-0.968,62.351,21.496,24.275
2.200,0.390,0.672,-0.981,60.901,22.473,23.450
2.200,0.379,0.685,-0.984,59.328,21.710,22.626
2.210,0.379,0.693,-0.993,57.771,20.687,21.771
2.210,0.386,0.686,-0.982,55.924,18.626,20.855
2.220,0.388,0.700,-0.999,54.397,16.779,19.740
2.220,0.377,0.710,-0.994,52.626,13.924,18.702
2.230,0.381,0.705,-1.000,50.947,11.634,17.878
2.230,0.389,0.714,-1.004,49.496,10.214,17.618
2.230,0.385,0.712,-1.009,47.954,8.275,17.191
2.240,0.374,0.714,-1.003,47.481,4.382,16.641
2.240,0.385,0.712,-1.009,47.252,1.267,16.107
2.250,0.401,0.718,-1.016,46.763,-0.229,15.603
2.250,0.412,0.718,-1.010,46.733,-0.962,15.206
2.250,0.429,0.714,-1.014,46.351,-1.893,13.771
2.260,0.461,0.725,-1.021,46.122,-2.840,12.443
2.260,0.470,0.745,-1.043,44.824,-2.916,11.145
2.270,0.478,0.758,-1.072,42.809,-1.542,10.473
2.270,0.490,0.768,-1.088,39.969,0.092,9.527
2.270,0.494,0.773,-1.095,37.328,0.656,8.214
2.280,0.500,0.776,-1.092,34.290,0.336,6.901
2.280,0.506,0.783,-1.107,31.160,1.206,4.565
2.290,0.516,0.794,-1.112,27.679,1.878,2.763
2.290,0.500,0.798,-1.128,23.542,2.092,0.962
2.290,0.496,0.800,-1.128,19.282,2.351,-0.504
2.300,0.482,0.796,-1.136,15.298,2.382,-1.863
2.300,0.475,0.787,-1.131,12.137,2.260,-3.008
2.310,0.457,0.783,-1.117,9.557,2.122,-3.511
2.310,0.448,0.777,-1.095,7.496,1.802,-4.214
2.310,0.444,0.768,-1.093,5.389,1.985,-4.504
2.320,0.449,0.756,-1.083,3.145,1.985,-5.069
2.320,0.453,0.762,-1.063,1.344,1.053,-5.908
2.320,0.455,0.748,-1.044,-0.290,0.305,-6.947
2.330,0.468,0.746,-1.041,-1.725,-0.992,-8.000
2.330,0.456,0.747,-1.027,-3.145,-2.855,-9.069
2.340,0.460,0.750,-1.025,-4.550,-4.351,-9.969
2.340,0.459,0.750,-1.017,-5.924,-5.481,-10.916
2.350,0.471,0.741,-1.010,-7.344,-5.954,-11.954
2.350,0.480,0.738,-1.005,-8.656,-6.076,-13.130
2.350,0.477,0.737,-0.997,-9.252,-6.809,-14.473
2.360,0.474,0.743,-0.996,-9.740,-7.435,-15.802
2.360,0.474,0.736,-0.988,-10.046,-7.420,-17.221
2.370,0.466,0.744,-0.995,-11.359,-6.275,-18.641
2.370,0.465,0.751,-1.005,-13.008,-4.672,-19.771
2.370,0.459,0.744,-0.994,-14.412,-3.053,-21.008
2.380,0.442,0.745,-1.001,-16.351,-0.977,-21.649
2.380,0.425,0.743,-1.005,-18.290,1.679,-22.275
2.390,0.413,0.740,-1.001,-20.107,3.985,-22.901
2.390,0.400,0.744,-1.000,-22.198,5.511,-23.160
2.400,0.375,0.749,-0.998,-24.733,6.519,-23.496
2.400,0.370,0.751,-1.002,-27.924,7.099,-24.031
2.400,0.366,0.754,-0.975,-30.702,7.863,-24.947
2.410,0.370,0.755,-0.989,-33.756,9.038,-25.740
2.410,0.370,0.753,-0.992,-36.855,10.366,-26.534
2.420,0.359,0.741,-0.991,-40.198,11.481,-27.038
2.420,0.350,0.739,-0.988,-42.565,12.244,-27.405
2.430,0.344,0.728,-0.968,-44.534,12.763,-27.237
2.430,0.346,0.709,-0.955,-45.756,14.672,-26.977
2.430,0.330,0.692,-0.938,-46.794,16.183,-26.779
2.440,0.324,0.685,-0.939,-47.237,17.344,-26.458
2.440,0.326,0.681,-0.935,-47.954,18.641,-26.229
2.450,0.322,0.676,-0.941,-48.641,20.412,-26.260
2.450,0.321,0.679,-0.925,-49.008,22.718,-26.336
2.450,0.316,0.673,-0.932,-49.618,24.580,-26.733
2.460,0.309,0.664,-0.942,-50.672,26.015,-26.992
2.460,0.302,0.660,-0.944,-51.313,26.351,-27.832
2.470,0.293,0.658,-0.946,-51.817,26.061,-28.244
2.470,0.277,0.668,-0.963,-53.282,25.985,-28.000
2.480,0.270,0.670,-0.973,-54.992,26.061,-27.374
2.480,0.271,0.675,-0.976,-56.779,24.855,-26.626
2.480,0.271,0.683,-0.995,-59.038,22.870,-26.733
2.490,0.277,0.690,-0.996,-61.847,20.168,-27.267
2.490,0.290,0.694,-1.002,-64.901,18.336,-27.878
2.500,0.315,0.689,-0.987,-67.710,17.725,-28.641
2.500,0.324,0.671,-0.975,-70.366,18.000,-29.802
2.510,0.328,0.667,-0.967,-72.382,17.924,-31.313
2.510,0.341,0.665,-0.965,-74.519,18.366,-33.145
2.510,0.350,0.658,-0.979,-76.641,20.840,-35.038
2.520,0.355,0.662,-0.999,-78.641,24.794,-36.763
2.520,0.338,0.685,-1.026,-81.420,28.107,-38.092
2.530,0.326,0.680,-1.054,-84.290,31.038,-39.740
2.530,0.326,0.682,-1.065,-87.359,34.565,-41.069
2.540,0.307,0.675,-1.081,-90.687,37.252,-42.183
2.540,0.280,0.688,-1.095,-94.656,39.069,-42.550
2.540,0.268,0.699,-1.089,-98.702,38.672,-42.382
2.550,0.267,0.697,-1.084,-103.679,39.618,-41.985
2.550,0.274,0.699,-1.073,-108.962,40.427,-41.908
2.560,0.271,0.688,-1.057,-113.740,39.511,-42.168
2.560,0.276,0.684,-1.035,-117.939,37.802,-43.053
2.570,0.283,0.682,-1.034,-121.847,36.626,-44.595
2.570,0.295,0.682,-1.011,-125.084,34.931,-47.481
2.570,0.271,0.677,-0.983,-127.115,30.351,-46.962
2.580,0.304,0.686,-0.997,-131.176,28.855,-49.282
2.580,0.312,0.700,-0.979,-134.947,28.137,-52.534
2.590,0.329,0.682,-0.971,-137.863,30.702,-56.198
2.590,0.347,0.689,-0.978,-141.802,31.481,-58.183
2.600,0.306,0.688,-0.984,-146.412,26.718,-60.656
2.600,0.267,0.685,-0.982,-150.763,21.954,-63.191
2.600,0.283,0.646,-0.951,-153.053,23.237,-64.885
2.610,0.268,0.656,-0.949,-155.908,26.397,-65.618
2.610,0.231,0.639,-0.895,-155.863,26.382,-64.031
2.620,0.215,0.632,-0.881,-154.611,28.656,-61.573
2.620,0.170,0.662,-0.812,-160.214,26.427,-60.076
2.630,0.188,0.646,-0.822,-165.527,29.420,-58.992
2.630,0.196,0.645,-0.798,-170.183,31.939,-57.252
2.640,0.194,0.615,-0.737,-172.809,29.863,-56.351
2.640,0.196,0.623,-0.722,-173.863,27.389,-55.511
2.640,0.213,0.628,-0.698,-174.809,24.870,-54.779
2.650,0.224,0.642,-0.693,-177.084,21.679,-55.069
2.650,0.246,0.650,-0.697,-180.779,19.160,-56.305
2.660,0.246,0.654,-0.691,-184.351,14.443,-58.504
2.660,0.259,0.657,-0.688,-187.206,9.176,-60.718
2.670,0.257,0.659,-0.688,-189.695,5.481,-63.237
2.670,0.238,0.659,-0.661,-191.954,1.756,-64.229
2.670,0.219,0.650,-0.637,-193.832,-1.588,-65.679
2.680,0.212,0.652,-0.604,-195.664,-3.130,-65.924
2.680,0.205,0.641,-0.598,-198.336,-1.832,-66.198
2.690,0.185,0.639,-0.582,-202.321,1.527,-66.046
2.690,0.167,0.627,-0.558,-206.397,6.046,-65.588
2.700,0.153,0.613,-0.538,-209.664,11.542,-64.947
2.700,0.144,0.597,-0.512,-212.031,18.336,-64.672
2.700,0.115,0.579,-0.485,-214.641,23.939,-63.954
2.710,0.088,0.565,-0.445,-216.763,28.702,-62.260
2.710,0.064,0.538,-0.411,-218.031,32.962,-60.458
2.720,0.031,0.525,-0.382,-218.947,36.595,-58.290
2.720,0.009,0.517,-0.352,-219.344,38.550,-55.939
2.730,-0.017,0.494,-0.302,-217.954,37.420,-54.763
2.730,-0.021,0.479,-0.257,-215.252,32.947,-53.588
2.730,-0.028,0.471,-0.225,-212.870,26.962,-53.679
2.740,-0.033,0.479,-0.210,-210.931,19.664,-53.771
2.740,-0.017,0.482,-0.195,-208.870,12.153,-53.985
2.750,-0.008,0.489,-0.195,-207.359,4.901,-54.183
2.750,0.001,0.495,-0.193,-206.275,-0.718,-54.366
2.760,0.008,0.509,-0.198,-206.794,-4.168,-54.214
2.760,0.026,0.525,-0.209,-208.366,-5.466,-53.557
2.770,0.044,0.545,-0.220,-210.718,-5.069,-52.595
2.770,0.052,0.556,-0.209,-213.908,-3.313,-51.389
2.770,0.066,0.546,-0.201,-217.206,-0.427,-50.534
2.780,0.069,0.528,-0.173,-220.351,1.786,-50.534
2.780,0.060,0.516,-0.147,-222.702,3.740,-51.237
2.790,0.030,0.496,-0.126,-225.496,4.748,-52.015
2.790,0.011,0.480,-0.113,-228.580,4.260,-52.351
2.800,-0.021,0.467,-0.096,-231.725,2.962,-51.176
2.800,-0.062,0.448,-0.054,-233.924,0.260,-48.031
2.800,-0.089,0.424,0.002,-234.336,-3.527,-44.061
2.810,-0.072,0.387,0.079,-232.626,-4.443,-39.710
2.810,-0.045,0.357,0.149,-229.374,-3.481,-35.939
2.820,-0.039,0.340,0.200,-224.702,-2.824,-32.931
2.820,-0.048,0.326,0.248,-219.618,-3.649,-29.863
2.830,-0.034,0.329,0.266,-215.771,-3.664,-27.908
2.830,0.010,0.315,0.290,-212.672,-1.466,-26.992
2.830,0.031,0.322,0.304,-210.809,1.832,-27.130
2.840,0.034,0.317,0.316,-209.802,4.794,-27.908
2.840,0.035,0.325,0.309,-209.405,6.809,-28.870
2.850,0.034,0.330,0.292,-210.046,8.229,-30.992
2.850,0.017,0.338,0.288,-210.718,8.183,-32.672
2.860,-0.004,0.351,0.277,-211.847,7.985,-33.786
2.860,-0.031,0.361,0.254,-214.351,7.603,-34.290
2.860,-0.047,0.367,0.239,-217.664,7.802,-34.885
2.870,-0.061,0.375,0.222,-220.626,6.504,-35.053
2.870,-0.077,0.378,0.222,-223.863,3.466,-34.702
2.880,-0.086,0.352,0.241,-226.565,-1.328,-33.893
2.880,-0.085,0.335,0.288,-228.595,-5.695,-32.458
2.890,-0.081,0.298,0.330,-228.260,-9.374,-31.786
2.890,-0.087,0.267,0.426,-225.740,-16.748,-29.695
2.890,-0.089,0.252,0.482,-226.687,-24.168,-28.275
2.900,-0.004,0.229,0.453,-225.695,-21.771,-26.824
2.900,0.037,0.227,0.479,-226.351,-19.542,-25.634
2.910,0.033,0.220,0.524,-228.183,-19.542,-24.840
2.910,0.038,0.200,0.546,-230.168,-17.588,-23.710
2.920,0.039,0.176,0.584,-229.878,-15.084,-22.702
2.920,0.062,0.152,0.642,-227.802,-11.954,-21.939
2.920,0.062,0.141,0.659,-226.046,-7.603,-20.794
2.930,0.061,0.134,0.677,-224.107,-3.328,-19.496
2.930,0.061,0.120,0.696,-221.084,-0.092,-18.718
2.940,0.062,0.104,0.724,-217.115,1.420,-19.252
2.940,0.068,0.088,0.749,-213.252,1.939,-21.008
2.950,0.075,0.097,0.758,-211.695,1.496,-22.565
2.950,0.083,0.101,0.757,-211.038,-0.092,-24.611
2.950,0.090,0.111,0.735,-212.275,-1.969,-26.840
2.960,0.083,0.109,0.728,-213.099,-5.160,-28.611
2.960,0.077,0.107,0.713,-213.450,-10.458,-30.824
2.970,0.080,0.103,0.717,-212.748,-16.443,-32.672
2.970,0.088,0.099,0.704,-212.397,-22.794,-34.473
2.980,0.098,0.082,0.709,-212.107,-27.740,-35.298
2.980,0.100,0.082,0.723,-212.351,-31.954,-35.603
2.980,0.108,0.034,0.761,-211.511,-33.756,-36.137
2.990,0.109,0.006,0.832,-209.282,-36.244,-35.802
2.990,0.127,-0.047,0.929,-204.824,-29.832,-35.985
3.000,0.100,-0.073,0.990,-200.168,-21.466,-33.756
3.000,0.031,-0.105,1.015,-198.412,-22.015,-33.511
3.010,0.030,-0.130,1.046,-196.840,-21.466,-32.916
3.010,0.039,-0.150,1.098,-195.038,-13.405,-31.939
3.020,0.010,-0.153,1.167,-194.748,-5.496,-29.832
3.020,-0.004,-0.181,1.202,-192.076,2.977,-28.840
3.020,-0.071,-0.193,1.263,-190.061,9.618,-26.489
3.030,-0.133,-0.217,1.300,-185.191,12.458,-24.214
3.030,-0.179,-0.220,1.342,-179.511,13.053,-21.435
3.040,-0.207,-0.224,1.359,-173.420,12.702,-18.351
3.040,-0.252,-0.211,1.342,-167.588,10.427,-14.519
3.050,-0.266,-0.202,1.337,-162.305,6.733,-11.038
3.050,-0.273,-0.182,1.324,-155.939,0.901,-8.366
3.050,-0.249,-0.160,1.314,-151.573,-6.718,-6.351
3.060,-0.236,-0.138,1.312,-148.229,-13.878,-5.221
3.060,-0.202,-0.134,1.309,-144.031,-22.656,-5.038
3.070,-0.167,-0.134,1.301,-140.565,-31.725,-5.511
3.070,-0.116,-0.118,1.306,-136.809,-39.771,-6.198
3.080,-0.076,-0.117,1.311,-132.626,-45.511,-7.344
3.080,-0.051,-0.122,1.319,-127.130,-50.947,-8.122
3.090,-0.034,-0.113,1.322,-121.435,-54.107,-8.046
3.090,-0.016,-0.093,1.287,-117.160,-54.321,-6.947
3.090,0.016,-0.101,1.280,-112.031,-51.939,-6.611
3.100,-0.002,-0.072,1.223,-107.435,-53.588,-5.969
3.100,0.045,-0.071,1.224,-103.252,-50.107,-5.298
3.110,0.097,-0.054,1.234,-98.840,-46.519,-4.565
3.110,0.138,-0.042,1.220,-96.458,-43.237,-4.290
3.120,0.166,-0.032,1.202,-96.015,-39.634,-3.969
3.120,0.199,-0.033,1.219,-95.206,-34.977,-3.328
3.120,0.258,-0.018,1.216,-94.550,-27.496,-3.756
3.130,0.310,-0.024,1.213,-93.420,-19.664,-4.458
3.130,0.338,-0.030,1.223,-91.649,-12.061,-6.611
3.140,0.365,-0.036,1.216,-89.145,-3.924,-8.992
3.140,0.370,-0.031,1.204,-86.992,2.840,-12.076
3.150,0.365,-0.023,1.181,-85.496,8.519,-15.237
3.150,0.342,-0.041,1.159,-82.137,11.939,-18.672
3.150,0.316,-0.024,1.110,-80.382,14.351,-21.191
3.160,0.288,-0.017,1.061,-79.878,16.107,-23.969
3.160,0.265,-0.001,1.039,-80.000,17.634,-26.443
3.170,0.229,-0.012,1.014,-80.656,17.405,-28.641
3.170,0.213,-0.002,0.992,-82.000,16.916,-30.290
3.180,0.180,-0.007,0.979,-84.244,15.267,-31.053
3.180,0.147,-0.009,0.970,-85.939,14.412,-30.473
3.180,0.122,-0.021,0.974,-88.626,13.603,-29.206
3.190,0.108,-0.033,0.994,-90.580,12.305,-27.939
3.190,0.093,-0.043,1.032,-91.740,11.252,-26.626
3.200,0.089,-0.079,1.059,-91.832,10.779,-25.344
3.200,0.088,-0.086,1.102,-91.710,10.443,-24.611
3.200,0.096,-0.119,1.132,-90.794,10.550,-24.275
3.210,0.103,-0.131,1.142,-89.313,11.481,-24.229
3.210,0.097,-0.146,1.158,-87.115,12.015,-23.573
3.220,0.084,-0.153,1.167,-84.443,11.420,-23.405
3.220,0.080,-0.175,1.183,-81.450,10.885,-23.328
3.230,0.081,-0.166,1.181,-79.023,10.626,-22.977
3.230,0.063,-0.177,1.178,-76.336,9.634,-22.641
3.230,0.052,-0.175,1.178,-74.107,8.351,-22.031
3.240,0.040,-0.171,1.177,-72.015,7.221,-20.443
3.240,0.040,-0.168,1.194,-69.603,7.191,-18.870
3.250,0.055,-0.170,1.210,-67.298,8.687,-17.588
3.250,0.075,-0.165,1.213,-64.992,11.206,-16.779
3.260,0.082,-0.167,1.219,-62.702,13.573,-16.443
3.260,0.087,-0.164,1.214,-60.168,15.969,-16.290
3.260,0.094,-0.165,1.209,-58.519,18.626,-16.214
3.270,0.073,-0.156,1.198,-56.611,21.450,-16.214
3.270,0.064,-0.161,1.176,-54.275,23.954,-15.847
3.280,0.046,-0.148,1.173,-52.534,25.191,-15.496
3.280,0.021,-0.149,1.159,-51.267,24.122,-15.496
3.290,0.014,-0.147,1.125,-50.336,22.153,-14.931
3.290,-0.009,-0.140,1.107,-49.634,19.328,-13.664
3.290,-0.023,-0.143,1.121,-49.176,15.328,-12.550
3.300,-0.030,-0.148,1.123,-48.031,11.099,-11.511
3.300,-0.018,-0.157,1.128,-47.191,7.878,-10.641
3.310,-0.003,-0.159,1.157,-46.092,5.496,-9.542
3.310,0.007,-0.162,1.168,-44.153,3.725,-8.763
3.310,0.037,-0.174,1.183,-42.076,2.916,-8.855
3.320,0.067,-0.177,1.207,-39.573,3.466,-9.344
3.320,0.087,-0.175,1.208,-36.931,4.840,-9.924
3.330,0.096,-0.173,1.206,-34.366,6.611,-10.840
3.330,0.093,-0.169,1.206,-38.687,12.550,-12.061
3.340,0.571,-0.356,0.884,-8.183,54.321,-1.282
3.340,-0.061,-0.062,1.235,-29.450,33.832,-6.672
3.340,0.061,-0.234,1.207,-21.802,40.443,-3.771
3.350,0.022,-0.643,1.267,105.985,40.977,13.115
3.350,-0.033,0.258,1.169,-5.649,38.336,-15.802
3.360,0.031,-0.182,1.213,8.427,37.328,-8.870
3.360,0.092,-0.067,1.105,-8.901,54.824,-6.702
3.360,-0.067,-0.071,1.166,-20.229,41.969,-10.076
3.370,-0.082,-0.092,1.155,-23.008,26.214,-13.221
3.370,-0.040,-0.128,1.127,-21.191,23.527,-13.374
3.380,-0.052,-0.123,1.132,-13.344,25.908,-13.099
3.380,-0.090,-0.163,1.160,-13.008,19.969,-14.824
3.390,-0.059,-0.172,1.182,-9.863,18.458,-11.389
3.390,0.067,-0.295,1.178,26.580,26.061,-5.084
3.390,-0.233,-0.041,1.214,10.061,-9.740,-14.214
3.400,0.024,-0.128,1.150,4.351,2.015,-13.832
3.400,0.060,-0.062,1.082,-0.870,16.412,-11.298
3.410,-0.046,-0.090,1.125,-8.992,12.687,-13.237
3.410,-0.017,-0.172,1.142,-2.656,17.954,-10.473
3.420,-0.057,-0.158,1.144,7.053,17.817,-8.321
3.420,-0.099,-0.128,1.132,7.420,10.656,-9.145
3.420,-0.092,-0.132,1.117,6.244,10.397,-8.840
3.430,-0.085,-0.129,1.119,6.733,10.595,-8.153
3.430,-0.107,-0.126,1.097,6.824,9.252,-6.962
3.440,-0.105,-0.121,1.074,5.740,9.160,-5.832
3.440,-0.106,-0.121,1.054,4.565,9.496,-4.351
3.440,-0.115,-0.115,1.044,3.985,8.229,-3.435
3.450,-0.114,-0.114,1.020,3.969,6.198,-2.595
3.450,-0.120,-0.107,1.005,4.137,3.389,-2.321
3.460,-0.113,-0.101,0.986,3.939,1.023,-0.977
3.460,-0.100,-0.100,0.959,5.466,-0.489,-0.412
3.460,-0.088,-0.117,0.961,9.664,-3.115,0.885
3.470,-0.123,-0.083,0.955,7.481,-9.069,0.290
3.470,-0.080,-0.113,0.953,5.634,-7.313,0.962
3.480,-0.080,-0.078,0.930,2.824,-10.489,0.748
3.480,-0.086,-0.099,0.941,2.672,-14.626,0.931
3.480,-0.064,-0.114,0.951,5.420,-15.771,1.649
3.490,-0.049,-0.111,0.937,7.298,-17.618,1.771
3.490,-0.065,-0.095,0.924,6.000,-19.939,1.664
3.500,-0.022,-0.093,0.909,4.931,-17.206,2.122
3.500,-0.011,-0.081,0.884,1.298,-14.672,1.740
3.500,-0.029,-0.088,0.890,3.588,-12.336,3.160
3.510,-0.024,-0.079,0.865,1.099,-11.389,3.298
3.510,0.021,-0.107,0.860,7.206,-7.252,4.595
3.520,-0.086,-0.104,0.907,7.908,-17.618,3.496
3.520,0.028,-0.079,0.860,7.496,-9.908,3.634
3.520,-0.029,-0.083,0.881,1.863,-10.198,2.351
3.530,0.002,-0.092,0.860,2.733,-6.198,3.466
3.530,-0.010,-0.098,0.865,3.603,-5.374,3.863
3.540,-0.022,-0.102,0.857,3.481,-5.863,3.466
3.540,-0.028,-0.102,0.858,4.427,-8.183,3.710
3.540,-0.028,-0.115,0.862,4.870,-10.137,3.298
3.550,-0.025,-0.121,0.878,6.244,-12.015,3.313
3.550,-0.016,-0.107,0.860,6.214,-11.496,3.893
3.560,-0.003,-0.100,0.862,5.679,-10.443,3.908
3.560,-0.003,-0.109,0.862,6.611,-9.252,4.260
3.560,0.012,-0.109,0.865,6.244,-9.420,3.908
3.570,0.026,-0.106,0.860,6.824,-8.092,3.725
3.570,0.029,-0.098,0.851,6.076,-7.130,3.221
3.580,0.030,-0.107,0.852,6.305,-7.496,2.748
3.580,0.022,-0.101,0.838,5.695,-8.000,2.153
3.580,0.027,-0.086,0.836,5.145,-8.947,1.710
3.590,0.040,-0.094,0.827,4.718,-9.176,1.176
3.590,0.035,-0.089,0.824,3.893,-8.229,0.718
3.600,0.042,-0.091,0.821,3.924,-7.664,0.260
3.600,0.042,-0.080,0.815,2.702,-7.069,0.031
3.600,0.035,-0.089,0.816,2.641,-6.519,-0.229
3.610,0.037,-0.083,0.813,1.267,-5.893,-0.763
3.610,0.020,-0.095,0.820,0.580,-5.313,-0.977
3.620,0.036,-0.089,0.818,-0.046,-3.817,-1.099
3.620,0.041,-0.095,0.841,0.214,-2.260,-1.206
3.620,0.033,-0.087,0.826,-0.351,-0.534,-1.359
3.630,0.050,-0.080,0.827,-0.748,1.115,-1.191
3.630,0.026,-0.091,0.852,-1.191,1.908,-1.481
3.640,0.024,-0.095,0.858,-0.901,2.061,-1.496
3.640,0.031,-0.092,0.874,-0.427,2.107,-1.557
3.640,0.028,-0.094,0.875,-1.328,3.176,-1.802
3.650,0.021,-0.100,0.892,0.061,1.435,-1.847
3.650,0.021,-0.100,0.891,-0.153,0.489,-2.137
3.660,0.023,-0.105,0.898,1.450,0.015,-2.397
3.660,0.018,-0.098,0.896,1.267,-0.565,-2.718
3.660,0.025,-0.102,0.891,1.008,-0.855,-2.885
3.670,0.023,-0.096,0.901,1.359,-0.534,-2.947
3.670,0.029,-0.099,0.890,1.725,1.374,-2.641
3.680,0.030,-0.099,0.869,1.634,2.641,-2.962
3.680,0.025,-0.088,0.867,1.771,2.962,-2.977
3.680,0.021,-0.085,0.867,0.489,4.153,-3.252
3.690,0.010,-0.095,0.872,-0.061,5.481,-3.221
3.690,0.012,-0.091,0.871,-0.321,6.458,-3.115
3.700,-0.004,-0.092,0.864,-0.885,7.527,-2.885
3.700,-0.009,-0.082,0.876,-2.229,7.817,-2.718
3.700,-0.012,-0.091,0.872,-2.672,7.679,-2.702
3.710,-0.017,-0.091,0.878,-4.244,7.420,-2.718
3.710,-0.019,-0.102,0.890,-3.542,6.489,-2.198
3.720,-0.023,-0.097,0.905,-4.275,5.679,-2.168
3.720,-0.030,-0.119,0.925,-3.344,4.168,-1.740
3.720,-0.024,-0.108,0.926,-3.038,3.313,-1.679
3.730,-0.019,-0.110,0.940,-1.557,1.817,-1.496
3.730,-0.018,-0.107,0.941,-1.420,2.992,-1.573
3.740,-0.018,-0.112,0.933,0.641,1.481,-1.145
3.740,-0.024,-0.114,0.943,0.611,2.015,-0.992
3.740,-0.024,-0.115,0.932,2.137,2.015,-0.412
3.750,-0.019,-0.107,0.938,2.687,3.084,0.107
3.750,-0.023,-0.108,0.936,3.099,4.321,0.351
3.760,-0.039,-0.109,0.934,3.466,3.695,0.870
3.760,-0.041,-0.105,0.920,3.420,3.099,1.115
3.760,-0.034,-0.104,0.904,3.557,1.893,1.359
3.770,-0.041,-0.106,0.918,3.374,0.992,1.557
3.770,-0.025,-0.108,0.912,3.359,0.504,1.756
3.780,-0.021,-0.094,0.908,3.359,0.183,2.076
3.780,-0.009,-0.096,0.907,3.481,0.122,2.031
3.780,-0.016,-0.099,0.918,3.160,-0.641,2.168
3.790,-0.010,-0.101,0.919,3.237,-0.977,1.893
3.790,0.000,-0.106,0.903,3.542,-1.389,1.664
3.800,0.004,-0.103,0.911,4.137,-0.885,1.603
3.800,-0.003,-0.101,0.897,4.290,-0.153,1.786
3.800,0.004,-0.085,0.903,4.351,1.160,2.061
3.810,0.001,-0.091,0.895,4.275,1.466,2.305
3.810,-0.002,-0.088,0.895,4.107,1.908,2.473
3.810,-0.001,-0.094,0.888,4.000,2.244,2.427
3.820,-0.002,-0.092,0.895,4.244,2.305,2.565
3.820,0.000,-0.093,0.896,3.939,1.557,2.336
3.830,0.004,-0.085,0.904,3.802,1.359,2.321
3.830,0.000,-0.102,0.918,3.771,1.695,2.183
3.830,0.013,-0.098,0.901,3.725,2.336,2.122
3.840,0.016,-0.097,0.906,3.832,2.824,2.061
3.840,0.009,-0.096,0.898,4.382,2.916,1.786
3.850,-0.001,-0.090,0.899,4.519,2.107,1.618
3.850,0.001,-0.090,0.892,4.855,1.634,1.618
3.850,-0.002,-0.085,0.884,4.931,1.740,1.710
3.860,-0.005,-0.082,0.880,5.023,2.351,1.878
3.860,-0.003,-0.075,0.874,4.443,2.611,1.939
3.860,0.001,-0.076,0.863,3.954,2.214,1.756
3.870,0.001,-0.069,0.873,3.206,1.527,1.588
3.870,0.005,-0.069,0.868,2.672,1.450,1.420
3.880,-0.002,-0.069,0.868,2.305,1.435,1.527
3.880,-0.002,-0.079,0.876,1.863,1.038,1.618
3.880,-0.008,-0.074,0.889,1.893,0.855,1.634
3.890,0.002,-0.079,0.883,1.725,1.008,1.817
3.890,0.002,-0.080,0.887,1.389,1.084,1.908
3.900,0.012,-0.080,0.889,1.420,1.679,1.832
3.900,0.010,-0.077,0.895,1.466,2.718,1.908
3.900,0.015,-0.075,0.890,1.618,2.962,1.893
3.910,0.028,-0.073,0.884,1.359,3.618,1.557
3.910,0.022,-0.079,0.869,1.450,4.046,1.313
3.910,0.013,-0.072,0.873,1.405,4.595,1.084
3.920,0.016,-0.076,0.886,1.328,4.992,0.840
3.920,0.010,-0.075,0.873,1.023,5.069,0.595
3.930,0.008,-0.061,0.878,0.656,4.977,0.504
3.930,-0.004,-0.071,0.873,0.122,4.733,0.366
3.930,-0.007,-0.067,0.880,-0.198,4.275,0.351
3.940,-0.008,-0.073,0.891,0.260,3.924,0.321
3.940,-0.010,-0.077,0.903,0.763,3.069,0.443
3.950,-0.014,-0.085,0.894,1.481,2.489,0.550
3.950,-0.009,-0.084,0.895,1.695,1.802,0.458
3.950,-0.018,-0.088,0.892,1.847,0.916,0.321
3.960,-0.007,-0.084,0.906,2.000,0.595,0.366
3.960,0.012,-0.077,0.896,2.534,1.313,0.427
3.970,0.004,-0.072,0.899,2.748,2.168,0.489
3.970,0.006,-0.084,0.888,2.733,3.603,0.473
3.970,0.007,-0.077,0.886,2.718,4.519,0.565
3.980,0.004,-0.079,0.890,2.779,5.298,0.382
3.980,0.002,-0.072,0.883,2.580,5.878,0.534
3.980,-0.003,-0.066,0.874,2.275,6.687,0.336
3.990,-0.006,-0.067,0.875,1.679,7.405,0.611
3.990,-0.013,-0.066,0.875,1.084,8.137,0.718
4.000,-0.006,-0.072,0.871,0.260,8.977,0.947
4.000,-0.022,-0.073,0.866,-0.137,9.435,1.069
4.000,-0.025,-0.075,0.870,-0.656,9.817,1.282
4.010,-0.033,-0.072,0.875,-1.069,9.756,1.542
4.010,-0.033,-0.075,0.879,-1.481,10.046,2.031
4.020,-0.026,-0.077,0.876,-1.893,10.779,2.412
4.020,-0.021,-0.079,0.877,-1.924,11.267,2.565
4.020,-0.036,-0.078,0.885,-1.985,11.664,3.160
4.030,-0.026,-0.084,0.878,-1.557,11.389,3.160
4.030,-0.029,-0.091,0.895,-0.824,8.962,3.389
4.040,-0.022,-0.094,0.908,-0.275,8.687,3.389
4.040,-0.027,-0.091,0.913,0.336,7.573,3.450
4.040,-0.032,-0.095,0.910,1.084,6.275,3.878
4.050,-0.035,-0.091,0.933,1.664,4.519,3.802
4.050,-0.034,-0.096,0.928,2.672,1.985,3.710
4.060,-0.022,-0.088,0.930,3.328,-0.107,3.053
4.060,-0.016,-0.090,0.927,3.710,-1.511,2.611
4.060,-0.007,-0.086,0.925,4.779,-2.779,2.443
4.070,-0.007,-0.086,0.917,5.756,-4.443,1.924
4.070,-0.000,-0.081,0.923,6.534,-5.908,2.076
4.080,0.001,-0.079,0.908,7.130,-8.504,1.450
4.080,0.002,-0.072,0.900,7.832,-11.267,0.718
4.080,0.016,-0.073,0.868,7.084,-7.038,0.840
4.090,-0.016,-0.071,0.861,6.382,-4.565,1.206
4.090,-0.016,-0.067,0.862,5.695,-3.115,1.542
