Time,acce_x,acce_y,acce_z,gyro_x,gyro_y,gyro_z
0.000,-0.235,-0.047,0.891,5.969,-33.847,-5.298
0.000,-0.307,-0.064,0.930,6.885,-36.107,-6.427
0.010,-0.198,-0.044,0.949,16.321,-33.771,6.824
0.010,-0.081,-0.010,0.928,12.061,-24.885,2.901
0.020,-0.222,-0.050,0.904,14.733,-31.908,0.504
0.020,-0.082,-0.033,0.931,16.015,-31.053,3.344
0.030,-0.127,0.011,0.829,10.855,-26.397,1.069
0.030,-0.076,-0.016,0.847,11.344,-25.206,3.282
0.030,-0.090,0.002,0.832,9.786,-20.473,2.962
0.040,-0.099,-0.007,0.833,9.344,-19.298,3.405
0.040,-0.085,-0.004,0.828,5.924,-12.794,4.427
0.050,-0.041,-0.024,0.864,6.580,-10.595,6.153
0.050,-0.071,-0.007,0.827,-1.176,-8.916,3.878
0.050,-0.072,-0.020,0.853,-3.252,-5.756,3.023
0.060,-0.108,-0.030,0.852,-3.282,-5.527,2.641
0.060,-0.071,-0.032,0.894,-0.794,-1.954,3.588
0.070,-0.094,-0.025,0.895,-3.237,1.481,1.969
0.070,-0.107,-0.036,0.892,-6.733,2.824,-0.015
0.070,-0.099,-0.043,0.922,-8.489,1.038,-1.176
0.080,-0.137,-0.063,0.942,-10.015,-6.168,-3.985
0.080,-0.127,-0.060,0.964,-8.565,-12.779,-6.351
0.090,-0.076,-0.053,0.931,-9.435,-14.458,-9.420
0.090,-0.029,-0.026,0.917,-13.221,-11.771,-10.962
0.100,-0.172,-0.081,0.961,-10.183,-19.511,-18.397
0.100,-0.115,-0.037,0.921,-12.626,-22.351,-12.427
0.100,-0.089,-0.049,0.886,-11.893,-19.313,-9.710
0.110,-0.094,-0.034,0.895,-11.267,-19.847,-8.183
0.110,-0.145,-0.075,0.904,-7.374,-19.527,-6.763
0.120,-0.075,-0.069,0.883,-5.267,-7.679,-4.901
0.120,-0.036,-0.059,0.869,-1.649,-6.718,-5.313
0.130,-0.042,-0.040,0.895,-3.038,-3.160,-6.076
0.130,-0.142,-0.037,0.870,-3.695,-6.870,-4.794
0.130,-0.220,-0.059,0.884,-6.275,-10.351,-5.115
0.140,-0.234,-0.062,0.894,-7.130,-16.336,-4.641
0.140,-0.147,-0.053,0.877,-11.511,-10.550,-3.267
0.150,-0.118,-0.063,0.910,-9.359,-8.962,-2.550
0.150,-0.110,-0.063,0.911,-7.969,-8.656,-2.855
0.160,-0.107,-0.073,0.910,-5.160,-7.435,-3.481
0.160,-0.124,-0.045,0.845,-2.794,-9.298,-2.840
0.160,-0.116,-0.037,0.829,-2.519,-8.366,-1.802
0.170,-0.110,-0.031,0.838,-3.359,-8.382,-0.870
0.170,-0.112,-0.038,0.842,-2.611,-6.397,0.092
0.180,-0.111,-0.048,0.857,-2.305,-2.656,1.466
0.180,-0.112,-0.038,0.830,-1.435,-1.695,1.740
0.180,-0.107,-0.024,0.803,-4.458,-4.076,1.557
0.190,-0.117,-0.011,0.809,-5.466,-9.664,1.298
0.190,-0.057,-0.022,0.823,-8.870,-4.794,0.977
0.200,-0.076,-0.044,0.862,-7.176,-3.511,-0.947
0.200,-0.119,-0.056,0.891,-6.290,-8.947,-3.847
0.200,-0.119,-0.050,0.855,-6.641,-10.656,-5.634
0.210,-0.141,-0.045,0.857,-8.366,-11.191,-6.885
0.210,-0.168,-0.047,0.838,-8.718,-14.321,-7.603
0.220,-0.188,-0.042,0.835,-9.130,-17.206,-8.000
0.220,-0.199,-0.052,0.861,-8.565,-22.382,-8.122
0.230,-0.205,-0.045,0.841,-8.412,-26.504,-8.397
0.230,-0.178,-0.043,0.868,-8.916,-29.542,-8.473
0.230,-0.158,-0.054,0.877,-10.397,-36.565,-10.565
0.240,-0.093,-0.041,0.885,-11.771,-36.076,-10.412
0.240,-0.079,-0.047,0.902,-11.023,-34.611,-10.885
0.250,-0.088,-0.072,0.892,-10.962,-32.748,-11.160
0.250,-0.044,-0.068,0.911,-9.908,-27.344,-11.573
0.260,-0.017,-0.073,0.896,-7.344,-21.847,-12.046
0.260,-0.060,-0.065,0.917,-6.244,-20.840,-12.840
0.270,-0.013,-0.078,0.880,-1.679,-4.198,-13.221
0.270,0.187,0.012,0.870,-6.611,33.771,-5.802
0.270,0.035,-0.017,1.065,-9.573,27.496,-7.710
0.280,0.246,-0.190,0.949,10.916,44.397,-13.679
0.280,0.037,-0.047,1.068,18.290,21.282,-13.115
0.290,-0.143,-0.073,0.820,26.489,1.924,-9.481
0.290,-0.059,0.059,0.687,13.557,25.023,-0.947
0.290,-0.367,-0.061,0.810,23.802,7.008,1.282
0.300,-0.172,-0.079,0.898,27.511,10.687,0.595
0.300,-0.094,-0.035,0.876,26.168,10.763,-5.313
0.310,-0.159,-0.001,0.794,18.321,4.260,-6.229
0.310,-0.091,0.060,0.810,3.588,-13.893,-11.557
0.310,-0.179,-0.027,0.863,0.962,-37.786,-12.901
0.320,-0.053,-0.014,0.875,-10.992,-28.916,-13.802
0.320,-0.119,-0.040,0.867,-15.389,-24.763,-13.695
0.330,-0.088,-0.055,0.901,-16.489,-15.359,-11.496
0.330,-0.080,-0.064,0.887,-16.046,-8.031,-8.550
0.340,-0.066,-0.093,0.896,-11.847,-0.351,-7.298
0.340,-0.087,-0.094,0.911,-6.046,4.855,-4.809
0.340,-0.126,-0.097,0.916,-1.435,5.374,-3.542
0.350,-0.131,-0.087,0.899,0.931,5.511,-2.702
0.350,-0.101,-0.077,0.898,1.145,5.756,-2.901
0.360,-0.104,-0.078,0.934,1.344,2.397,-3.847
0.360,-0.126,-0.072,0.971,4.931,-5.588,-4.504
0.360,-0.116,-0.057,0.949,-1.603,-11.618,-7.863
0.370,-0.115,-0.076,0.974,-0.458,-15.008,-6.046
0.370,-0.092,-0.070,0.950,-1.191,-13.496,-5.145
0.380,-0.099,-0.055,0.954,-3.328,-15.496,-3.420
0.380,-0.096,-0.060,0.939,-3.481,-16.168,-3.252
0.390,-0.081,-0.065,0.930,-2.458,-15.740,-3.573
0.390,-0.069,-0.043,0.928,-2.687,-13.359,-2.565
0.390,-0.073,-0.055,0.921,-0.122,-13.084,-2.519
0.400,-0.054,-0.048,0.890,1.084,-9.771,-1.328
0.400,-0.051,-0.038,0.899,1.405,-7.313,-0.229
0.410,-0.059,-0.033,0.880,3.084,-5.954,0.824
0.410,-0.062,-0.038,0.874,3.542,-5.603,1.115
0.410,-0.058,-0.028,0.874,4.061,-6.107,1.359
0.420,-0.048,-0.027,0.866,4.122,-5.099,1.893
0.420,-0.036,-0.017,0.869,2.916,-3.053,2.443
0.430,-0.041,-0.032,0.863,1.634,-1.695,1.145
0.430,-0.038,-0.029,0.864,0.305,-0.122,0.595
0.430,-0.033,-0.026,0.855,-1.160,2.733,0.397
0.440,-0.052,-0.035,0.870,-1.924,4.107,0.580
0.440,-0.060,-0.041,0.865,-2.351,3.496,-0.595
0.450,-0.057,-0.053,0.895,-1.557,0.672,-1.176
0.450,-0.078,-0.044,0.891,-1.603,-0.702,-1.969
0.460,-0.056,-0.058,0.919,-1.191,2.427,-1.817
0.460,-0.088,-0.054,0.917,0.260,2.076,-1.481
0.460,-0.092,-0.071,0.930,1.389,1.527,-0.977
0.470,-0.087,-0.065,0.915,2.443,0.076,-0.550
0.470,-0.095,-0.060,0.910,3.313,-2.015,-0.901
0.480,-0.105,-0.059,0.933,4.565,-6.763,0.046
0.480,-0.093,-0.060,0.927,5.786,-10.153,-0.626
0.480,-0.092,-0.063,0.924,7.893,-12.626,-1.053
0.490,-0.069,-0.049,0.915,8.794,-13.344,-0.656
0.490,-0.074,-0.056,0.914,10.473,-15.908,-0.061
0.500,-0.060,-0.061,0.914,12.290,-17.313,-0.565
0.500,-0.077,-0.063,0.922,13.282,-20.366,-1.069
0.500,-0.045,-0.051,0.897,14.473,-16.962,-0.718
0.510,-0.012,-0.040,0.887,14.901,-8.840,-0.641
0.510,-0.025,-0.049,0.891,14.977,-3.725,-0.336
0.520,-0.048,-0.021,0.877,13.863,-1.008,0.397
0.520,-0.042,-0.021,0.855,11.939,1.588,0.137
0.530,-0.041,-0.013,0.854,9.969,4.076,0.534
0.530,-0.065,-0.017,0.851,7.496,3.603,0.901
0.530,-0.057,-0.030,0.873,6.275,6.748,1.053
0.540,-0.054,-0.017,0.874,4.916,11.008,2.962
0.540,-0.047,-0.028,0.874,3.817,12.809,2.122
0.540,-0.044,-0.024,0.861,2.641,13.740,2.947
0.550,-0.052,-0.013,0.859,1.740,15.740,4.122
0.550,-0.063,-0.017,0.867,0.565,17.221,5.084
0.560,-0.079,-0.034,0.868,0.092,15.832,4.641
0.560,-0.089,-0.026,0.874,-1.206,13.588,4.412
0.560,-0.152,-0.024,0.919,-1.466,0.702,4.336
0.570,-0.092,-0.042,0.902,-0.153,-0.855,2.504
0.570,-0.036,-0.052,0.925,1.695,1.267,1.969
0.580,-0.032,-0.032,0.904,2.748,2.687,1.847
0.580,-0.051,-0.041,0.890,4.321,3.008,1.710
0.580,-0.056,-0.030,0.874,4.855,4.809,1.176
0.590,-0.055,-0.027,0.842,5.893,5.176,0.794
0.590,-0.048,-0.019,0.835,5.878,6.947,1.344
0.600,-0.084,-0.029,0.812,5.969,5.313,1.420
0.600,-0.069,-0.003,0.823,3.328,7.023,1.389
0.600,-0.070,-0.011,0.814,2.366,8.336,2.092
0.610,-0.058,-0.021,0.827,1.405,11.756,2.153
0.610,-0.053,-0.019,0.843,0.473,16.000,2.672
0.620,-0.039,-0.013,0.853,0.443,20.290,3.496
0.620,-0.040,-0.008,0.850,0.931,22.443,3.939
0.620,-0.028,-0.005,0.848,0.977,24.824,4.809
0.630,-0.059,-0.016,0.862,0.840,25.130,4.718
0.630,-0.065,0.000,0.848,-0.504,26.198,5.985
0.640,-0.081,-0.016,0.869,-1.267,24.962,6.473
0.640,-0.085,-0.013,0.885,-1.664,21.740,6.809
0.640,-0.081,-0.025,0.894,-1.710,20.458,6.870
0.650,-0.097,-0.018,0.893,-0.595,19.924,8.061
0.650,-0.123,-0.021,0.881,-0.031,16.305,8.947
0.660,-0.141,-0.035,0.894,0.580,10.702,8.366
0.660,-0.145,-0.029,0.895,1.405,5.588,8.702
0.660,-0.125,-0.015,0.878,1.756,2.504,8.626
0.670,-0.103,-0.025,0.878,4.229,1.389,8.885
0.670,-0.082,-0.007,0.848,6.275,1.298,8.779
0.680,-0.074,-0.004,0.842,6.321,-0.794,9.191
0.680,-0.110,-0.040,0.864,8.336,-5.725,7.160
0.680,-0.164,-0.017,0.861,6.794,-15.634,6.092
0.690,-0.167,-0.021,0.867,4.198,-21.893,6.305
0.690,-0.136,0.008,0.842,1.542,-22.000,6.092
0.700,-0.089,0.014,0.851,-1.389,-17.160,7.313
0.700,-0.095,-0.007,0.868,-3.008,-16.580,6.580
0.700,-0.100,-0.018,0.897,-3.924,-18.046,5.603
0.710,-0.101,-0.032,0.899,-3.664,-19.939,4.870
0.710,-0.068,-0.001,0.869,-6.916,-15.908,3.756
0.720,-0.056,0.000,0.873,-9.023,-9.908,4.702
0.720,-0.072,-0.017,0.879,-10.763,-6.366,4.229
0.730,-0.083,-0.037,0.887,-11.008,-4.916,3.603
0.730,-0.096,-0.016,0.908,-9.420,-5.420,5.847
0.730,-0.119,-0.042,0.910,-8.076,-10.000,4.885
0.740,-0.091,-0.034,0.927,-4.733,-11.008,6.061
0.740,-0.078,-0.013,0.913,-3.008,-13.145,6.290
0.750,-0.078,-0.026,0.902,-1.664,-16.168,5.053
0.750,-0.075,-0.017,0.887,0.290,-18.733,4.824
0.750,-0.062,0.001,0.886,0.229,-18.672,4.641
0.760,-0.052,-0.009,0.880,-0.565,-18.534,2.473
0.760,-0.059,-0.007,0.893,-2.214,-19.313,2.076
0.770,-0.067,-0.008,0.903,-5.664,-18.809,0.977
0.770,-0.061,-0.010,0.897,-9.084,-16.626,1.618
0.770,-0.059,-0.012,0.903,-11.847,-14.107,2.519
0.780,-0.038,-0.034,0.895,-11.969,-8.885,2.870
0.780,-0.035,-0.027,0.905,-11.786,-3.145,4.244
0.790,-0.041,-0.042,0.917,-10.702,1.603,3.802
0.790,-0.031,-0.037,0.906,-9.481,7.756,4.382
0.800,-0.030,-0.048,0.913,-7.313,12.198,3.969
0.800,-0.035,-0.034,0.885,-6.443,15.542,3.389
0.800,-0.062,-0.018,0.880,-6.046,15.832,4.168
0.810,-0.089,-0.026,0.847,-5.191,11.908,3.145
0.810,-0.084,0.003,0.842,-5.527,8.962,3.374
0.820,-0.098,-0.018,0.840,-5.496,3.893,2.718
0.820,-0.089,-0.008,0.843,-6.748,2.595,2.443
0.820,-0.094,-0.017,0.838,-8.687,0.763,1.160
0.830,-0.084,0.001,0.831,-10.565,-0.214,1.588
0.830,-0.090,-0.009,0.830,-12.473,-1.115,1.466
0.840,-0.080,-0.001,0.840,-13.511,-2.992,2.595
0.840,-0.107,-0.021,0.840,-16.779,-7.298,0.702
0.840,-0.098,-0.023,0.851,-15.786,-12.489,0.046
0.850,-0.039,-0.038,0.898,-15.420,-7.298,0.565
0.850,-0.028,-0.045,0.903,-15.191,-2.321,-0.397
0.860,-0.021,-0.051,0.930,-11.985,3.649,1.771
0.860,-0.032,-0.064,0.938,-9.847,7.817,1.786
0.860,-0.035,-0.062,0.951,-6.336,10.275,2.351
0.870,-0.042,-0.073,0.951,-3.924,12.214,1.863
0.870,-0.039,-0.073,0.948,-1.710,14.885,2.122
0.880,-0.055,-0.074,0.936,-0.214,15.008,1.618
0.880,-0.063,-0.064,0.940,1.588,15.420,2.290
0.890,-0.069,-0.057,0.927,1.969,14.687,2.198
0.890,-0.062,-0.048,0.909,1.725,15.069,2.840
0.890,-0.062,-0.053,0.897,0.672,15.527,2.519
0.900,-0.084,-0.031,0.889,1.160,13.527,3.313
0.900,-0.096,-0.032,0.872,-0.015,10.000,1.878
0.910,-0.097,-0.025,0.861,-1.359,4.137,1.023
0.910,-0.104,-0.014,0.863,-3.328,-3.221,1.115
0.910,-0.139,-0.030,0.881,-6.351,-15.374,-0.366
0.920,-0.100,-0.031,0.866,-10.000,-15.511,-1.786
0.920,-0.037,-0.030,0.885,-14.153,-7.282,-2.290
0.930,-0.102,-0.046,0.901,-11.557,-11.618,-1.817
0.930,-0.066,-0.038,0.900,-14.611,-6.885,-3.115
0.930,-0.061,-0.035,0.869,-14.718,-8.305,-3.710
0.940,-0.012,-0.031,0.891,-16.107,-1.664,-4.550
0.940,-0.156,-0.049,0.892,-12.687,-16.992,-4.031
0.950,-0.151,-0.031,0.885,-11.435,-16.870,-2.794
0.950,-0.026,-0.018,0.891,-17.634,-3.786,-1.817
0.960,-0.095,-0.066,0.872,-12.321,-13.802,-1.969
0.960,-0.014,0.012,0.853,-14.290,-7.313,-0.229
0.960,-0.093,-0.062,0.889,-10.275,-8.137,0.641
0.970,-0.021,-0.030,0.880,-10.229,-1.084,0.214
0.970,-0.035,-0.047,0.879,-8.382,-0.672,0.107
0.980,-0.004,-0.034,0.858,-7.863,1.313,-1.405
0.980,-0.004,-0.005,0.875,-6.870,2.962,-0.519
0.990,-0.074,-0.054,0.906,-2.321,-5.466,-0.702
0.990,-0.025,-0.027,0.904,-4.305,-4.656,0.305
0.990,-0.035,-0.064,0.906,-2.519,-6.153,-1.069
1.000,-0.018,-0.057,0.876,-1.802,-4.641,-2.901
1.000,-0.019,-0.042,0.891,-0.519,-2.779,-1.878
1.010,-0.046,-0.069,0.896,2.718,-2.031,-2.473
1.010,-0.051,-0.046,0.876,2.870,-0.305,-0.519
1.010,-0.064,-0.083,0.878,3.954,-0.214,-2.656
1.020,-0.061,-0.034,0.867,2.656,0.779,-1.389
1.020,-0.073,-0.059,0.865,2.885,0.779,-1.313
1.030,-0.079,-0.040,0.861,2.031,-0.244,0.779
1.030,-0.100,-0.060,0.859,1.649,-2.595,-0.870
1.030,-0.093,-0.040,0.855,-0.351,-3.374,-1.267
1.040,-0.090,-0.045,0.868,-1.557,-4.809,-1.573
1.040,-0.069,-0.050,0.864,-3.252,-4.641,-2.107
1.050,-0.066,-0.033,0.867,-5.084,-4.702,-1.237
1.050,-0.076,-0.052,0.873,-6.443,-5.405,-1.771
1.060,-0.060,-0.048,0.879,-7.008,-5.344,-1.771
1.060,-0.068,-0.057,0.868,-7.038,-5.649,-2.015
1.060,-0.069,-0.066,0.885,-7.237,-5.267,-2.931
1.070,-0.059,-0.062,0.898,-7.802,-5.740,-2.977
1.070,-0.081,-0.079,0.894,-7.344,-8.641,-4.015
1.080,-0.047,-0.054,0.914,-6.718,-8.519,-3.802
1.080,-0.028,-0.075,0.928,-2.885,-5.313,-3.206
1.080,-0.043,-0.086,0.942,-1.221,-3.954,-3.725
1.090,-0.040,-0.064,0.930,-0.397,-1.863,-3.435
1.090,-0.024,-0.063,0.918,0.244,2.351,-2.931
1.100,-0.017,-0.062,0.912,1.099,6.641,-3.267
1.100,-0.028,-0.041,0.894,-0.153,8.947,-3.405
1.100,-0.042,-0.059,0.892,1.649,7.847,-3.023
1.110,-0.079,-0.045,0.858,0.427,1.176,-4.947
1.110,-0.064,-0.025,0.867,-0.763,-1.252,-4.153
1.120,-0.061,-0.037,0.867,-1.405,-0.656,-3.435
1.120,-0.056,-0.031,0.885,-5.191,0.015,-4.031
1.130,-0.036,-0.026,0.829,-9.481,7.496,-6.534
1.130,0.016,0.020,0.833,-19.038,19.145,-6.305
1.130,-0.117,-0.055,0.858,-16.611,6.351,-7.557
1.140,-0.009,-0.011,0.837,-33.298,20.382,-9.481
1.140,-0.196,-0.101,0.917,-26.015,-3.954,-10.840
1.150,-0.040,-0.009,0.868,-30.901,3.130,-7.496
1.150,-0.045,-0.043,0.920,-31.466,2.779,-8.687
1.150,-0.110,-0.090,0.923,-24.702,-2.702,-6.137
1.160,-0.052,-0.075,0.917,-23.740,4.550,-7.130
1.160,-0.056,-0.077,0.910,-20.061,6.244,-6.137
1.170,-0.064,-0.085,0.900,-15.847,5.130,-6.321
1.170,-0.087,-0.108,0.904,-11.053,1.420,-6.870
1.180,-0.087,-0.087,0.927,-7.099,-4.458,-7.038
1.180,-0.115,-0.116,0.927,-2.046,-10.550,-7.145
1.180,-0.075,-0.067,0.912,-6.733,-8.962,-8.504
1.190,-0.130,-0.088,0.885,-4.763,-17.435,-10.763
1.190,-0.054,0.000,0.868,-12.916,-13.130,-8.382
1.200,-0.134,-0.064,0.871,-17.221,-21.038,-9.908
1.200,-0.146,-0.076,0.881,-18.947,-28.122,-11.191
1.210,-0.099,-0.042,0.848,-25.252,-28.840,-11.176
1.210,-0.040,-0.031,0.819,-30.840,-20.427,-9.847
1.210,-0.075,-0.056,0.841,-29.878,-24.153,-8.427
1.220,-0.048,-0.062,0.828,-28.718,-24.031,-8.214
1.220,-0.050,-0.052,0.871,-27.802,-24.870,-8.092
1.230,-0.038,-0.070,0.888,-28.427,-23.908,-9.008
1.230,-0.031,-0.062,0.856,-32.550,-20.748,-9.176
1.240,-0.012,-0.065,0.857,-35.588,-15.344,-9.954
1.240,-0.037,-0.097,0.871,-33.603,-17.435,-9.817
1.240,-0.037,-0.113,0.880,-28.718,-21.313,-7.389
1.250,-0.036,-0.116,0.899,-24.198,-27.176,-9.099
1.250,-0.017,-0.137,0.924,-18.550,-30.015,-9.893
1.260,0.001,-0.134,0.927,-13.588,-26.443,-10.015
1.260,-0.041,-0.147,0.963,-9.649,-26.733,-15.496
1.270,-0.082,-0.148,0.911,1.634,-29.969,-12.244
1.270,0.059,-0.051,0.847,-6.611,-9.084,-8.763
1.270,-0.001,-0.111,0.820,-0.031,-11.359,-6.427
1.280,-0.040,-0.085,0.869,0.137,-4.901,-7.328
1.280,-0.070,-0.115,0.894,0.656,-10.046,-7.771
1.290,-0.079,-0.087,0.871,1.725,-12.336,-6.321
1.290,-0.030,-0.068,0.834,-3.740,-7.328,-4.519
1.300,-0.027,-0.086,0.854,-5.450,-4.382,-3.725
1.300,-0.012,-0.095,0.863,-4.885,-4.351,-2.656
1.300,-0.006,-0.103,0.881,-4.916,-0.962,-2.855
1.310,0.012,-0.098,0.862,-5.618,3.176,-3.084
1.310,-0.006,-0.090,0.851,-5.542,6.809,-1.435
1.320,-0.025,-0.100,0.874,-3.725,5.634,0.305
1.320,-0.030,-0.104,0.907,-0.977,3.450,1.573
1.320,-0.044,-0.135,0.948,5.969,0.260,2.229
1.330,-0.044,-0.165,0.965,14.305,-0.733,2.153
1.330,-0.046,-0.159,0.996,20.504,-3.145,2.504
1.340,-0.035,-0.152,0.948,24.885,-4.595,2.885
1.340,-0.020,-0.146,0.935,29.145,-5.206,2.214
1.340,-0.030,-0.148,0.940,35.878,-7.328,0.473
1.350,0.004,-0.112,0.960,37.847,-5.298,3.588
1.350,-0.052,-0.120,0.925,38.977,-9.557,1.573
1.360,-0.094,-0.115,0.886,38.687,-5.725,-2.153
1.360,0.031,-0.046,0.879,31.954,-0.656,1.969
1.360,-0.050,-0.051,0.867,29.267,-6.794,1.374
1.370,-0.038,-0.065,0.864,26.977,-10.366,0.733
1.370,-0.008,-0.068,0.874,25.756,-8.015,0.809
1.380,-0.011,-0.046,0.856,25.924,-10.702,2.351
1.380,0.036,-0.056,0.889,21.695,4.656,2.366
1.380,-0.018,-0.029,0.837,15.511,3.802,1.710
1.390,-0.063,-0.035,0.860,13.359,-1.237,2.046
1.390,-0.051,-0.062,0.848,12.595,-0.031,2.137
1.400,-0.021,-0.039,0.856,9.237,5.786,2.733
1.400,-0.029,-0.051,0.861,8.290,8.275,3.038
1.400,-0.064,-0.070,0.850,11.557,6.275,2.031
1.410,0.008,-0.031,0.895,7.908,13.298,4.977
1.410,-0.048,-0.057,0.887,8.015,9.466,3.084
1.420,-0.049,-0.070,0.915,10.519,4.824,3.908
1.420,-0.048,-0.085,0.928,13.023,2.092,2.687
1.420,-0.040,-0.079,0.954,15.511,-0.733,4.122
1.430,-0.029,-0.080,0.934,16.947,0.443,4.336
1.430,-0.025,-0.085,0.931,19.695,1.130,5.130
1.440,-0.030,-0.076,0.932,20.214,1.160,5.802
1.440,-0.024,-0.077,0.939,21.344,0.718,6.824
1.440,-0.039,-0.083,0.917,22.351,-1.435,6.412
1.450,-0.048,-0.076,0.918,22.214,-2.901,6.504
1.450,-0.028,-0.061,0.908,21.359,-2.473,6.061
1.460,-0.011,-0.060,0.908,20.061,-1.985,5.374
1.460,-0.007,-0.057,0.913,19.069,-1.725,4.885
1.460,0.001,-0.052,0.905,17.084,0.260,4.336
1.470,-0.009,-0.047,0.904,14.656,2.153,3.802
1.470,0.010,-0.045,0.901,12.000,5.664,3.710
1.480,0.015,-0.041,0.894,9.908,8.153,3.221
1.480,0.035,-0.037,0.887,8.687,10.458,1.954
1.480,0.018,-0.026,0.898,7.969,9.802,1.695
1.490,-0.016,-0.021,0.892,6.260,8.290,2.336
1.490,-0.034,-0.031,0.883,4.611,8.519,1.450
1.500,-0.062,-0.021,0.887,3.542,5.573,1.618
1.500,-0.048,-0.026,0.885,3.282,2.748,1.405
1.500,-0.029,-0.028,0.891,2.916,1.374,1.008
1.510,-0.031,-0.027,0.885,2.656,0.611,0.947
1.510,-0.014,-0.035,0.898,3.008,1.191,1.038
1.520,-0.006,-0.044,0.895,4.168,2.626,1.221
1.520,-0.016,-0.038,0.906,5.298,3.511,1.359
1.520,-0.037,-0.039,0.906,6.489,3.053,1.618
1.530,-0.025,-0.042,0.902,6.534,2.809,1.710
1.530,-0.019,-0.045,0.912,8.763,2.336,2.321
1.540,-0.009,-0.036,0.896,9.618,2.641,2.153
1.540,-0.017,-0.037,0.894,10.137,2.580,2.244
1.540,-0.024,-0.038,0.883,10.733,3.237,1.496
1.550,0.007,-0.018,0.876,9.588,6.519,2.489
1.550,-0.022,-0.027,0.855,8.595,5.053,1.649
1.550,-0.022,-0.012,0.855,7.313,3.939,1.206
1.560,-0.018,-0.026,0.858,7.237,3.573,0.870
1.560,-0.012,-0.006,0.849,5.649,3.634,0.580
1.570,-0.014,-0.017,0.846,4.931,2.763,0.305
1.570,-0.016,-0.018,0.846,4.260,1.924,-0.092
1.570,-0.020,-0.026,0.856,3.420,0.336,0.092
1.580,-0.019,-0.005,0.853,1.344,-0.214,0.015
1.580,-0.018,-0.032,0.869,2.382,-0.794,-0.229
1.590,-0.025,-0.023,0.859,1.817,-1.084,-0.183
1.590,-0.018,-0.022,0.868,0.534,-1.924,-0.534
1.590,-0.010,-0.017,0.873,-0.809,-1.710,-0.794
1.600,-0.007,-0.013,0.854,-1.817,-1.130,-1.099
1.600,-0.013,-0.021,0.871,-2.473,-0.260,-1.099
1.610,-0.017,-0.018,0.866,-3.176,0.718,-0.916
1.610,-0.014,-0.022,0.878,-3.679,1.115,-1.008
1.620,-0.015,-0.040,0.886,-3.237,1.298,-1.160
1.620,-0.009,-0.037,0.902,-2.489,1.924,-1.405
1.620,-0.019,-0.044,0.896,-1.237,1.863,-1.649
1.630,-0.026,-0.052,0.926,-0.504,1.389,-1.603
1.630,-0.027,-0.047,0.920,0.229,2.595,-1.267
1.640,-0.013,-0.048,0.920,0.931,4.580,-1.145
1.640,-0.023,-0.044,0.910,2.000,6.076,-0.824
1.640,-0.041,-0.040,0.896,2.718,5.115,-0.947
1.650,-0.041,-0.034,0.891,2.855,2.779,-0.947
1.650,-0.035,-0.024,0.884,2.855,1.023,-1.176
1.660,-0.030,-0.024,0.880,2.443,0.595,-1.038
1.660,-0.042,-0.021,0.877,2.076,0.519,-0.870
1.660,-0.050,-0.011,0.871,1.359,-0.260,-0.427
1.670,-0.066,-0.015,0.879,0.992,-2.061,-0.229
1.670,-0.059,-0.017,0.882,0.229,-3.695,-0.015
1.680,-0.038,-0.012,0.873,-0.244,-3.802,0.260
1.680,-0.037,-0.017,0.890,-0.244,-2.885,0.443
1.680,-0.038,-0.009,0.874,-0.641,-2.519,0.458
1.690,-0.040,-0.015,0.874,-1.160,-2.031,-0.076
1.690,-0.028,-0.012,0.875,-2.031,-1.130,-0.427
1.700,-0.018,-0.009,0.881,-2.290,-0.214,-0.550
1.700,-0.016,-0.009,0.868,-2.015,0.473,-0.427
1.700,-0.026,-0.017,0.873,-2.046,0.748,-1.267
1.710,-0.038,-0.023,0.893,-1.756,0.122,-1.282
1.710,-0.032,-0.017,0.884,-2.031,-0.366,-1.252
1.720,-0.032,-0.022,0.893,-1.649,0.183,-2.000
1.720,-0.040,-0.020,0.896,-1.450,0.092,-1.954
1.720,-0.048,-0.040,0.910,0.809,-0.351,-2.137
1.730,-0.055,-0.025,0.908,1.496,-0.366,-1.725
1.730,-0.058,-0.033,0.909,1.695,-0.031,-2.000
1.740,-0.064,-0.029,0.896,2.275,-0.473,-1.863
1.740,-0.068,-0.031,0.892,3.450,-1.863,-2.061
1.750,-0.063,-0.025,0.900,4.046,-3.435,-2.198
1.750,-0.053,-0.016,0.882,4.015,-3.649,-2.092
1.750,-0.050,-0.023,0.887,3.893,-3.252,-1.863
1.760,-0.047,-0.022,0.884,3.344,-2.626,-1.206
1.760,-0.047,-0.015,0.883,2.534,-1.374,-0.855
1.770,-0.051,-0.021,0.884,1.511,-1.420,-0.427
1.770,-0.050,-0.021,0.895,1.053,-0.916,0.275
1.770,-0.038,-0.025,0.906,0.855,-0.595,0.473
1.780,-0.025,-0.027,0.903,0.840,1.252,0.611
1.780,-0.024,-0.025,0.902,0.458,3.008,0.397
1.790,-0.031,-0.026,0.897,0.702,4.015,0.260
1.790,-0.044,-0.028,0.895,0.702,2.580,0.198
1.790,-0.032,-0.028,0.896,0.473,1.725,-0.122
1.800,-0.026,-0.018,0.898,0.519,2.260,-0.351
1.800,-0.030,-0.018,0.893,0.565,3.756,-0.015
1.810,-0.038,-0.015,0.883,0.901,4.550,0.321
1.810,-0.053,-0.007,0.862,0.489,3.374,0.122
1.810,-0.060,-0.012,0.869,0.687,1.435,0.046
1.820,-0.050,0.000,0.869,0.275,0.122,0.046
1.820,-0.053,-0.005,0.858,-0.229,-0.183,0.137
1.830,-0.059,-0.006,0.862,-0.779,-0.046,0.366
1.830,-0.065,-0.002,0.863,-1.206,-0.901,0.443
1.830,-0.064,-0.005,0.871,-1.313,-2.015,0.382
1.840,-0.051,-0.006,0.879,-1.939,-2.244,0.198
1.840,-0.041,-0.014,0.878,-2.198,-1.191,0.397
1.850,-0.033,-0.004,0.884,-2.137,0.260,0.687
1.850,-0.034,-0.006,0.872,-2.489,1.511,1.099
1.850,-0.042,-0.009,0.875,-2.611,2.198,1.191
1.860,-0.034,-0.010,0.882,-2.656,2.260,1.221
1.860,-0.043,-0.019,0.886,-2.992,2.534,1.221
1.870,-0.035,-0.020,0.891,-2.702,2.779,1.145
1.870,-0.037,-0.017,0.903,-2.229,2.672,0.962
1.870,-0.046,-0.019,0.890,-2.214,1.863,0.809
1.880,-0.042,-0.024,0.902,-2.244,1.160,0.489
1.880,-0.051,-0.026,0.905,-2.458,0.794,0.595
1.890,-0.049,-0.021,0.893,-2.275,0.198,0.885
1.890,-0.052,-0.031,0.906,-1.511,-0.565,1.130
1.890,-0.045,-0.025,0.908,-0.885,-1.756,1.863
1.900,-0.042,-0.025,0.893,-0.733,-0.870,1.557
1.900,-0.039,-0.024,0.892,-0.840,-0.275,1.466
1.910,-0.037,-0.017,0.893,-0.565,0.092,1.740
1.910,-0.035,-0.019,0.890,-0.427,0.580,1.466
1.910,-0.038,-0.007,0.882,-0.198,0.885,1.466
1.920,-0.041,-0.007,0.881,-0.626,0.504,1.298
1.920,-0.041,-0.016,0.881,-1.160,-0.061,0.931
1.930,-0.038,-0.011,0.883,-1.252,0.061,0.748
1.930,-0.033,-0.014,0.887,-1.740,0.855,0.611
1.930,-0.039,-0.011,0.887,-2.244,1.878,0.733
1.940,-0.044,-0.014,0.885,-2.718,1.634,1.038
1.940,-0.050,-0.010,0.892,-2.901,1.099,1.282
1.950,-0.037,-0.016,0.891,-2.412,1.130,1.176
1.950,-0.044,-0.011,0.885,-2.046,0.702,1.160
1.950,-0.030,-0.014,0.884,-2.046,0.366,1.038
1.960,-0.033,-0.018,0.888,-1.756,0.046,0.962
1.960,-0.026,-0.021,0.880,-1.603,-0.870,0.733
1.970,-0.014,-0.018,0.881,-1.924,-1.557,0.366
1.970,-0.018,-0.018,0.892,-1.420,-2.275,0.336
1.970,-0.006,-0.028,0.893,-1.267,-1.924,0.076
1.980,-0.013,-0.028,0.887,-1.252,-1.542,0.092
1.980,-0.020,-0.024,0.885,-1.405,-1.710,-0.427
1.990,-0.023,-0.026,0.894,-1.435,-1.878,-0.656
1.990,-0.018,-0.030,0.887,-1.710,-2.092,-0.885
1.990,-0.017,-0.032,0.893,-1.725,-1.145,-0.962
2.000,-0.011,-0.030,0.890,-1.740,-0.458,-1.191
2.000,-0.013,-0.024,0.893,-1.847,-0.855,-1.115
2.010,-0.007,-0.025,0.893,-1.695,-1.191,-1.237
2.010,-0.009,-0.028,0.892,-1.664,-1.725,-1.206
2.020,-0.011,-0.020,0.891,-1.542,-1.817,-0.687
2.020,-0.009,-0.030,0.902,-1.786,-0.916,-1.191
2.020,-0.011,-0.025,0.889,-2.168,-0.336,-1.252
2.030,-0.020,-0.018,0.879,-2.595,0.076,-1.206
2.030,-0.025,-0.031,0.892,-2.076,-0.412,-1.008
2.040,-0.023,-0.035,0.905,-1.771,-0.672,-1.160
2.040,-0.018,-0.026,0.895,-1.282,0.275,-1.313
2.040,-0.030,-0.038,0.896,-0.855,1.069,-1.405
2.050,-0.029,-0.033,0.896,-0.595,1.573,-1.679
2.050,-0.033,-0.031,0.894,-0.992,1.756,-1.634
2.060,-0.031,-0.028,0.894,-0.580,0.840,-1.603
2.060,-0.037,-0.024,0.886,-0.702,0.473,-1.771
2.060,-0.031,-0.023,0.875,-0.962,0.260,-2.107
2.070,-0.027,-0.027,0.893,-1.176,-0.229,-2.290
2.070,-0.012,-0.022,0.883,-1.603,-0.992,-2.550
2.080,-0.023,-0.021,0.872,-2.290,-1.618,-2.916
2.080,-0.017,-0.018,0.873,-2.901,-2.931,-3.328
2.090,-0.021,-0.013,0.868,-3.557,-4.519,-3.695
2.090,-0.012,-0.018,0.867,-4.290,-6.153,-4.046
2.090,-0.015,-0.021,0.878,-4.611,-7.847,-4.290
2.100,-0.013,-0.013,0.878,-5.389,-8.824,-3.817
2.100,-0.007,-0.020,0.863,-6.153,-8.916,-3.481
2.110,-0.013,-0.015,0.871,-7.069,-9.328,-3.237
2.110,-0.022,-0.025,0.876,-7.664,-10.229,-3.237
2.110,-0.003,-0.026,0.898,-7.527,-10.260,-3.023
2.120,-0.005,-0.041,0.908,-6.061,-8.275,-3.084
2.120,-0.028,-0.050,0.912,-11.130,-0.824,-4.290
2.130,-0.166,-0.082,0.988,-3.420,-18.779,-5.542
2.130,0.021,-0.001,0.918,-8.046,-11.786,-5.145
2.140,-0.015,-0.026,0.901,-8.519,-9.985,-4.427
2.140,0.060,-0.050,0.913,-4.198,8.076,-4.489
2.140,0.021,-0.040,0.919,-2.458,15.420,-1.527
2.150,-0.090,-0.032,0.896,-1.313,4.595,-1.802
2.150,-0.094,-0.027,0.892,-0.122,-5.649,-1.954
2.160,-0.056,-0.024,0.878,-0.137,-7.252,-2.046
2.160,-0.030,-0.005,0.894,0.000,-4.992,-1.450
2.160,-0.033,-0.016,0.897,0.779,-2.763,-0.748
2.170,-0.044,-0.005,0.886,0.641,-1.847,-0.336
2.170,-0.054,0.004,0.876,-0.412,-3.008,0.092
2.180,-0.043,-0.001,0.867,-0.702,-2.779,0.427
2.180,-0.032,0.010,0.870,-0.885,-2.000,0.748
2.180,-0.041,0.001,0.875,-1.069,-1.145,0.214
2.190,-0.036,0.011,0.873,-2.153,-0.198,0.489
2.190,-0.038,0.019,0.867,-2.611,0.519,0.550
2.200,-0.059,0.018,0.869,-2.595,-0.718,0.412
2.200,-0.066,0.009,0.877,-3.115,-2.412,0.321
2.200,-0.059,0.016,0.893,-3.664,-3.908,0.107
2.210,-0.048,0.010,0.885,-4.321,-4.824,0.305
2.210,-0.046,0.005,0.897,-4.397,-5.542,0.183
2.220,-0.034,0.010,0.913,-4.672,-5.145,0.214
2.220,-0.034,0.003,0.912,-4.641,-3.954,0.336
2.220,-0.041,0.001,0.925,-4.137,-3.710,0.611
2.230,-0.035,-0.011,0.942,-3.405,-3.496,0.580
2.230,-0.032,-0.007,0.939,-2.595,-3.130,0.641
2.240,-0.034,-0.016,0.945,-1.969,-2.565,0.473
2.240,-0.022,-0.020,0.947,-0.702,-2.351,0.489
2.240,-0.027,-0.026,0.962,1.008,-2.305,0.229
2.250,-0.025,-0.030,0.962,1.863,-1.664,0.427
2.250,-0.031,-0.033,0.963,2.366,-1.115,0.336
2.260,-0.031,-0.033,0.958,3.053,-0.672,0.748
2.260,-0.034,-0.032,0.958,3.710,-0.473,0.977
2.260,-0.036,-0.037,0.961,3.740,-0.947,1.099
2.270,-0.036,-0.037,0.944,3.985,-1.481,1.069
2.270,-0.025,-0.028,0.952,4.290,-2.229,1.221
2.280,-0.023,-0.030,0.945,4.580,-2.672,1.511
2.280,-0.013,-0.025,0.953,4.611,-2.824,1.618
2.280,-0.007,-0.023,0.945,4.336,-2.794,1.542
2.290,-0.007,-0.027,0.956,4.412,-2.397,1.817
2.290,-0.008,-0.022,0.959,4.687,-2.122,2.305
2.300,-0.005,-0.030,0.975,4.824,-1.634,2.351
2.300,0.000,-0.034,0.990,5.466,-0.824,2.641
2.300,0.011,-0.035,1.000,6.092,0.290,2.763
2.310,0.018,-0.039,1.011,6.595,1.527,2.351
2.310,0.014,-0.038,1.019,7.313,2.092,2.473
2.320,0.014,-0.025,1.022,8.061,2.641,2.534
2.320,0.019,-0.018,1.013,8.504,3.542,2.397
2.320,0.021,-0.015,1.012,9.557,3.603,2.595
2.330,0.013,-0.007,1.011,9.878,1.985,2.198
2.330,0.012,-0.012,1.018,9.878,0.473,2.000
2.340,0.018,-0.008,1.032,10.137,-0.031,1.832
2.340,0.026,-0.007,1.033,10.718,-0.550,1.802
2.340,0.018,-0.004,1.056,11.023,-2.183,1.374
2.350,0.024,-0.005,1.062,11.573,-4.962,0.763
2.350,0.029,-0.002,1.079,12.489,-7.145,0.244
2.360,0.046,-0.001,1.104,13.130,-7.924,-0.107
2.360,0.059,-0.004,1.134,14.229,-9.206,-0.626
2.360,0.058,-0.012,1.135,15.863,-10.489,-1.252
2.370,0.063,-0.027,1.164,17.756,-11.771,-2.336
2.370,0.064,-0.024,1.167,19.511,-11.908,-2.824
2.380,0.062,-0.035,1.198,22.122,-12.427,-2.947
2.380,0.052,-0.033,1.211,24.672,-13.191,-3.084
2.380,0.047,-0.036,1.223,27.405,-13.527,-3.099
2.390,0.046,-0.044,1.240,29.893,-13.740,-3.420
2.390,0.067,-0.033,1.242,32.763,-12.931,-3.435
2.400,0.058,-0.031,1.238,34.947,-11.160,-3.374
2.400,0.064,-0.028,1.243,36.931,-9.954,-3.481
2.410,0.053,-0.017,1.238,39.115,-9.298,-3.328
2.410,0.056,-0.026,1.240,41.267,-8.626,-3.145
2.410,0.063,-0.009,1.241,42.687,-6.656,-3.282
2.420,0.060,-0.014,1.232,44.779,-5.603,-3.389
2.420,0.054,-0.007,1.229,46.580,-5.634,-3.603
2.430,0.050,-0.008,1.223,48.427,-5.802,-3.985
2.430,0.053,-0.015,1.224,50.412,-5.939,-4.305
2.430,0.049,-0.016,1.233,52.489,-5.282,-4.687
2.440,0.047,-0.022,1.225,55.282,-4.733,-4.824
2.440,0.033,-0.015,1.233,57.420,-5.985,-4.977
2.450,0.042,-0.018,1.240,60.382,-7.008,-5.099
2.450,0.044,-0.028,1.247,63.191,-7.344,-5.405
2.450,0.038,-0.016,1.239,66.000,-7.466,-5.924
2.460,0.049,-0.020,1.224,68.519,-7.786,-6.489
2.460,0.041,-0.005,1.212,70.763,-8.504,-7.237
2.470,0.038,-0.012,1.210,72.992,-10.229,-8.321
2.470,0.037,-0.015,1.206,74.885,-12.122,-8.962
2.470,0.040,-0.004,1.209,76.931,-12.244,-8.916
2.480,0.032,-0.003,1.216,79.115,-11.954,-9.023
2.480,0.036,-0.004,1.212,81.298,-11.511,-9.099
2.490,0.050,-0.001,1.228,83.695,-10.504,-9.176
2.490,0.061,-0.002,1.222,86.336,-9.450,-9.313
2.500,0.057,-0.003,1.226,89.511,-8.733,-9.756
2.500,0.037,0.000,1.226,92.015,-8.977,-9.985
2.500,0.040,-0.000,1.224,95.756,-9.176,-10.260
2.510,0.033,-0.004,1.222,98.168,-8.733,-10.382
2.510,0.037,0.008,1.213,101.817,-8.122,-10.443
2.520,0.026,0.011,1.196,105.145,-7.374,-10.534
2.520,0.015,0.018,1.173,107.893,-7.420,-10.947
2.520,0.005,0.035,1.152,109.969,-9.099,-11.145
2.530,0.003,0.046,1.132,111.374,-10.794,-11.557
2.530,0.001,0.055,1.107,112.611,-12.244,-12.565
2.540,-0.004,0.053,1.115,113.374,-13.634,-12.916
2.540,-0.022,0.065,1.110,115.191,-16.107,-12.672
2.550,-0.020,0.057,1.129,117.679,-18.092,-12.275
2.550,-0.014,0.054,1.112,120.000,-17.847,-11.954
2.550,-0.007,0.061,1.098,120.977,-17.374,-12.122
2.560,0.005,0.057,1.093,122.794,-18.092,-12.595
2.560,0.001,0.059,1.092,124.366,-18.611,-12.794
2.570,0.000,0.063,1.098,126.763,-17.359,-13.008
2.570,0.008,0.056,1.086,129.099,-15.237,-12.565
2.580,-0.001,0.074,1.071,131.237,-13.756,-12.595
2.580,0.008,0.079,1.069,133.023,-13.176,-12.534
2.580,0.016,0.084,1.063,134.626,-11.832,-12.427
2.590,0.021,0.090,1.049,136.519,-8.977,-12.305
2.590,0.032,0.092,1.039,138.275,-5.802,-11.908
2.600,0.011,0.100,1.026,140.305,-4.168,-11.802
2.600,-0.007,0.099,1.008,142.763,-4.550,-11.466
2.610,-0.036,0.111,1.007,144.824,-5.374,-10.565
2.610,-0.028,0.110,0.985,146.779,-4.321,-9.847
2.610,-0.027,0.121,0.973,148.885,-3.740,-9.267
2.620,-0.024,0.128,0.957,150.672,-4.382,-9.450
2.620,-0.020,0.140,0.944,152.076,-5.527,-9.679
2.630,-0.012,0.148,0.913,153.313,-5.160,-9.878
2.630,-0.024,0.149,0.901,154.702,-4.763,-9.985
2.630,-0.025,0.160,0.906,156.229,-4.565,-9.924
2.640,-0.025,0.157,0.902,158.366,-5.038,-9.832
2.640,-0.027,0.167,0.875,160.031,-4.580,-9.832
2.650,-0.036,0.173,0.851,161.695,-4.519,-9.786
2.650,-0.037,0.178,0.839,162.672,-4.443,-9.679
2.660,-0.056,0.202,0.817,163.771,-4.840,-9.267
2.660,-0.068,0.212,0.802,164.473,-5.466,-8.641
2.660,-0.067,0.217,0.800,165.557,-5.252,-7.664
2.670,-0.058,0.219,0.798,166.718,-3.863,-7.038
2.670,-0.046,0.229,0.772,167.740,-2.137,-6.733
2.680,-0.057,0.243,0.755,168.321,-1.908,-6.351
2.680,-0.058,0.256,0.728,168.840,-2.885,-5.802
2.680,-0.047,0.267,0.729,169.130,-4.076,-5.664
2.690,-0.035,0.272,0.698,169.420,-4.076,-5.893
2.690,-0.033,0.266,0.705,170.565,-4.473,-5.878
2.700,-0.045,0.271,0.696,171.374,-5.817,-5.496
2.700,-0.044,0.288,0.679,172.443,-7.389,-4.794
2.710,-0.043,0.297,0.663,173.130,-7.359,-3.649
2.710,-0.033,0.313,0.635,173.176,-6.901,-3.099
2.710,-0.025,0.321,0.618,173.557,-7.893,-2.840
2.720,-0.018,0.332,0.602,173.527,-7.954,-2.565
2.720,-0.023,0.341,0.586,173.298,-7.893,-2.351
2.730,-0.017,0.350,0.573,173.389,-7.160,-1.817
2.730,-0.018,0.362,0.568,172.901,-5.435,-1.695
2.730,-0.013,0.368,0.548,172.809,-4.763,-1.542
2.740,-0.016,0.372,0.544,173.450,-5.466,-1.405
2.740,-0.021,0.391,0.531,174.244,-5.191,-0.977
2.750,-0.008,0.405,0.535,175.115,-5.344,-0.611
2.750,0.015,0.393,0.541,176.656,-5.573,-0.901
2.760,0.032,0.394,0.549,178.565,-6.000,-2.656
2.760,0.026,0.398,0.528,181.008,-8.870,-4.336
2.760,0.013,0.400,0.514,182.916,-12.672,-6.275
2.770,0.019,0.424,0.477,182.901,-14.641,-7.817
2.770,0.016,0.438,0.448,182.977,-16.351,-8.504
2.780,0.016,0.438,0.454,184.779,-17.038,-9.130
2.780,0.013,0.461,0.429,185.679,-16.427,-8.748
2.780,0.015,0.474,0.391,186.214,-14.916,-9.099
2.790,-0.002,0.498,0.346,185.435,-13.832,-8.931
2.790,-0.024,0.522,0.293,183.863,-12.183,-8.061
2.800,-0.033,0.541,0.260,181.863,-11.130,-6.641
2.800,-0.028,0.564,0.260,179.969,-9.252,-5.038
2.810,-0.020,0.577,0.238,177.542,-6.046,-4.015
2.810,-0.020,0.578,0.220,175.115,-3.038,-3.496
2.810,-0.031,0.591,0.195,172.580,-1.740,-3.176
2.820,-0.029,0.619,0.185,169.893,-1.420,-2.901
2.820,-0.019,0.632,0.154,167.313,-1.130,-2.702
2.830,-0.006,0.646,0.119,163.374,-0.412,-2.992
2.830,0.006,0.656,0.115,159.038,0.611,-3.374
2.830,0.008,0.666,0.107,155.496,0.427,-4.443
2.840,0.009,0.673,0.100,152.122,-0.656,-5.084
2.840,0.001,0.673,0.112,150.198,-2.580,-5.786
2.850,-0.007,0.677,0.110,148.321,-4.122,-6.947
2.850,-0.016,0.686,0.095,145.664,-5.557,-7.511
2.850,-0.011,0.684,0.104,143.725,-6.794,-7.664
2.860,-0.007,0.681,0.117,142.412,-7.282,-8.458
2.860,-0.006,0.668,0.147,142.641,-7.237,-8.504
2.870,0.006,0.653,0.168,143.115,-6.321,-8.901
2.870,0.008,0.645,0.166,143.618,-4.000,-9.038
2.880,0.010,0.648,0.168,144.260,-1.252,-9.115
2.880,0.004,0.644,0.173,145.160,1.542,-8.809
2.880,0.005,0.644,0.167,146.260,6.718,-7.893
2.890,0.004,0.644,0.167,147.802,11.191,-6.901
2.890,-0.012,0.634,0.173,149.481,13.908,-6.244
2.900,-0.027,0.628,0.177,151.863,14.595,-5.618
2.900,-0.035,0.642,0.151,153.420,14.656,-5.511
2.900,-0.039,0.651,0.147,154.718,13.954,-5.130
2.910,-0.046,0.656,0.130,155.649,12.870,-5.298
2.910,-0.057,0.673,0.101,155.771,10.947,-5.267
2.920,-0.073,0.697,0.051,155.740,7.450,-5.267
2.920,-0.074,0.716,0.035,154.015,4.366,-5.420
2.920,-0.067,0.735,-0.004,152.534,0.901,-5.679
2.930,-0.065,0.748,-0.016,151.221,-1.832,-5.924
2.930,-0.063,0.757,-0.031,149.908,-5.282,-6.366
2.940,-0.044,0.761,-0.024,149.389,-7.450,-6.702
2.940,-0.034,0.758,-0.040,147.832,-7.847,-7.664
2.950,-0.040,0.757,-0.040,146.244,-6.305,-7.771
2.950,-0.041,0.754,-0.043,144.962,-3.817,-7.832
2.950,-0.039,0.743,-0.026,144.137,-0.748,-7.740
2.960,-0.039,0.750,-0.024,142.748,2.733,-7.817
2.960,-0.044,0.742,-0.042,142.076,6.397,-7.084
2.970,-0.062,0.743,-0.047,141.298,9.099,-6.733
2.970,-0.073,0.743,-0.053,140.046,11.435,-5.985
2.980,-0.088,0.747,-0.043,139.176,13.527,-4.977
2.980,-0.091,0.742,-0.062,138.321,16.137,-3.786
2.980,-0.104,0.740,-0.075,138.229,17.618,-2.550
2.990,-0.115,0.736,-0.071,139.115,16.779,-1.405
2.990,-0.127,0.754,-0.090,139.618,15.420,-0.489
3.000,-0.128,0.762,-0.110,139.359,14.061,0.290
3.000,-0.127,0.767,-0.141,138.748,12.183,0.962
3.000,-0.114,0.775,-0.138,138.153,9.374,1.313
3.010,-0.117,0.777,-0.162,139.160,5.679,1.847
3.010,-0.111,0.801,-0.208,138.061,3.466,2.229
3.020,-0.094,0.822,-0.250,136.061,3.191,2.550
3.020,-0.093,0.828,-0.276,133.542,2.611,3.206
3.030,-0.091,0.825,-0.284,131.252,1.908,3.847
3.030,-0.083,0.827,-0.290,128.702,2.183,3.664
3.030,-0.072,0.836,-0.305,125.847,3.802,4.321
3.040,-0.063,0.839,-0.334,123.557,4.672,4.702
3.040,-0.074,0.841,-0.339,122.183,3.832,5.344
3.050,-0.065,0.839,-0.330,120.595,3.603,5.924
3.050,-0.044,0.839,-0.338,119.221,5.847,7.221
3.050,-0.036,0.833,-0.342,117.405,8.397,7.863
3.060,-0.031,0.834,-0.359,115.832,10.137,8.458
3.060,-0.033,0.856,-0.402,113.191,10.931,9.130
3.070,-0.033,0.861,-0.427,110.885,11.176,10.489
3.070,-0.034,0.862,-0.427,109.649,10.763,11.527
3.070,-0.034,0.859,-0.449,107.557,11.130,12.275
3.080,-0.034,0.868,-0.475,104.519,10.809,12.611
3.080,-0.032,0.869,-0.487,101.924,8.718,13.282
3.090,-0.024,0.879,-0.508,98.977,6.702,14.046
3.090,-0.024,0.869,-0.501,97.832,4.382,14.458
3.100,-0.005,0.885,-0.503,96.397,3.420,15.084
3.100,-0.001,0.873,-0.514,95.847,2.214,15.710
3.100,0.005,0.880,-0.527,94.931,0.168,15.740
3.110,0.029,0.891,-0.569,93.237,-1.817,15.084
3.110,0.040,0.917,-0.615,91.985,-4.076,14.382
3.120,0.068,0.938,-0.650,89.511,-5.252,13.710
3.120,0.079,0.945,-0.665,86.550,-5.237,12.992
3.120,0.093,0.960,-0.694,83.191,-4.244,12.611
3.130,0.108,0.965,-0.716,79.374,-3.023,11.588
3.130,0.129,0.956,-0.730,75.679,0.031,10.107
3.140,0.149,0.953,-0.732,72.382,6.443,7.969
3.140,0.183,0.961,-0.714,72.824,13.038,8.504
3.140,0.291,0.994,-0.664,64.534,41.664,6.824
3.150,0.112,0.962,-0.751,61.374,33.069,5.588
3.150,0.082,0.974,-0.785,55.206,23.496,4.092
3.160,0.078,0.961,-0.807,49.618,18.137,1.802
3.160,0.103,0.980,-0.793,42.855,19.252,1.588
3.160,0.101,0.965,-0.776,38.122,21.282,0.794
3.170,0.095,0.970,-0.776,33.145,23.389,0.870
3.170,0.068,0.983,-0.791,26.672,22.641,0.779
3.180,0.033,0.982,-0.790,22.183,19.649,0.458
3.180,0.009,0.968,-0.767,17.817,16.260,0.183
3.180,0.005,0.963,-0.748,14.305,13.740,0.366
3.190,0.010,0.955,-0.749,11.191,13.023,0.290
3.190,-0.002,0.946,-0.727,8.580,11.053,0.046
3.200,-0.024,0.950,-0.707,6.336,6.412,0.153
3.200,-0.043,0.945,-0.678,5.023,0.519,0.153
3.200,-0.030,0.935,-0.663,3.176,-2.244,0.214
3.210,-0.014,0.938,-0.649,1.450,-2.947,0.763
3.210,-0.030,0.932,-0.624,0.489,-4.870,1.023
3.220,-0.020,0.922,-0.592,-0.489,-5.115,1.573
3.220,-0.018,0.931,-0.573,-2.626,-3.939,2.305
3.220,-0.037,0.925,-0.566,-4.458,-3.802,2.763
3.230,-0.035,0.917,-0.531,-4.534,-5.282,3.573
3.230,-0.025,0.921,-0.502,-4.870,-5.802,4.366
3.240,-0.019,0.921,-0.476,-5.282,-5.557,4.947
3.240,-0.019,0.932,-0.474,-6.321,-5.496,5.252
3.240,-0.019,0.945,-0.479,-8.153,-6.397,5.496
3.250,-0.004,0.951,-0.453,-9.328,-7.496,5.557
3.250,-0.002,0.965,-0.452,-10.779,-8.153,5.954
3.260,0.007,0.960,-0.436,-11.985,-8.336,6.458
3.260,0.019,0.973,-0.419,-14.183,-8.519,6.534
3.260,0.026,0.960,-0.431,-13.863,-8.290,6.397
3.270,0.027,0.978,-0.425,-14.916,-7.939,6.550
3.270,0.034,0.986,-0.427,-16.718,-7.206,6.351
3.280,0.036,0.985,-0.428,-17.832,-7.191,6.137
3.280,0.044,0.988,-0.403,-19.008,-7.389,6.046
3.290,0.052,0.968,-0.401,-19.420,-7.084,5.435
3.290,0.068,0.968,-0.390,-20.687,-5.573,5.374
3.290,0.071,0.945,-0.377,-19.954,-4.229,4.473
3.300,0.076,0.930,-0.356,-19.313,-3.908,3.435
3.300,0.083,0.926,-0.356,-18.901,-3.115,2.427
3.310,0.100,0.924,-0.353,-18.336,-1.252,1.939
3.310,0.092,0.917,-0.347,-16.962,0.000,1.374
3.310,0.094,0.912,-0.341,-15.313,1.817,0.916
3.320,0.103,0.912,-0.328,-13.191,4.397,0.794
3.320,0.091,0.913,-0.316,-10.870,5.908,0.214
3.330,0.086,0.912,-0.333,-9.359,6.611,-0.214
3.330,0.082,0.925,-0.328,-8.702,7.237,-0.656
3.330,0.086,0.927,-0.342,-7.679,8.000,-1.252
3.340,0.083,0.933,-0.348,-6.901,8.656,-1.634
3.340,0.070,0.950,-0.375,-7.221,9.023,-2.244
3.350,0.055,0.957,-0.410,-7.893,8.779,-2.763
3.350,0.056,0.969,-0.448,-9.344,8.214,-3.649
3.350,0.054,0.978,-0.469,-11.115,8.031,-4.733
3.360,0.062,0.997,-0.514,-13.405,8.840,-5.267
3.360,0.056,1.010,-0.577,-17.176,10.687,-5.573
3.370,0.045,1.020,-0.607,-21.252,11.847,-5.725
3.370,0.028,1.012,-0.621,-25.130,11.298,-5.954
3.370,0.015,1.002,-0.635,-28.550,10.489,-5.954
3.380,0.016,0.989,-0.643,-32.183,10.580,-5.832
3.380,0.002,0.973,-0.615,-34.733,11.740,-5.527
3.390,-0.009,0.960,-0.629,-37.908,12.504,-5.069
3.390,-0.007,0.954,-0.619,-40.885,13.115,-4.534
3.400,-0.013,0.934,-0.598,-43.344,13.542,-4.718
3.400,-0.008,0.937,-0.607,-46.137,14.137,-4.748
3.400,-0.010,0.925,-0.599,-48.137,14.687,-4.290
3.410,-0.018,0.925,-0.601,-50.412,13.649,-3.817
3.410,-0.031,0.916,-0.592,-52.260,11.740,-3.374
3.420,-0.014,0.910,-0.594,-53.817,10.672,-3.099
3.420,0.003,0.915,-0.587,-55.527,11.099,-2.229
3.430,-0.009,0.909,-0.583,-57.053,10.458,-2.229
3.430,0.001,0.901,-0.585,-58.977,8.748,-2.489
3.430,0.008,0.901,-0.591,-60.763,8.031,-2.641
3.440,0.024,0.899,-0.596,-62.733,9.008,-2.473
3.440,0.022,0.898,-0.601,-64.840,9.084,-2.672
3.450,0.013,0.897,-0.598,-66.855,8.565,-2.611
3.450,0.023,0.894,-0.601,-69.282,9.069,-2.656
3.450,0.033,0.887,-0.609,-72.382,10.031,-2.321
3.460,0.029,0.892,-0.598,-75.588,11.053,-2.397
3.460,0.035,0.895,-0.587,-78.031,10.947,-2.305
3.470,0.034,0.904,-0.572,-80.580,10.855,-2.473
3.470,0.052,0.909,-0.569,-84.000,11.359,-2.443
3.470,0.071,0.916,-0.580,-87.954,11.802,-3.206
3.480,0.082,0.920,-0.561,-91.588,11.985,-3.832
3.480,0.098,0.916,-0.531,-94.565,10.534,-4.824
3.490,0.106,0.902,-0.498,-96.626,7.710,-6.443
3.490,0.122,0.893,-0.472,-98.305,7.130,-8.275
3.500,0.136,0.893,-0.455,-100.748,8.443,-10.015
3.500,0.130,0.886,-0.439,-103.679,9.603,-12.000
3.500,0.123,0.884,-0.413,-105.863,10.198,-13.908
3.510,0.116,0.887,-0.412,-108.443,11.802,-15.573
3.510,0.095,0.897,-0.408,-111.557,14.870,-16.702
3.520,0.067,0.890,-0.405,-114.321,17.511,-17.603
3.520,0.042,0.878,-0.386,-117.237,20.015,-18.427
3.530,0.034,0.877,-0.388,-120.183,23.634,-20.015
3.530,0.027,0.867,-0.354,-123.069,25.954,-21.084
3.530,0.009,0.860,-0.364,-126.046,28.214,-21.832
3.540,-0.042,0.844,-0.345,-128.031,28.870,-21.298
3.540,-0.091,0.834,-0.317,-128.702,26.641,-19.817
3.550,-0.116,0.823,-0.267,-127.740,22.870,-17.130
3.550,-0.119,0.811,-0.259,-126.565,21.053,-14.275
3.560,-0.108,0.803,-0.239,-125.649,20.229,-12.321
3.560,-0.095,0.812,-0.238,-124.489,18.870,-10.885
3.570,-0.073,0.811,-0.213,-122.656,15.389,-9.389
3.570,-0.073,0.803,-0.196,-120.824,11.420,-8.779
3.570,-0.059,0.810,-0.189,-119.069,7.344,-8.260
3.580,-0.035,0.816,-0.174,-118.519,3.985,-7.481
3.580,-0.012,0.824,-0.158,-118.397,2.198,-7.038
3.590,0.013,0.831,-0.160,-118.504,1.634,-7.069
3.590,0.038,0.833,-0.154,-119.084,1.328,-7.389
3.590,0.048,0.848,-0.172,-119.893,1.267,-8.366
3.600,0.052,0.844,-0.168,-120.519,0.229,-9.481
3.600,0.057,0.843,-0.173,-120.779,-1.145,-10.473
3.610,0.064,0.851,-0.177,-122.183,-0.427,-12.290
3.610,0.064,0.852,-0.181,-124.107,-0.718,-14.076
3.620,0.065,0.863,-0.204,-126.718,-0.733,-15.710
3.620,0.056,0.874,-0.235,-130.534,-0.229,-17.008
3.620,0.052,0.877,-0.264,-135.313,1.466,-17.405
3.630,0.036,0.878,-0.267,-140.473,2.656,-17.863
3.630,0.016,0.874,-0.262,-145.450,2.458,-17.878
3.640,0.010,0.866,-0.257,-150.855,2.641,-17.893
3.640,0.006,0.846,-0.235,-156.382,2.550,-17.969
3.650,-0.001,0.828,-0.199,-161.405,1.099,-17.893
3.650,-0.018,0.795,-0.165,-164.443,-0.809,-17.588
3.650,-0.022,0.756,-0.083,-166.702,-2.916,-16.580
3.660,-0.023,0.732,-0.032,-167.740,-3.771,-15.710
3.660,-0.023,0.686,0.034,-165.771,-3.771,-14.015
3.670,-0.000,0.651,0.095,-161.679,-2.412,-13.130
3.670,0.021,0.624,0.167,-158.489,-0.015,-12.733
3.680,0.038,0.618,0.175,-156.870,4.443,-12.687
3.680,0.042,0.624,0.184,-154.534,9.710,-12.641
3.690,0.031,0.607,0.207,-150.840,13.298,-12.809
3.690,0.018,0.623,0.200,-148.229,18.443,-12.870
3.690,0.017,0.637,0.179,-147.511,22.641,-13.191
3.700,-0.018,0.647,0.166,-147.252,23.160,-14.153
3.700,-0.043,0.659,0.156,-147.038,21.695,-14.702
3.710,-0.075,0.672,0.138,-148.779,19.176,-15.450
3.710,-0.118,0.679,0.124,-151.176,15.298,-15.756
3.720,-0.149,0.681,0.122,-153.802,10.092,-15.924
3.720,-0.172,0.681,0.100,-156.336,3.908,-15.649
3.720,-0.176,0.688,0.091,-160.122,-1.634,-14.427
3.730,-0.175,0.700,0.094,-163.328,-6.458,-12.153
3.730,-0.146,0.693,0.121,-166.031,-10.336,-10.092
3.740,-0.102,0.670,0.157,-168.321,-12.580,-8.763
3.740,-0.063,0.646,0.190,-170.244,-13.069,-8.244
3.750,-0.031,0.617,0.217,-170.672,-12.046,-8.168
3.750,-0.019,0.598,0.264,-171.573,-11.053,-8.779
3.750,0.002,0.583,0.321,-172.550,-8.397,-8.641
3.760,0.004,0.578,0.322,-174.229,-3.817,-8.397
3.760,-0.002,0.561,0.346,-175.359,-0.473,-7.588
3.770,-0.004,0.541,0.396,-175.252,1.344,-6.779
3.770,-0.002,0.500,0.466,-172.153,3.756,-6.687
3.780,-0.002,0.459,0.520,-168.122,7.969,-6.840
3.780,-0.010,0.448,0.549,-162.962,12.794,-6.855
3.780,-0.034,0.431,0.564,-158.595,17.069,-7.298
3.790,-0.070,0.438,0.556,-153.405,18.382,-7.817
3.790,-0.106,0.449,0.536,-150.763,18.702,-8.015
3.800,-0.129,0.463,0.507,-148.107,15.542,-8.519
3.800,-0.145,0.495,0.473,-147.740,10.458,-8.229
3.800,-0.160,0.519,0.449,-149.252,3.908,-7.618
3.810,-0.156,0.528,0.416,-151.939,-2.427,-7.786
3.810,-0.146,0.539,0.403,-155.908,-8.733,-7.496
3.820,-0.123,0.538,0.408,-159.618,-13.893,-7.023
3.820,-0.105,0.534,0.417,-162.977,-18.473,-6.580
3.830,-0.068,0.528,0.427,-166.595,-21.099,-6.687
3.830,-0.038,0.522,0.434,-170.656,-21.557,-7.405
3.830,-0.012,0.505,0.455,-174.061,-22.260,-8.962
3.840,-0.006,0.492,0.477,-175.695,-24.397,-10.244
3.840,-0.002,0.460,0.537,-173.496,-29.954,-11.282
3.850,0.017,0.424,0.603,-170.290,-32.427,-11.924
3.850,0.033,0.399,0.625,-168.718,-30.641,-12.107
3.860,0.028,0.361,0.684,-165.649,-29.496,-11.847
3.860,0.024,0.336,0.731,-161.435,-26.336,-10.427
3.870,0.028,0.296,0.780,-154.595,-20.214,-8.046
3.870,0.023,0.287,0.810,-148.168,-13.466,-6.382
3.870,-0.004,0.260,0.822,-139.740,-7.557,-5.145
3.880,-0.021,0.266,0.813,-132.840,-2.427,-4.397
3.880,-0.035,0.286,0.792,-127.679,1.252,-3.847
3.890,-0.066,0.307,0.751,-123.725,2.305,-3.389
3.890,-0.087,0.330,0.715,-123.282,1.649,-2.718
3.890,-0.107,0.365,0.651,-124.275,-0.366,-1.649
3.900,-0.111,0.384,0.625,-127.038,-4.565,-1.496
3.900,-0.104,0.399,0.595,-130.107,-10.321,-1.603
3.910,-0.090,0.411,0.562,-134.031,-16.015,-1.893
3.910,-0.070,0.421,0.535,-138.885,-19.389,-1.756
3.920,-0.050,0.421,0.517,-144.718,-23.481,-2.305
3.920,-0.040,0.406,0.529,-149.420,-29.191,-2.855
3.930,-0.024,0.391,0.549,-152.290,-35.344,-4.107
3.930,-0.001,0.352,0.588,-154.122,-40.901,-4.672
3.930,0.018,0.317,0.648,-153.893,-44.916,-4.824
3.940,0.035,0.283,0.706,-152.153,-45.221,-4.672
3.940,0.065,0.247,0.771,-149.847,-42.611,-4.031
3.950,0.096,0.231,0.797,-146.947,-36.260,-3.847
3.950,0.098,0.214,0.826,-144.122,-28.947,-3.710
3.960,0.099,0.202,0.843,-141.542,-21.969,-3.954
3.960,0.119,0.208,0.828,-139.588,-13.817,-4.473
3.960,0.125,0.209,0.826,-138.595,-6.290,-5.313
3.970,0.110,0.209,0.834,-138.366,-2.214,-7.130
3.970,0.070,0.197,0.842,-136.901,-3.008,-9.069
3.980,0.051,0.190,0.851,-135.328,-5.740,-10.885
3.980,0.033,0.189,0.844,-134.931,-8.031,-12.137
3.980,0.019,0.196,0.829,-135.603,-10.916,-12.794
3.990,-0.006,0.193,0.805,-136.824,-14.824,-12.763
3.990,-0.019,0.178,0.802,-137.313,-19.344,-12.473
4.000,-0.017,0.177,0.820,-138.275,-20.336,-11.466
4.000,-0.013,0.160,0.836,-139.206,-18.748,-11.069
4.010,0.000,0.149,0.852,-139.969,-18.947,-11.435
4.010,-0.011,0.145,0.873,-141.802,-19.466,-11.450
4.020,-0.013,0.136,0.878,-142.183,-17.969,-11.099
4.020,-0.016,0.128,0.900,-142.962,-16.183,-9.710
4.020,-0.032,0.089,0.991,-140.382,-18.061,-7.542
4.030,-0.017,0.045,1.071,-135.695,-19.252,-5.206
4.030,0.019,0.032,1.103,-132.076,-14.244,-3.802
4.040,0.047,0.016,1.119,-128.779,-1.664,-3.511
4.040,0.048,0.007,1.138,-123.328,9.557,-1.710
4.050,0.028,0.013,1.135,-118.550,16.046,-0.718
4.050,0.012,0.026,1.109,-113.863,19.496,0.824
4.050,-0.007,0.033,1.077,-110.336,22.702,1.145
4.060,0.001,0.048,1.053,-107.511,24.443,1.099
4.060,0.010,0.060,1.019,-105.298,23.802,-0.092
4.070,0.003,0.076,0.999,-104.656,20.626,-1.802
4.070,-0.003,0.092,0.940,-105.359,16.687,-3.710
4.070,-0.017,0.115,0.902,-107.527,12.534,-5.267
4.080,-0.036,0.110,0.878,-109.542,7.405,-6.794
4.080,-0.056,0.105,0.871,-111.313,0.534,-7.908
4.090,-0.062,0.109,0.862,-112.977,-5.985,-8.489
4.090,-0.074,0.111,0.836,-115.115,-12.611,-8.092
4.100,-0.064,0.110,0.843,-116.962,-18.137,-7.374
4.100,-0.034,0.100,0.858,-118.382,-22.092,-6.534
4.100,0.014,0.064,0.890,-118.412,-24.305,-6.275
4.110,0.041,0.021,0.946,-117.221,-25.588,-6.153
4.110,0.046,-0.042,1.040,-115.313,-25.450,-6.275
4.120,0.048,-0.073,1.106,-113.740,-23.038,-5.527
4.120,0.044,-0.106,1.175,-111.145,-18.794,-4.763
4.130,0.038,-0.134,1.238,-108.061,-13.954,-3.634
