Time,acce_x,acce_y,acce_z,gyro_x,gyro_y, gyro_z
0.000,-0.003,-0.086,0.905,-1.130,1.634,0.702
0.000,-0.001,-0.079,0.897,-0.916,1.710,0.595
0.010,-0.006,-0.088,0.904,-0.885,1.237,0.641
0.010,-0.005,-0.089,0.897,-1.115,1.252,0.336
0.010,-0.004,-0.086,0.901,-0.901,1.405,0.550
0.020,-0.003,-0.083,0.911,-0.794,1.588,0.489
0.020,-0.005,-0.085,0.909,-0.687,1.573,0.565
0.020,-0.011,-0.085,0.904,-0.550,1.191,0.473
0.030,-0.011,-0.082,0.907,-0.580,0.473,0.504
0.030,-0.016,-0.085,0.898,-0.382,-0.489,0.519
0.030,-0.012,-0.085,0.900,-0.397,-1.191,0.565
0.040,-0.012,-0.093,0.908,-0.412,-1.481,0.519
0.040,-0.008,-0.084,0.906,-0.168,-1.557,0.565
0.040,-0.002,-0.087,0.896,-0.260,-1.206,0.763
0.050,-0.004,-0.085,0.893,-0.229,-1.221,0.809
0.050,-0.006,-0.089,0.890,-0.122,-1.160,0.809
0.060,0.006,-0.085,0.893,-0.305,-1.069,0.458
0.060,0.007,-0.080,0.888,-0.443,-0.336,0.397
0.060,0.005,-0.089,0.882,-0.565,-0.198,0.321
0.070,0.006,-0.091,0.882,-0.840,0.168,0.031
0.070,0.005,-0.088,0.884,-1.115,0.168,-0.137
0.080,-0.003,-0.092,0.892,-1.206,-0.397,-0.519
0.080,0.003,-0.092,0.893,-1.069,-0.168,-0.412
0.080,-0.003,-0.090,0.890,-0.702,0.031,-0.275
0.090,-0.007,-0.095,0.896,-0.840,0.046,-0.168
0.090,-0.009,-0.095,0.893,-0.641,0.000,-0.137
0.100,-0.019,-0.087,0.891,-0.443,-0.076,0.198
0.100,-0.008,-0.082,0.874,-0.168,0.076,0.229
0.100,-0.014,-0.083,0.885,-0.137,-0.107,0.244
0.110,-0.013,-0.085,0.873,-0.290,-0.351,0.458
0.110,-0.008,-0.085,0.869,-0.366,-0.595,0.458
0.120,-0.013,-0.075,0.874,-0.809,-1.191,0.489
0.120,-0.013,-0.083,0.861,-1.267,-1.328,0.275
0.120,-0.014,-0.075,0.866,-1.603,-1.511,0.687
0.130,-0.016,-0.075,0.879,-2.046,-1.939,0.885
0.130,-0.010,-0.081,0.881,-2.198,-1.954,0.947
0.140,0.002,-0.081,0.888,-2.260,-1.542,1.023
0.140,-0.004,-0.085,0.890,-2.229,-1.282,1.023
0.150,0.005,-0.086,0.894,-2.244,-1.115,0.931
0.150,0.006,-0.082,0.885,-2.122,-1.344,0.611
0.150,0.015,-0.084,0.886,-2.168,-1.176,0.275
0.160,0.019,-0.090,0.902,-1.756,-0.824,0.015
0.160,0.020,-0.096,0.903,-1.618,-0.748,-0.382
0.170,0.019,-0.094,0.892,-1.206,-0.870,-0.580
0.170,0.014,-0.095,0.900,-1.008,-0.702,-0.947
0.170,0.001,-0.090,0.896,-0.473,-0.901,-1.069
0.180,0.002,-0.096,0.883,-0.153,-0.458,-0.901
0.180,-0.005,-0.088,0.874,-0.031,-0.076,-1.008
0.190,-0.005,-0.082,0.884,0.015,0.076,-0.611
0.190,-0.010,-0.082,0.874,-0.336,0.687,-0.427
0.190,-0.004,-0.080,0.865,-0.656,1.023,-0.244
0.200,-0.013,-0.079,0.850,-0.977,1.466,-0.122
0.200,-0.012,-0.080,0.856,-1.664,1.450,-0.046
0.210,-0.010,-0.076,0.875,-2.000,1.756,0.137
0.210,-0.007,-0.080,0.873,-2.458,2.000,0.336
0.210,-0.014,-0.085,0.871,-2.611,2.183,0.489
0.220,-0.014,-0.091,0.884,-2.779,1.817,0.550
0.220,-0.010,-0.090,0.888,-2.565,1.206,0.473
0.230,-0.008,-0.091,0.897,-2.443,0.809,0.305
0.230,-0.001,-0.100,0.897,-1.847,0.962,0.275
0.230,-0.003,-0.094,0.898,-1.649,1.191,0.107
0.240,-0.009,-0.093,0.900,-1.115,0.916,-0.031
0.240,-0.003,-0.091,0.886,-1.053,0.214,-0.107
0.250,0.002,-0.083,0.892,-0.809,-0.183,-0.366
0.250,-0.009,-0.088,0.888,-0.885,-0.733,-0.473
0.250,-0.004,-0.080,0.885,-0.992,-0.947,-0.397
0.260,-0.008,-0.085,0.879,-1.176,-0.565,-0.305
0.260,-0.001,-0.078,0.885,-1.298,-0.489,-0.336
0.270,-0.006,-0.083,0.873,-1.802,-0.534,-0.366
0.270,0.000,-0.085,0.879,-2.153,-0.092,-0.427
0.270,0.001,-0.077,0.872,-2.534,0.305,-0.656
0.280,-0.001,-0.081,0.885,-2.702,1.023,-0.443
0.280,-0.011,-0.092,0.880,-2.840,1.374,-0.473
0.290,-0.017,-0.081,0.887,-3.084,1.832,-0.489
0.290,-0.016,-0.083,0.883,-3.237,1.802,-0.290
0.300,-0.020,-0.087,0.885,-3.099,1.374,-0.168
0.300,-0.030,-0.087,0.889,-2.916,0.489,0.076
0.300,-0.027,-0.093,0.896,-2.840,-0.015,0.443
0.310,-0.021,-0.088,0.902,-2.458,-0.534,0.580
0.310,-0.024,-0.094,0.895,-2.137,-0.702,0.580
0.320,-0.017,-0.092,0.904,-1.740,-0.977,0.473
0.320,-0.013,-0.082,0.900,-1.786,-1.435,0.565
0.320,-0.009,-0.085,0.890,-1.634,-1.725,0.519
0.330,-0.011,-0.081,0.884,-1.710,-1.969,0.427
0.330,-0.011,-0.083,0.897,-2.137,-2.244,0.534
0.340,-0.002,-0.083,0.893,-2.229,-1.389,0.626
0.340,0.008,-0.084,0.897,-2.397,0.015,0.702
0.340,0.006,-0.084,0.895,-2.122,1.130,0.763
0.350,0.010,-0.086,0.900,-2.092,1.679,0.901
0.350,-0.004,-0.086,0.895,-2.122,1.420,0.901
0.360,-0.002,-0.087,0.908,-1.985,1.405,0.656
0.360,-0.003,-0.084,0.893,-2.000,1.435,0.641
0.360,-0.006,-0.087,0.895,-1.725,1.710,0.397
0.370,-0.009,-0.081,0.905,-1.832,1.511,0.366
0.370,-0.014,-0.084,0.894,-1.679,1.435,0.397
0.380,-0.013,-0.090,0.891,-1.725,1.527,0.534
0.380,-0.004,-0.087,0.902,-1.573,1.267,0.595
0.380,-0.010,-0.086,0.894,-1.435,0.656,0.565
0.390,-0.002,-0.087,0.894,-1.191,-0.244,0.107
0.390,0.000,-0.081,0.890,-1.084,-0.687,0.015
0.400,-0.005,-0.086,0.903,-0.977,-0.733,0.015
0.400,0.007,-0.083,0.897,-0.794,-0.687,-0.092
0.400,-0.006,-0.081,0.897,-0.840,-0.534,-0.275
0.410,-0.011,-0.086,0.893,-1.237,-1.115,-0.244
0.410,-0.011,-0.088,0.892,-1.435,-1.405,-0.198
0.420,-0.019,-0.082,0.894,-1.557,-1.176,-0.046
0.420,-0.015,-0.087,0.903,-1.344,-1.145,0.351
0.420,-0.021,-0.084,0.902,-1.145,-1.160,0.366
0.430,-0.021,-0.088,0.892,-1.176,-1.450,0.504
0.430,-0.014,-0.087,0.894,-0.824,-1.450,0.718
0.440,-0.009,-0.084,0.891,-1.084,-1.405,0.687
0.440,-0.011,-0.082,0.889,-1.160,-1.511,0.901
0.450,-0.001,-0.081,0.891,-1.237,-0.672,0.977
0.450,0.010,-0.087,0.895,-1.450,0.321,0.855
0.450,0.001,-0.083,0.888,-1.603,1.038,1.145
0.460,0.003,-0.082,0.897,-1.969,0.947,1.115
0.460,0.005,-0.087,0.900,-1.939,1.282,0.595
0.460,0.012,-0.081,0.916,-1.878,1.679,0.611
0.470,0.014,-0.085,0.913,-1.435,2.015,0.687
0.470,0.021,-0.086,0.933,-0.809,2.840,0.198
0.480,0.015,-0.095,0.940,0.031,3.053,-0.061
0.480,0.006,-0.092,0.939,0.687,2.214,-0.244
0.480,-0.006,-0.091,0.931,1.115,0.992,-0.611
0.490,0.000,-0.085,0.932,1.710,0.916,-0.641
0.490,-0.007,-0.088,0.917,2.000,0.580,-0.916
0.500,-0.017,-0.079,0.921,2.061,-0.901,-0.855
0.500,-0.021,-0.087,0.915,2.290,-2.519,-1.023
0.500,-0.024,-0.089,0.914,2.214,-3.298,-0.992
0.510,-0.025,-0.093,0.919,2.137,-3.847,-0.779
0.510,-0.028,-0.096,0.919,2.214,-4.107,-0.397
0.520,-0.032,-0.094,0.922,2.229,-4.183,0.076
0.520,-0.032,-0.096,0.940,2.046,-3.435,0.840
0.520,-0.031,-0.092,0.940,2.153,-2.427,1.618
0.530,-0.024,-0.101,0.952,2.565,-1.588,2.122
0.530,-0.018,-0.104,0.966,3.053,-0.641,2.290
0.540,-0.002,-0.110,0.992,3.664,1.557,2.718
0.540,0.006,-0.109,1.012,4.687,3.878,3.252
0.540,0.009,-0.106,1.024,5.740,6.397,4.000
0.550,0.024,-0.110,1.042,7.008,8.595,3.969
0.550,0.039,-0.109,1.061,8.443,10.321,3.924
0.560,0.038,-0.118,1.070,10.198,11.557,3.664
0.560,-0.001,-0.135,1.100,12.794,11.496,3.496
0.560,-0.007,-0.106,1.081,15.298,11.405,4.901
0.570,0.005,-0.129,1.091,17.695,12.611,4.519
0.570,0.021,-0.111,1.073,19.908,14.198,4.260
0.580,0.008,-0.104,1.051,21.084,13.328,3.740
0.580,0.000,-0.094,1.047,22.153,12.015,3.359
0.580,-0.001,-0.087,1.044,23.023,11.832,3.450
0.590,-0.007,-0.090,1.047,23.557,11.771,3.527
0.590,-0.006,-0.084,1.052,24.000,12.397,3.466
0.600,-0.002,-0.086,1.063,24.153,12.595,3.206
0.600,-0.003,-0.085,1.066,24.122,13.191,3.252
0.600,0.001,-0.072,1.074,24.275,14.885,3.221
0.610,-0.004,-0.080,1.091,24.626,16.565,3.237
0.610,-0.015,-0.083,1.115,25.176,17.496,3.374
0.620,-0.024,-0.088,1.128,25.985,17.863,3.679
0.620,-0.048,-0.091,1.156,26.992,17.557,4.565
0.620,-0.064,-0.093,1.176,28.412,16.840,6.031
0.630,-0.072,-0.103,1.219,30.076,16.855,7.313
0.630,-0.060,-0.110,1.251,33.435,17.649,8.580
0.640,-0.046,-0.122,1.280,36.947,18.290,9.618
0.640,-0.056,-0.125,1.310,41.237,17.237,10.595
0.650,-0.081,-0.133,1.336,45.145,17.023,12.290
0.650,-0.100,-0.137,1.372,49.847,16.382,14.504
0.650,-0.112,-0.148,1.402,54.122,16.626,17.893
0.660,-0.137,-0.163,1.445,59.191,17.237,21.481
0.660,-0.135,-0.176,1.499,64.748,17.664,24.321
0.670,-0.125,-0.195,1.552,70.901,19.328,26.580
0.670,-0.146,-0.208,1.576,78.015,17.725,28.565
0.670,-0.150,-0.192,1.551,84.809,14.947,28.275
0.680,-0.135,-0.211,1.558,90.031,10.595,28.275
0.680,-0.160,-0.199,1.585,95.374,5.466,28.244
0.690,-0.131,-0.208,1.594,102.275,4.076,28.183
0.690,-0.133,-0.216,1.595,108.672,2.305,27.939
0.700,-0.141,-0.186,1.578,112.977,0.779,28.153
0.700,-0.142,-0.193,1.558,118.443,0.153,27.847
0.700,-0.146,-0.191,1.537,123.313,-0.595,27.847
0.710,-0.134,-0.171,1.526,128.244,0.321,28.229
0.710,-0.149,-0.164,1.516,134.382,0.672,29.191
0.720,-0.173,-0.149,1.517,140.107,-0.351,30.473
0.720,-0.145,-0.139,1.478,144.382,2.198,31.756
0.720,-0.117,-0.120,1.438,147.893,6.748,32.260
0.730,-0.109,-0.109,1.418,151.130,9.435,32.397
0.730,-0.110,-0.102,1.391,154.901,9.802,31.771
0.740,-0.107,-0.083,1.345,157.191,9.863,31.618
0.740,-0.114,-0.073,1.320,159.511,9.573,31.511
0.750,-0.118,-0.064,1.295,161.710,9.740,32.229
0.750,-0.118,-0.064,1.270,164.870,10.504,33.115
0.750,-0.115,-0.058,1.252,168.153,10.412,34.000
0.760,-0.115,-0.043,1.215,171.053,8.962,34.870
0.760,-0.118,-0.029,1.185,173.771,7.038,35.893
0.770,-0.114,-0.021,1.156,175.939,5.252,36.580
0.770,-0.089,-0.005,1.121,177.588,4.763,37.405
0.770,-0.092,-0.009,1.120,179.710,3.344,37.817
0.780,-0.080,-0.006,1.120,182.382,1.756,38.015
0.780,-0.066,0.004,1.110,184.794,1.344,37.939
0.790,-0.059,0.015,1.064,186.748,1.481,37.954
0.790,-0.055,0.021,1.050,187.847,-0.015,37.969
0.800,-0.045,0.035,1.015,187.511,-1.084,37.802
0.800,-0.022,0.048,1.001,188.031,-0.336,37.557
0.800,-0.025,0.039,1.002,189.359,0.473,37.588
0.810,-0.044,0.035,0.989,191.511,0.153,38.122
0.810,-0.060,0.037,0.986,193.817,0.992,39.313
0.820,-0.051,0.042,0.991,196.809,3.634,40.656
0.820,-0.052,0.047,0.962,199.389,6.733,42.061
0.820,-0.052,0.035,0.974,203.389,6.198,42.427
0.830,-0.062,0.046,0.970,207.542,4.046,42.870
0.830,-0.074,0.058,0.908,209.985,4.076,42.489
0.840,-0.072,0.082,0.864,211.588,3.756,42.183
0.840,-0.069,0.106,0.814,212.290,2.412,42.015
0.840,-0.086,0.137,0.763,212.031,0.977,42.198
0.850,-0.074,0.167,0.698,210.702,-0.427,42.183
0.850,-0.066,0.189,0.672,208.321,-1.939,42.641
0.860,-0.062,0.208,0.640,205.786,-3.481,42.916
0.860,-0.053,0.229,0.621,203.649,-4.962,43.160
0.870,-0.043,0.245,0.599,201.420,-5.252,43.664
0.870,-0.021,0.257,0.590,198.916,-4.580,43.603
0.870,-0.010,0.261,0.568,196.412,-3.252,43.145
0.880,0.000,0.273,0.555,193.908,-2.672,41.939
0.880,0.009,0.276,0.557,191.740,-2.977,40.824
0.890,0.021,0.298,0.537,189.542,-2.229,40.000
0.890,0.034,0.312,0.527,185.786,0.000,39.664
0.890,0.067,0.304,0.474,186.061,5.603,38.260
0.900,0.058,0.324,0.504,186.382,6.061,37.740
0.900,0.052,0.325,0.503,185.405,7.206,36.702
0.910,0.043,0.329,0.475,184.214,10.458,36.061
0.910,0.044,0.344,0.459,182.809,13.649,36.244
0.910,0.041,0.352,0.454,182.168,15.893,36.244
0.920,0.027,0.364,0.436,181.344,17.328,36.626
0.920,0.029,0.373,0.420,180.122,18.595,36.382
0.930,0.032,0.383,0.400,178.687,20.015,36.336
0.930,0.031,0.389,0.393,176.672,20.840,35.985
0.930,0.027,0.407,0.383,174.733,19.893,36.198
0.940,0.020,0.430,0.375,171.954,18.473,36.290
0.940,0.021,0.450,0.354,167.847,17.099,36.137
0.950,0.045,0.452,0.337,165.313,17.191,35.649
0.950,0.043,0.462,0.338,164.321,15.954,34.885
0.950,0.034,0.475,0.330,163.023,13.481,34.366
0.960,0.044,0.480,0.321,162.046,12.504,33.802
0.960,0.053,0.490,0.311,160.931,12.519,33.603
0.970,0.057,0.500,0.295,159.679,12.153,32.901
0.970,0.069,0.516,0.273,158.443,12.137,32.153
0.980,0.075,0.532,0.252,156.504,11.557,31.359
0.980,0.075,0.543,0.239,154.626,11.511,30.840
0.980,0.069,0.560,0.240,152.748,11.115,30.153
0.990,0.078,0.572,0.234,150.550,10.672,29.786
0.990,0.080,0.573,0.233,147.954,10.534,29.237
1.000,0.083,0.576,0.234,145.679,10.076,28.763
1.000,0.075,0.582,0.235,144.382,9.786,28.336
1.000,0.086,0.583,0.253,144.244,9.817,27.985
1.010,0.085,0.579,0.248,144.076,10.107,27.389
1.010,0.093,0.597,0.242,142.962,10.153,26.641
1.020,0.095,0.606,0.248,142.168,11.145,25.985
1.020,0.102,0.592,0.278,142.489,11.481,25.618
1.020,0.099,0.586,0.290,144.229,11.328,24.992
1.030,0.103,0.596,0.287,145.802,12.290,24.214
1.030,0.096,0.604,0.272,146.641,12.901,23.573
1.040,0.089,0.617,0.250,146.916,12.107,22.824
1.040,0.077,0.632,0.230,147.099,10.901,22.183
1.040,0.084,0.636,0.217,146.458,10.000,21.679
1.050,0.069,0.649,0.205,146.000,9.725,21.420
1.050,0.066,0.660,0.191,145.405,9.786,21.817
1.060,0.050,0.673,0.192,145.069,8.458,22.168
1.060,0.048,0.675,0.171,144.458,6.656,22.641
1.060,0.051,0.683,0.146,143.756,5.405,23.786
1.070,0.062,0.694,0.127,142.748,6.412,24.504
1.070,0.074,0.706,0.111,141.038,8.061,25.176
1.080,0.073,0.733,0.096,139.802,7.237,25.603
1.080,0.081,0.727,0.092,138.534,5.328,24.916
1.080,0.107,0.731,0.060,136.794,5.786,24.198
1.090,0.125,0.748,0.074,135.634,6.763,23.450
1.090,0.120,0.744,0.075,134.641,6.473,22.473
1.100,0.127,0.753,0.053,133.359,6.611,21.695
1.100,0.133,0.755,0.043,131.802,7.527,20.733
1.100,0.132,0.755,0.055,130.504,7.908,19.588
1.110,0.114,0.754,0.047,129.725,8.046,18.656
1.110,0.100,0.754,0.041,129.786,7.618,17.985
1.120,0.104,0.761,0.047,129.634,7.252,17.771
1.120,0.113,0.766,0.031,129.237,8.137,17.695
1.120,0.111,0.772,0.024,129.023,9.191,17.817
1.130,0.107,0.770,0.038,128.733,9.985,18.046
1.130,0.099,0.763,0.033,128.794,11.069,18.519
1.140,0.103,0.767,0.048,129.588,12.519,18.580
1.140,0.121,0.773,0.037,129.664,15.466,18.947
1.140,0.121,0.782,0.025,129.084,17.725,19.298
1.150,0.110,0.784,0.016,128.931,18.885,19.298
1.150,0.114,0.781,0.020,129.038,19.511,19.496
1.160,0.109,0.795,0.009,128.794,20.641,19.557
1.160,0.094,0.804,0.008,128.000,20.809,20.031
1.160,0.086,0.794,0.009,127.695,19.328,20.489
1.170,0.087,0.791,0.010,127.267,18.092,20.748
1.170,0.104,0.784,0.011,127.634,18.015,20.962
1.180,0.094,0.780,0.020,128.260,17.176,21.389
1.180,0.101,0.785,0.010,128.992,16.519,21.527
1.190,0.113,0.795,-0.011,129.328,16.611,21.405
1.190,0.106,0.808,-0.035,128.687,16.427,21.679
1.190,0.104,0.805,-0.044,128.702,15.573,21.710
1.200,0.110,0.809,-0.028,129.389,14.443,21.282
1.200,0.122,0.806,-0.055,130.824,14.183,20.748
1.210,0.137,0.814,-0.052,132.382,14.473,20.382
1.210,0.139,0.827,-0.092,133.115,14.412,19.756
1.210,0.134,0.844,-0.112,131.802,13.511,19.038
1.220,0.128,0.849,-0.138,129.603,12.122,18.443
1.220,0.122,0.850,-0.127,127.985,10.855,18.260
1.230,0.119,0.844,-0.119,127.069,9.328,18.046
1.230,0.117,0.839,-0.129,125.908,8.489,18.260
1.240,0.117,0.836,-0.127,124.962,8.595,18.992
1.240,0.109,0.819,-0.118,125.221,8.061,19.740
1.240,0.110,0.792,-0.083,126.366,6.855,20.214
1.250,0.118,0.769,-0.078,128.229,6.855,20.580
1.250,0.124,0.749,-0.059,130.168,7.649,21.435
1.260,0.115,0.728,-0.048,132.992,8.672,22.931
1.260,0.100,0.707,-0.022,136.397,11.374,25.084
1.260,0.091,0.679,-0.008,141.740,15.130,28.763
1.270,0.065,0.664,-0.003,145.023,20.137,31.878
1.270,0.054,0.685,-0.029,147.466,24.382,37.481
1.280,0.032,0.661,-0.047,154.305,25.832,40.580
1.280,0.057,0.668,-0.073,159.115,28.198,43.267
1.280,0.086,0.708,-0.154,160.489,32.031,44.885
1.290,0.096,0.721,-0.205,161.664,32.626,45.267
1.290,0.111,0.742,-0.249,161.817,31.466,44.992
1.300,0.122,0.789,-0.322,160.290,28.489,43.405
1.300,0.137,0.805,-0.400,158.412,24.992,40.763
1.310,0.149,0.833,-0.444,156.061,18.550,37.557
1.310,0.159,0.847,-0.472,153.710,12.122,34.015
1.310,0.161,0.852,-0.500,150.351,7.328,30.382
1.320,0.172,0.860,-0.532,146.092,2.931,26.931
1.320,0.169,0.859,-0.531,142.687,-1.527,24.031
1.330,0.177,0.855,-0.556,140.015,-3.557,21.618
1.330,0.172,0.850,-0.575,136.824,-3.649,19.573
1.330,0.158,0.851,-0.582,133.481,-4.122,18.321
1.340,0.139,0.834,-0.584,130.336,-4.672,17.405
1.340,0.137,0.823,-0.571,126.641,-3.557,16.885
1.350,0.128,0.799,-0.565,123.603,-2.000,16.641
1.350,0.126,0.778,-0.539,121.099,-1.710,16.931
1.360,0.117,0.753,-0.518,119.267,-1.420,17.603
1.360,0.110,0.733,-0.521,117.603,0.748,18.382
1.360,0.113,0.713,-0.509,116.901,3.206,19.603
1.370,0.117,0.700,-0.507,116.809,6.611,21.176
1.370,0.131,0.693,-0.525,117.374,9.786,22.031
1.380,0.134,0.685,-0.529,118.153,11.649,22.473
1.380,0.133,0.687,-0.542,118.595,12.412,22.611
1.380,0.130,0.683,-0.585,119.298,12.611,22.626
1.390,0.138,0.689,-0.598,119.496,12.901,22.550
1.390,0.142,0.681,-0.611,119.969,12.855,22.733
1.400,0.132,0.681,-0.623,121.237,11.420,22.702
1.400,0.132,0.678,-0.645,122.229,9.649,22.580
1.400,0.136,0.693,-0.718,122.168,10.458,22.366
1.410,0.140,0.703,-0.769,119.679,11.634,22.153
1.410,0.114,0.709,-0.782,118.015,10.000,22.290
1.420,0.104,0.703,-0.800,116.595,8.366,22.519
1.420,0.104,0.700,-0.824,113.969,7.924,23.328
1.430,0.107,0.709,-0.868,111.389,8.458,24.611
1.430,0.102,0.719,-0.895,108.214,8.122,25.695
1.430,0.098,0.722,-0.903,104.794,5.969,26.855
1.440,0.109,0.727,-0.925,100.473,3.282,27.710
1.440,0.106,0.722,-0.934,97.145,0.779,27.893
1.450,0.116,0.718,-0.939,94.626,-1.542,28.076
1.450,0.129,0.725,-0.957,90.580,-3.313,28.137
1.450,0.149,0.728,-0.980,86.214,-4.214,28.168
1.460,0.157,0.730,-1.011,81.557,-5.237,28.260
1.460,0.154,0.721,-1.002,77.634,-6.870,28.458
1.470,0.165,0.725,-1.005,73.344,-7.603,28.641
1.470,0.181,0.711,-1.007,69.374,-6.641,28.672
1.470,0.203,0.705,-0.994,66.504,-4.336,28.977
1.480,0.207,0.693,-0.990,64.244,-2.641,29.008
1.480,0.225,0.688,-0.999,61.618,-0.565,28.947
1.490,0.233,0.692,-1.010,58.916,0.992,28.916
1.490,0.245,0.698,-1.026,55.893,2.122,29.084
1.490,0.250,0.702,-1.035,52.611,4.260,29.359
1.500,0.266,0.705,-1.043,49.282,6.733,29.756
1.500,0.282,0.701,-1.041,46.504,8.015,30.015
1.510,0.296,0.700,-1.030,43.405,8.046,30.198
1.510,0.312,0.698,-1.023,41.359,6.656,30.137
1.510,0.334,0.688,-1.012,40.244,5.954,29.389
1.520,0.350,0.699,-1.029,38.458,5.328,28.550
1.520,0.368,0.690,-1.033,37.588,4.046,27.588
1.530,0.375,0.692,-1.048,36.687,2.656,25.802
1.530,0.383,0.699,-1.042,36.046,1.099,24.290
1.530,0.398,0.703,-1.053,34.794,1.160,23.099
1.540,0.408,0.709,-1.052,33.267,1.496,21.527
1.540,0.400,0.718,-1.049,32.565,0.489,20.275
1.550,0.407,0.724,-1.052,31.069,-0.611,18.718
1.550,0.423,0.739,-1.080,28.565,-0.031,17.634
1.550,0.426,0.754,-1.090,25.740,1.069,16.626
1.560,0.427,0.757,-1.099,22.672,1.710,15.908
1.560,0.438,0.765,-1.094,19.695,2.931,14.763
1.570,0.441,0.773,-1.079,15.847,4.015,13.832
1.570,0.451,0.779,-1.082,12.015,5.023,12.366
1.570,0.446,0.781,-1.080,8.122,5.298,10.611
1.580,0.455,0.776,-1.052,4.107,5.725,8.992
1.580,0.453,0.776,-1.051,0.641,6.473,7.511
1.590,0.447,0.773,-1.036,-3.008,6.748,5.725
1.590,0.435,0.775,-1.022,-5.435,5.954,3.649
1.590,0.433,0.764,-0.991,-7.847,4.473,1.313
1.600,0.429,0.758,-0.965,-10.046,2.840,-1.420
1.600,0.418,0.762,-0.938,-11.344,0.473,-3.618
1.610,0.401,0.751,-0.898,-11.450,-1.588,-5.985
1.610,0.383,0.750,-0.877,-12.092,-2.565,-7.847
1.610,0.370,0.752,-0.861,-12.595,-3.786,-9.771
1.620,0.337,0.754,-0.815,-12.000,-5.893,-10.931
1.620,0.309,0.750,-0.776,-11.053,-6.977,-11.695
1.630,0.302,0.749,-0.763,-10.489,-5.969,-12.214
1.630,0.282,0.750,-0.749,-9.969,-5.160,-12.687
1.640,0.253,0.750,-0.720,-8.656,-4.763,-12.779
1.640,0.229,0.751,-0.705,-8.229,-3.527,-12.458
1.640,0.212,0.761,-0.692,-7.969,-2.611,-12.168
1.650,0.200,0.767,-0.673,-7.679,-1.771,-11.695
1.650,0.167,0.756,-0.652,-7.359,-1.802,-11.328
1.660,0.155,0.756,-0.640,-7.252,-1.924,-10.809
1.660,0.143,0.758,-0.632,-6.550,-1.939,-10.275
1.660,0.133,0.755,-0.634,-5.405,-2.840,-9.710
1.670,0.124,0.755,-0.635,-4.412,-3.649,-8.947
1.670,0.106,0.771,-0.650,-4.260,-5.008,-8.183
1.680,0.101,0.768,-0.644,-3.481,-7.176,-7.313
1.680,0.107,0.768,-0.652,-3.221,-8.748,-6.443
1.680,0.115,0.769,-0.655,-2.611,-9.511,-5.664
1.690,0.121,0.769,-0.651,-2.000,-10.183,-5.176
1.690,0.136,0.768,-0.661,-1.206,-10.198,-4.443
1.700,0.147,0.778,-0.695,-1.084,-8.870,-3.832
1.700,0.160,0.784,-0.712,-1.649,-6.733,-2.901
1.710,0.144,0.789,-0.712,-1.985,-6.824,-2.855
1.710,0.173,0.776,-0.706,-3.435,-4.168,-2.183
1.710,0.166,0.783,-0.704,-4.794,-3.053,-2.153
1.720,0.164,0.760,-0.677,-4.718,-3.206,-2.275
1.720,0.180,0.746,-0.657,-4.168,-2.962,-1.908
1.730,0.197,0.744,-0.669,-4.244,-1.191,-1.603
1.730,0.202,0.742,-0.663,-3.420,0.366,-1.053
1.730,0.212,0.737,-0.664,-2.168,2.412,-0.550
1.740,0.216,0.745,-0.673,-1.145,3.985,-0.061
1.740,0.214,0.749,-0.690,0.137,5.221,0.412
1.750,0.217,0.750,-0.702,0.794,6.000,0.794
1.750,0.223,0.757,-0.717,1.237,6.015,1.191
1.750,0.221,0.760,-0.732,1.328,5.649,1.511
1.760,0.213,0.770,-0.746,1.099,4.260,1.481
1.760,0.217,0.778,-0.737,0.382,2.061,1.802
1.760,0.219,0.772,-0.737,-0.214,0.244,1.893
1.770,0.239,0.771,-0.740,-0.565,-1.084,1.954
1.770,0.247,0.762,-0.727,-1.069,-2.550,1.557
1.780,0.264,0.767,-0.733,-1.603,-3.954,0.855
1.780,0.281,0.771,-0.731,-2.290,-3.893,0.366
1.780,0.291,0.766,-0.732,-2.153,-2.733,-0.321
1.790,0.298,0.765,-0.738,-2.290,-1.389,-0.870
1.790,0.292,0.763,-0.739,-2.427,-0.748,-1.695
1.800,0.294,0.764,-0.758,-2.305,-0.137,-2.519
1.800,0.301,0.773,-0.771,-2.565,0.962,-3.603
1.810,0.298,0.767,-0.775,-3.038,2.718,-4.321
1.810,0.290,0.774,-0.795,-3.725,4.122,-5.344
1.810,0.284,0.777,-0.810,-4.733,5.405,-6.198
1.820,0.278,0.771,-0.825,-6.305,6.794,-7.420
1.820,0.274,0.786,-0.848,-7.908,8.687,-8.595
1.830,0.270,0.789,-0.869,-9.756,10.626,-9.954
1.830,0.273,0.788,-0.883,-12.412,12.351,-10.992
1.830,0.270,0.783,-0.900,-15.267,14.687,-12.565
1.840,0.252,0.783,-0.902,-17.908,15.863,-13.466
1.840,0.228,0.777,-0.895,-20.351,16.031,-13.252
1.850,0.205,0.773,-0.905,-23.145,15.908,-13.130
1.850,0.203,0.763,-0.907,-25.771,16.168,-12.489
1.850,0.209,0.755,-0.904,-28.366,16.137,-12.061
1.860,0.204,0.741,-0.900,-30.489,14.962,-11.664
1.860,0.218,0.722,-0.903,-32.229,14.321,-11.191
1.870,0.224,0.708,-0.906,-33.359,13.237,-11.008
1.870,0.247,0.710,-0.909,-34.519,12.458,-10.702
1.880,0.255,0.713,-0.922,-35.481,11.817,-10.992
1.880,0.271,0.720,-0.944,-36.626,10.794,-11.649
1.880,0.281,0.735,-0.964,-38.580,9.389,-12.260
1.890,0.297,0.741,-0.983,-41.038,8.046,-13.450
1.890,0.305,0.750,-1.014,-43.954,7.069,-14.656
1.900,0.313,0.763,-1.023,-47.084,6.412,-16.153
1.900,0.319,0.768,-1.034,-50.748,6.748,-17.664
1.910,0.319,0.766,-1.035,-54.275,6.687,-19.099
1.910,0.320,0.766,-1.045,-58.321,6.901,-20.656
1.910,0.309,0.757,-1.038,-62.305,7.359,-21.847
1.920,0.319,0.761,-1.047,-66.198,8.840,-23.237
1.920,0.321,0.749,-1.063,-70.198,10.153,-25.084
1.930,0.317,0.759,-1.064,-73.924,11.282,-27.115
1.930,0.320,0.759,-1.068,-78.656,12.595,-29.069
1.930,0.313,0.771,-1.070,-83.939,13.893,-31.069
1.940,0.308,0.757,-1.063,-88.794,14.321,-32.855
1.940,0.299,0.753,-1.057,-93.573,14.687,-34.183
1.950,0.290,0.756,-1.063,-98.931,15.267,-35.405
1.950,0.273,0.745,-1.038,-103.756,15.115,-35.878
1.960,0.267,0.736,-1.023,-107.756,14.214,-36.641
1.960,0.265,0.721,-0.993,-111.160,13.557,-36.962
1.960,0.261,0.716,-0.977,-114.473,13.160,-37.298
1.970,0.252,0.708,-0.955,-117.237,12.000,-37.267
1.970,0.252,0.715,-0.934,-119.527,10.580,-37.450
1.980,0.255,0.712,-0.915,-121.740,9.099,-37.435
1.980,0.253,0.716,-0.901,-123.878,6.992,-38.061
1.990,0.257,0.713,-0.885,-126.046,5.008,-38.702
1.990,0.260,0.719,-0.878,-128.183,3.527,-39.710
1.990,0.271,0.719,-0.875,-130.626,1.389,-40.870
2.000,0.255,0.734,-0.868,-133.557,-0.473,-42.443
2.000,0.260,0.735,-0.876,-136.519,-2.000,-43.664
2.010,0.240,0.745,-0.866,-139.847,-3.008,-45.038
2.010,0.235,0.744,-0.865,-143.008,-4.519,-45.878
2.020,0.225,0.745,-0.851,-146.473,-5.176,-46.901
2.020,0.212,0.748,-0.855,-150.351,-6.076,-47.985
2.030,0.212,0.745,-0.837,-154.427,-6.290,-48.397
2.030,0.187,0.739,-0.811,-157.725,-5.908,-48.916
2.030,0.186,0.745,-0.788,-160.824,-4.977,-49.344
2.040,0.190,0.741,-0.792,-164.595,-3.359,-49.527
2.040,0.183,0.747,-0.792,-169.527,-2.198,-49.924
2.050,0.178,0.741,-0.772,-173.740,-1.405,-50.046
2.050,0.161,0.735,-0.732,-177.389,0.336,-49.985
2.060,0.151,0.729,-0.713,-180.763,1.389,-49.740
2.060,0.136,0.727,-0.703,-184.031,1.420,-49.359
2.060,0.116,0.716,-0.657,-186.977,-0.061,-48.641
2.070,0.111,0.702,-0.625,-188.947,-2.092,-47.496
2.070,0.106,0.699,-0.595,-190.611,-1.969,-45.573
2.080,0.102,0.683,-0.543,-191.649,-0.702,-43.435
2.080,0.102,0.673,-0.519,-192.198,0.718,-41.359
2.090,0.110,0.667,-0.473,-191.878,1.405,-40.351
2.090,0.122,0.659,-0.455,-191.405,1.756,-39.771
2.090,0.100,0.658,-0.416,-190.794,1.160,-39.481
2.100,0.085,0.658,-0.384,-189.802,-0.550,-38.962
2.100,0.090,0.656,-0.364,-188.794,-1.420,-37.878
2.110,0.094,0.663,-0.327,-187.344,-3.557,-37.008
2.110,0.066,0.683,-0.290,-188.244,-8.046,-36.382
2.120,0.082,0.699,-0.321,-190.351,-10.733,-36.519
2.120,0.073,0.705,-0.306,-191.160,-15.939,-36.443
2.120,0.071,0.710,-0.293,-191.405,-21.817,-36.733
2.130,0.081,0.723,-0.297,-192.168,-26.244,-36.885
2.130,0.085,0.727,-0.303,-193.435,-29.267,-37.603
2.140,0.108,0.742,-0.320,-194.550,-32.504,-38.321
2.140,0.132,0.752,-0.332,-196.947,-34.611,-39.130
2.150,0.146,0.736,-0.339,-199.496,-36.198,-40.626
2.150,0.140,0.719,-0.303,-200.046,-39.282,-42.443
2.160,0.132,0.698,-0.272,-200.733,-42.198,-43.603
2.160,0.122,0.697,-0.236,-202.962,-42.840,-43.847
2.160,0.112,0.680,-0.216,-205.084,-42.214,-43.939
2.170,0.115,0.659,-0.190,-207.160,-40.092,-43.237
2.170,0.105,0.661,-0.159,-211.160,-36.382,-40.641
2.180,0.090,0.599,-0.098,-210.260,-31.603,-40.763
2.180,0.083,0.622,-0.070,-212.992,-23.786,-37.328
2.190,0.062,0.607,-0.082,-214.718,-16.122,-35.252
2.190,0.020,0.587,-0.019,-212.580,-12.870,-32.931
2.200,0.030,0.552,0.004,-210.153,-8.672,-31.557
2.200,0.015,0.586,-0.000,-211.511,-4.992,-29.756
2.200,0.002,0.579,0.015,-210.763,-3.771,-29.267
2.210,0.002,0.572,0.038,-208.733,-7.710,-29.496
2.210,0.003,0.583,0.029,-208.168,-11.924,-30.153
2.220,0.000,0.591,0.021,-207.649,-14.992,-30.198
2.220,-0.003,0.596,0.028,-207.908,-20.107,-29.740
2.230,-0.003,0.608,0.033,-208.565,-26.397,-29.282
2.230,0.015,0.605,0.030,-208.519,-33.023,-30.260
2.230,0.051,0.630,-0.012,-210.351,-38.519,-30.153
2.240,0.062,0.622,0.001,-211.511,-45.405,-30.534
2.240,0.085,0.611,0.022,-212.031,-51.160,-31.115
2.250,0.135,0.602,0.022,-213.206,-53.084,-31.618
2.250,0.162,0.587,0.038,-214.733,-50.840,-32.305
2.260,0.188,0.561,0.047,-216.901,-45.298,-32.641
2.260,0.174,0.553,0.083,-219.389,-40.534,-32.275
2.260,0.144,0.519,0.121,-220.122,-36.794,-32.168
2.270,0.116,0.489,0.153,-220.855,-31.969,-30.565
2.270,0.115,0.467,0.200,-220.198,-26.534,-29.466
2.280,0.108,0.438,0.244,-218.031,-21.527,-28.244
2.280,0.090,0.425,0.263,-216.458,-17.176,-27.130
2.290,0.066,0.404,0.281,-214.611,-15.344,-27.069
2.290,0.075,0.412,0.297,-214.824,-13.145,-25.924
2.300,0.047,0.393,0.312,-213.252,-14.763,-25.511
2.300,0.061,0.378,0.358,-210.702,-16.397,-24.977
2.300,0.078,0.387,0.348,-209.695,-16.718,-24.870
2.310,0.074,0.388,0.326,-210.183,-18.153,-25.481
2.310,0.083,0.385,0.319,-210.275,-21.084,-26.046
2.320,0.084,0.396,0.302,-212.473,-23.252,-26.687
2.320,0.100,0.400,0.293,-216.458,-24.427,-28.076
2.330,0.106,0.398,0.273,-220.534,-27.206,-29.588
2.330,0.104,0.392,0.271,-224.840,-31.176,-31.328
2.330,0.103,0.385,0.253,-229.817,-35.695,-32.656
2.340,0.112,0.365,0.285,-234.244,-40.015,-33.435
2.340,0.116,0.313,0.339,-236.626,-42.733,-33.893
2.350,0.135,0.278,0.392,-237.634,-42.580,-33.740
2.350,0.146,0.219,0.472,-235.954,-39.374,-33.252
2.360,0.144,0.198,0.539,-232.076,-35.603,-31.450
2.360,0.156,0.157,0.602,-228.733,-29.527,-30.519
2.360,0.147,0.136,0.652,-225.420,-22.947,-29.771
2.370,0.136,0.111,0.717,-220.061,-19.008,-28.046
2.370,0.161,0.105,0.740,-217.435,-11.359,-27.679
2.380,0.166,0.096,0.732,-215.847,-5.328,-28.794
2.380,0.152,0.090,0.748,-214.290,-1.786,-29.649
2.390,0.115,0.069,0.783,-213.069,-2.611,-32.962
2.390,0.102,0.068,0.798,-212.992,-3.618,-35.237
2.390,0.062,0.062,0.819,-212.504,-8.748,-36.580
2.400,0.031,0.021,0.854,-210.000,-15.649,-37.771
2.400,0.037,0.012,0.919,-207.878,-20.519,-37.924
2.410,0.103,-0.014,0.942,-197.847,1.023,-40.031
2.410,0.067,-0.057,0.931,-187.420,6.061,-36.626
2.420,-0.135,0.007,0.935,-187.863,-16.824,-34.198
2.420,-0.113,-0.034,0.896,-186.931,-29.466,-36.092
2.420,-0.021,-0.006,0.910,-186.763,-25.008,-33.664
2.430,0.011,-0.016,0.967,-185.344,-15.237,-29.695
2.430,-0.016,-0.047,0.993,-183.252,-10.443,-27.435
2.440,-0.061,-0.054,1.031,-183.389,-10.565,-25.832
2.440,-0.067,-0.085,1.060,-182.198,-10.244,-25.618
2.450,-0.041,-0.077,1.120,-179.954,-8.000,-23.053
2.450,-0.056,-0.097,1.139,-177.496,-5.878,-22.290
2.460,-0.078,-0.111,1.174,-171.939,-7.191,-22.122
2.460,-0.075,-0.113,1.205,-165.649,-9.695,-21.771
2.470,-0.062,-0.117,1.216,-158.977,-11.313,-21.802
2.470,-0.070,-0.107,1.215,-151.573,-11.496,-21.359
2.470,-0.075,-0.107,1.214,-144.260,-13.038,-20.611
2.480,-0.083,-0.075,1.193,-137.985,-14.550,-19.206
2.480,-0.078,-0.069,1.161,-133.023,-15.069,-17.786
2.490,-0.049,-0.049,1.133,-129.618,-14.153,-16.489
2.490,-0.037,-0.042,1.098,-127.008,-12.962,-15.511
2.500,-0.035,-0.035,1.092,-124.504,-12.626,-14.321
2.500,-0.052,-0.027,1.101,-122.534,-14.382,-12.809
2.510,-0.042,-0.034,1.115,-120.275,-16.702,-11.725
2.510,-0.012,-0.034,1.131,-117.511,-18.779,-10.931
2.510,0.007,-0.032,1.130,-114.321,-19.374,-10.733
2.520,0.048,-0.042,1.147,-111.511,-19.756,-11.176
2.520,0.069,-0.033,1.125,-108.672,-19.954,-12.336
2.530,0.094,-0.027,1.111,-107.115,-19.649,-13.359
2.530,0.095,-0.025,1.104,-105.496,-18.748,-14.122
2.540,0.086,-0.025,1.121,-102.702,-17.344,-14.244
2.540,0.081,-0.026,1.112,-100.336,-16.153,-13.740
2.550,0.062,-0.027,1.125,-98.397,-15.206,-13.267
2.550,0.071,-0.035,1.145,-97.099,-14.198,-13.130
2.550,0.046,-0.033,1.145,-94.794,-14.855,-13.328
2.560,0.073,-0.039,1.150,-93.847,-12.015,-13.481
2.560,0.075,-0.050,1.176,-92.351,-11.069,-14.565
2.570,0.069,-0.048,1.185,-90.687,-10.076,-15.160
2.570,0.060,-0.052,1.198,-89.069,-7.954,-14.901
2.580,0.059,-0.052,1.192,-87.588,-3.756,-14.153
2.580,0.049,-0.061,1.195,-84.962,0.397,-13.588
2.580,0.041,-0.059,1.184,-82.595,2.550,-13.038
2.590,0.015,-0.062,1.167,-81.023,3.252,-12.794
2.590,-0.001,-0.056,1.132,-79.344,3.435,-12.641
2.600,-0.024,-0.053,1.133,-79.145,2.031,-12.000
2.600,-0.022,-0.070,1.122,-77.221,-0.504,-12.458
2.610,-0.009,-0.044,1.120,-77.679,-1.359,-10.611
2.610,0.006,-0.049,1.128,-78.092,-1.771,-9.985
2.610,0.012,-0.070,1.149,-77.588,-3.588,-9.573
2.620,0.040,-0.072,1.156,-78.015,-4.229,-9.557
2.620,0.052,-0.082,1.150,-77.924,-3.832,-10.229
2.630,0.057,-0.104,1.183,-76.519,-3.206,-10.809
2.630,0.057,-0.107,1.187,-75.069,-0.641,-11.160
2.640,0.066,-0.115,1.193,-73.832,3.328,-11.588
2.640,0.058,-0.115,1.192,-72.366,5.847,-12.366
2.640,0.031,-0.116,1.203,-70.076,5.328,-12.229
2.650,0.015,-0.117,1.210,-67.573,5.924,-11.893
2.650,-0.021,-0.140,1.201,-65.802,5.176,-12.733
2.660,-0.001,-0.128,1.179,-65.420,7.145,-11.847
2.660,-0.039,-0.144,1.203,-62.458,4.351,-11.634
2.660,-0.069,-0.140,1.206,-59.954,1.389,-10.260
2.670,-0.072,-0.124,1.166,-59.328,-0.122,-8.840
2.670,-0.067,-0.127,1.159,-58.565,-1.481,-7.069
2.680,-0.084,-0.109,1.150,-57.740,-4.000,-4.626
2.680,-0.117,-0.109,1.111,-56.412,-6.168,-1.405
2.690,-0.111,-0.101,1.063,-57.435,-6.214,1.466
2.690,-0.125,-0.089,1.030,-57.847,-5.802,4.794
2.690,-0.128,-0.092,1.011,-58.824,-7.756,8.183
2.700,-0.124,-0.099,1.020,-61.863,-10.977,10.901
2.700,-0.081,-0.120,0.999,-62.092,-10.107,13.298
2.710,-0.071,-0.140,1.033,-62.214,-14.504,14.992
2.710,-0.046,-0.158,1.081,-62.229,-19.405,15.573
2.720,0.005,-0.171,1.094,-60.855,-20.504,14.397
2.720,0.030,-0.164,1.116,-60.000,-22.855,13.191
2.720,0.060,-0.188,1.154,-58.229,-25.908,11.405
2.730,0.118,-0.195,1.178,-54.321,-17.618,8.443
2.730,0.126,-0.252,1.187,-42.015,-10.489,9.282
2.740,0.089,-0.199,1.210,-40.702,-16.183,9.099
2.740,0.076,-0.210,1.162,-37.008,-23.130,6.840
2.750,0.104,-0.193,1.141,-35.160,-24.061,5.267
2.750,0.152,-0.190,1.142,-31.130,-20.565,4.076
2.750,0.172,-0.176,1.148,-28.840,-14.443,3.191
2.760,0.165,-0.175,1.141,-26.137,-8.824,2.397
2.760,0.165,-0.158,1.104,-24.580,-4.534,1.038
2.770,0.173,-0.146,1.080,-24.000,0.137,-0.595
2.770,0.168,-0.139,1.058,-23.939,4.122,-2.244
2.770,0.146,-0.134,1.035,-24.229,7.466,-3.985
2.780,0.131,-0.136,1.029,-23.969,9.939,-4.901
2.780,0.112,-0.132,1.005,-24.061,12.687,-5.557
2.790,0.096,-0.124,0.991,-24.412,14.061,-5.939
2.790,0.096,-0.133,0.993,-24.183,14.779,-6.504
2.790,0.090,-0.136,1.001,-23.481,14.870,-7.115
2.800,0.074,-0.136,0.986,-22.702,14.214,-7.893
2.800,0.061,-0.135,0.974,-22.687,12.168,-8.748
2.810,0.059,-0.145,0.991,-22.244,10.397,-9.542
2.810,0.061,-0.140,0.986,-21.649,9.298,-10.168
2.820,0.057,-0.143,0.993,-20.366,8.992,-10.397
2.820,0.052,-0.153,0.989,-19.511,8.733,-10.473
2.820,0.052,-0.151,0.997,-18.321,8.718,-10.366
2.830,0.053,-0.156,0.997,-17.145,9.466,-10.519
2.830,0.051,-0.159,0.991,-16.076,10.336,-10.580
2.840,0.050,-0.153,0.997,-15.008,11.802,-10.901
2.840,0.058,-0.156,0.996,-14.107,13.435,-10.809
2.840,0.057,-0.157,0.991,-13.145,14.443,-11.435
2.850,0.052,-0.160,1.002,-13.740,16.015,-12.672
2.850,0.142,-0.217,1.003,-2.061,32.626,-9.176
2.860,-0.008,-0.135,1.049,-11.878,23.771,-13.542
2.860,0.062,-0.178,1.025,-9.496,25.634,-14.427
2.870,0.030,-0.175,1.029,-5.038,22.611,-13.924
2.870,0.009,-0.166,1.024,-5.282,19.130,-15.786
2.870,0.021,-0.176,1.019,-3.069,18.672,-16.443
2.880,0.017,-0.171,1.025,-0.580,20.015,-15.740
2.880,0.015,-0.166,1.013,1.756,22.473,-15.267
2.890,0.001,-0.161,1.017,1.695,22.885,-14.611
2.890,0.006,-0.164,1.004,2.504,26.397,-13.588
2.890,-0.021,-0.168,1.016,4.260,26.992,-13.557
2.900,-0.035,-0.154,1.014,4.794,26.214,-13.450
2.900,-0.045,-0.141,0.994,4.565,26.687,-12.962
2.910,-0.048,-0.146,0.975,4.122,26.931,-12.275
2.910,-0.053,-0.130,0.948,3.053,27.481,-11.328
2.920,-0.059,-0.128,0.946,2.382,26.809,-10.656
2.920,-0.086,-0.130,0.946,1.939,24.107,-9.695
2.920,-0.114,-0.148,0.939,2.244,20.351,-9.786
2.930,-0.088,-0.125,0.925,2.366,17.679,-8.977
2.930,-0.089,-0.122,0.958,1.939,14.000,-7.664
2.940,-0.090,-0.132,0.950,3.359,12.824,-6.397
2.940,-0.093,-0.123,0.923,2.641,12.107,-5.649
2.940,-0.089,-0.131,0.935,2.855,9.176,-4.626
2.950,-0.094,-0.119,0.928,3.038,5.863,-3.817
2.950,-0.085,-0.122,0.938,2.870,3.298,-3.481
2.960,-0.074,-0.117,0.939,2.901,0.763,-2.794
2.960,-0.067,-0.125,0.936,2.611,-0.840,-2.305
2.960,-0.061,-0.117,0.918,2.611,-2.412,-1.878
2.970,-0.063,-0.121,0.923,2.351,-4.947,-1.282
2.970,-0.044,-0.125,0.930,2.260,-6.489,-0.992
2.980,-0.029,-0.117,0.921,2.260,-6.580,-0.962
2.980,-0.028,-0.118,0.914,2.427,-6.351,-0.809
2.980,-0.015,-0.117,0.909,2.046,-6.092,-1.099
2.990,-0.011,-0.115,0.897,1.954,-6.015,-1.099
2.990,-0.005,-0.103,0.890,1.527,-5.466,-1.496
3.000,-0.004,-0.113,0.890,1.053,-5.405,-1.771
3.000,-0.006,-0.118,0.901,1.160,-5.481,-2.244
3.010,-0.008,-0.118,0.892,1.282,-5.634,-2.427
3.010,-0.009,-0.126,0.895,1.374,-6.351,-2.870
3.010,-0.020,-0.117,0.888,1.359,-6.611,-2.718
3.020,-0.026,-0.123,0.887,1.389,-6.611,-2.672
3.020,-0.037,-0.122,0.887,1.206,-6.718,-2.244
3.030,-0.017,-0.123,0.883,1.252,-6.565,-1.969
3.030,-0.010,-0.119,0.886,1.008,-5.985,-1.664
3.030,-0.014,-0.114,0.876,0.672,-5.573,-1.206
3.040,-0.021,-0.118,0.872,0.122,-5.328,-0.763
3.040,-0.014,-0.117,0.868,-0.489,-5.023,-0.305
3.050,-0.005,-0.113,0.865,-0.718,-4.137,0.000
3.050,-0.004,-0.121,0.867,-1.206,-3.374,0.305
3.050,0.001,-0.119,0.867,-1.863,-2.809,0.626
3.060,-0.001,-0.119,0.869,-2.534,-1.664,0.626
3.060,0.008,-0.122,0.871,-2.931,-0.397,0.656
3.070,0.008,-0.129,0.872,-2.809,0.061,0.534
3.070,0.009,-0.125,0.874,-2.733,0.397,0.443
3.070,0.001,-0.132,0.873,-2.519,0.183,0.046
3.080,0.009,-0.133,0.890,-1.725,-0.244,0.244
3.080,0.009,-0.134,0.893,-1.130,-0.122,0.153
3.090,0.016,-0.141,0.896,-0.763,-0.229,0.061
3.090,0.012,-0.137,0.883,-0.473,-0.107,0.092
3.090,0.010,-0.130,0.883,-0.321,-0.824,-0.046
3.100,0.016,-0.124,0.867,-0.214,-0.672,-0.092
3.100,0.027,-0.133,0.860,-0.275,-0.046,0.061
3.110,0.027,-0.118,0.849,-0.305,0.611,0.107
3.110,0.027,-0.117,0.848,-0.855,1.008,0.260
3.110,0.026,-0.115,0.843,-1.695,1.115,0.412
3.120,0.033,-0.114,0.844,-2.626,1.863,0.321
3.120,0.037,-0.117,0.857,-3.282,2.672,0.611
3.130,0.041,-0.117,0.861,-3.618,3.725,0.275
3.130,0.038,-0.116,0.852,-4.214,4.977,0.458
3.130,0.034,-0.125,0.839,-5.069,5.664,0.229
3.140,0.030,-0.119,0.835,-5.725,5.527,0.153
3.140,0.034,-0.116,0.855,-5.908,5.863,0.000
3.150,0.031,-0.122,0.860,-6.260,5.771,-0.092
3.150,0.038,-0.129,0.873,-5.618,6.580,-0.183
3.150,0.026,-0.133,0.871,-4.672,7.053,-0.092
3.160,0.012,-0.141,0.878,-4.321,6.290,-0.382
3.160,0.013,-0.144,0.878,-4.000,4.718,-0.504
3.170,-0.002,-0.145,0.889,-3.420,2.794,-1.267
3.170,0.019,-0.139,0.903,-2.397,2.458,-0.992
3.170,0.020,-0.139,0.895,-1.603,2.840,-0.962
3.180,0.005,-0.141,0.894,-1.160,2.153,-1.069
3.180,0.003,-0.141,0.898,-0.840,0.305,-1.053
3.190,0.009,-0.139,0.903,-0.351,-0.565,-1.298
3.190,0.016,-0.137,0.890,0.214,-0.595,-1.664
3.190,0.011,-0.138,0.897,0.183,-0.565,-1.557
3.200,0.005,-0.133,0.878,-0.015,-0.504,-1.573
3.200,0.008,-0.131,0.876,-0.107,0.473,-1.557
3.210,0.008,-0.130,0.875,-0.260,0.916,-1.527
3.210,0.001,-0.132,0.872,-0.718,0.611,-1.527
3.210,0.003,-0.126,0.872,-1.328,0.702,-1.344
3.220,0.003,-0.131,0.885,-1.527,1.130,-1.176
3.220,0.000,-0.135,0.888,-1.527,1.634,-0.962
3.230,-0.008,-0.135,0.894,-1.969,1.466,-0.672
3.230,-0.002,-0.135,0.877,-1.756,1.008,-0.809
3.230,0.001,-0.131,0.886,-2.061,1.115,-0.718
3.240,-0.004,-0.134,0.880,-1.969,1.099,-0.458
3.240,-0.002,-0.128,0.879,-1.756,0.687,-0.214
3.250,-0.002,-0.123,0.891,-2.305,0.015,0.031
3.250,0.006,-0.124,0.882,-1.908,-0.153,0.000
3.250,0.013,-0.122,0.891,-1.802,0.015,-0.229
3.260,0.014,-0.122,0.885,-2.153,-0.015,-0.290
3.260,0.018,-0.122,0.889,-2.336,0.351,-0.412
3.270,0.024,-0.118,0.900,-2.519,1.389,-0.168
3.270,0.015,-0.125,0.886,-2.580,2.504,-0.366
3.270,0.015,-0.122,0.900,-2.336,2.794,-0.412
3.280,0.010,-0.131,0.903,-2.702,2.397,-0.840
3.280,0.008,-0.124,0.898,-2.595,2.534,-1.313
3.290,0.001,-0.126,0.905,-2.504,2.168,-1.557
3.290,0.000,-0.127,0.912,-2.153,1.725,-1.511
3.290,-0.006,-0.126,0.914,-1.969,1.359,-1.145
3.300,-0.011,-0.133,0.910,-1.313,0.107,-1.252
3.300,-0.018,-0.140,0.914,-0.947,-0.641,-1.145
3.310,-0.017,-0.131,0.921,-0.641,-1.573,-0.931
3.310,-0.008,-0.132,0.925,0.153,-0.824,-0.641
3.310,-0.008,-0.128,0.912,0.275,-0.290,-0.351
3.320,-0.000,-0.134,0.918,0.702,0.260,-0.275
3.320,0.000,-0.134,0.909,0.962,-0.275,-0.489
3.330,0.008,-0.133,0.920,1.420,-0.885,-0.870
3.330,0.012,-0.129,0.914,1.893,-1.008,-1.282
3.330,0.011,-0.131,0.906,2.458,-0.611,-1.832
3.340,0.000,-0.131,0.898,2.427,-0.595,-2.214
3.340,-0.002,-0.119,0.908,2.321,-0.931,-2.137
3.350,0.002,-0.125,0.894,1.756,-1.756,-2.382
3.350,-0.002,-0.116,0.888,1.481,-2.015,-2.565
3.350,-0.003,-0.123,0.895,1.496,-2.489,-2.931
3.360,-0.007,-0.122,0.886,1.588,-3.023,-3.176
3.360,-0.012,-0.119,0.881,1.618,-3.527,-3.252
3.370,-0.012,-0.122,0.877,1.405,-3.863,-3.221
3.370,-0.021,-0.128,0.870,1.099,-3.176,-2.702
3.370,-0.020,-0.115,0.864,1.145,-3.298,-2.397
3.380,-0.041,-0.117,0.860,0.534,-3.939,-1.817
3.380,-0.029,-0.116,0.863,-0.122,-4.244,-1.023
3.390,-0.021,-0.115,0.868,-0.595,-3.313,-0.366
3.390,-0.016,-0.117,0.864,-1.130,-2.061,0.473
3.400,-0.020,-0.117,0.873,-0.992,-1.832,1.099
3.400,-0.017,-0.124,0.871,-1.252,-2.275,1.328
3.400,-0.012,-0.123,0.879,-1.053,-2.962,1.206
3.410,-0.010,-0.124,0.874,-0.992,-3.191,1.420
3.410,-0.006,-0.125,0.882,-1.176,-3.191,1.405
3.420,0.005,-0.128,0.889,-0.733,-2.260,1.557
3.420,0.010,-0.131,0.893,-0.122,-1.786,1.969
3.420,-0.000,-0.130,0.894,0.412,-1.954,2.061
3.430,0.007,-0.134,0.899,1.176,-2.366,2.107
3.430,0.006,-0.136,0.888,1.863,-2.244,2.168
3.440,0.014,-0.130,0.890,2.366,-2.031,1.924
3.440,0.020,-0.129,0.882,2.534,-2.260,1.771
3.440,0.023,-0.128,0.876,2.595,-2.336,1.206
3.450,0.024,-0.129,0.880,2.885,-2.244,1.053
3.450,0.020,-0.129,0.890,3.298,-2.137,0.916
3.460,0.019,-0.124,0.887,3.282,-1.725,0.901
3.460,0.027,-0.133,0.885,3.664,-0.901,1.008
3.460,0.028,-0.129,0.884,3.863,-0.565,1.267
3.470,0.021,-0.126,0.886,3.969,0.305,1.313
3.470,0.018,-0.129,0.864,4.244,1.145,1.374
3.470,0.009,-0.123,0.862,4.412,1.481,1.420
3.480,0.011,-0.125,0.849,4.061,0.397,1.420
3.480,0.010,-0.122,0.857,3.313,-0.687,0.809
3.490,0.016,-0.120,0.854,2.947,-0.626,1.099
3.490,0.023,-0.125,0.852,2.779,0.168,1.282
3.490,0.007,-0.118,0.859,2.244,1.130,1.740
3.500,0.013,-0.117,0.855,1.496,0.412,2.107
3.500,0.005,-0.112,0.853,0.840,-0.489,2.260
3.510,0.008,-0.121,0.861,0.550,-1.725,2.229
3.510,0.017,-0.116,0.871,0.565,-2.275,2.046
3.510,0.024,-0.116,0.875,0.473,-1.710,2.168
3.520,0.021,-0.120,0.882,0.427,-1.924,1.969
3.520,0.021,-0.121,0.886,0.366,-3.191,2.107
3.520,0.029,-0.126,0.886,1.557,-3.008,2.092
3.530,0.018,-0.131,0.900,3.176,-3.496,1.771
3.530,0.040,-0.128,0.907,2.321,-2.183,1.237
3.540,0.029,-0.142,0.906,4.244,-2.718,1.206
3.540,0.048,-0.112,0.901,2.443,-1.710,1.176
3.540,0.050,-0.110,0.898,1.939,-0.992,0.840
3.550,0.065,-0.104,0.887,-0.397,4.244,1.130
3.550,0.037,-0.127,0.901,1.679,3.985,0.870
3.560,0.038,-0.112,0.903,1.282,4.824,0.656
3.560,0.031,-0.114,0.897,0.794,4.244,0.305
3.560,0.012,-0.121,0.902,1.298,2.916,-0.046
3.570,0.019,-0.117,0.903,1.420,2.473,-0.366
3.570,0.012,-0.117,0.901,1.740,1.496,-0.489
3.580,0.008,-0.121,0.901,2.275,0.092,-0.504
3.580,0.010,-0.113,0.898,2.473,-0.595,-0.809
3.580,0.018,-0.114,0.892,2.244,-1.023,-0.580
3.590,0.010,-0.112,0.889,2.397,-1.252,-0.427
3.590,0.013,-0.112,0.890,2.519,-1.191,-0.275
3.600,0.017,-0.111,0.895,2.275,-0.595,-0.183
3.600,0.016,-0.109,0.883,2.015,-0.153,-0.107
3.600,0.018,-0.107,0.892,1.405,0.382,-0.061
3.610,0.017,-0.115,0.890,1.496,1.817,-0.015
3.610,0.026,-0.110,0.889,1.160,3.176,0.031
3.610,0.019,-0.105,0.901,0.580,3.649,0.336
3.620,0.022,-0.107,0.910,0.519,4.061,0.305
3.620,0.020,-0.115,0.898,0.244,4.718,0.382
3.630,0.025,-0.114,0.907,0.198,5.908,0.397
3.630,0.017,-0.114,0.904,0.290,7.038,0.458
3.630,0.003,-0.117,0.896,0.321,7.237,0.443
3.640,0.011,-0.116,0.895,0.336,7.450,0.489
3.640,0.003,-0.112,0.900,0.137,7.435,0.672
3.650,0.008,-0.114,0.894,0.351,7.664,0.794
3.650,0.003,-0.118,0.877,0.489,7.863,0.687
3.650,-0.008,-0.114,0.880,0.534,7.878,0.611
3.660,-0.018,-0.116,0.885,0.473,7.267,0.733
3.660,-0.027,-0.114,0.863,0.550,6.275,0.977
3.660,-0.039,-0.110,0.861,0.015,4.336,1.130
3.670,-0.050,-0.117,0.874,-0.489,2.351,1.603
3.670,-0.047,-0.112,0.879,-0.840,1.191,2.183
3.680,-0.032,-0.114,0.868,-1.038,0.214,2.580
3.680,-0.036,-0.117,0.874,-1.481,-0.855,3.038
3.680,-0.031,-0.109,0.891,-1.908,-2.076,3.511
3.690,-0.029,-0.113,0.910,-1.893,-2.260,3.832
3.690,-0.008,-0.113,0.920,-1.618,-2.595,4.321
3.700,-0.001,-0.103,0.924,-1.206,-2.702,4.412
3.700,-0.002,-0.110,0.934,0.855,-2.931,4.519
3.700,0.012,-0.096,0.917,-0.321,-2.626,4.336
3.710,0.022,-0.102,0.930,-0.382,-2.824,4.031
3.710,0.030,-0.098,0.934,-0.504,-2.595,3.985
3.720,0.036,-0.100,0.946,0.061,-1.847,3.527
3.720,0.038,-0.096,0.942,0.321,-1.740,3.023
3.720,0.042,-0.107,0.932,1.863,-1.023,2.305
3.730,0.041,-0.108,0.938,2.672,-1.435,1.588
3.730,0.043,-0.098,0.941,3.084,-0.443,1.008
3.740,0.028,-0.104,0.938,4.214,0.473,0.580
3.740,0.011,-0.112,0.939,4.702,0.427,0.382
3.740,0.009,-0.108,0.924,5.115,0.366,0.489
3.750,0.007,-0.106,0.916,5.420,0.198,0.290
3.750,0.008,-0.104,0.902,5.603,0.565,0.183
3.760,-0.002,-0.099,0.895,5.817,0.977,0.122
3.760,-0.008,-0.101,0.889,5.771,1.252,0.565
3.760,-0.010,-0.102,0.875,5.496,1.359,0.458
3.770,-0.019,-0.091,0.865,5.237,1.435,0.824
3.770,-0.026,-0.092,0.861,4.611,0.748,0.824
3.780,-0.034,-0.097,0.862,4.947,0.275,1.176
3.780,-0.039,-0.092,0.847,4.809,-0.015,1.832
3.780,-0.044,-0.085,0.845,3.115,-1.145,2.168
3.790,-0.032,-0.093,0.845,2.580,-1.038,2.656
3.790,-0.020,-0.087,0.848,2.168,-0.885,3.084
3.790,-0.012,-0.085,0.837,1.084,-0.443,3.359
3.800,-0.007,-0.091,0.845,0.229,-0.351,3.313
3.800,0.003,-0.093,0.849,-0.580,-0.244,3.221
3.810,0.015,-0.094,0.856,-1.267,0.290,2.916
3.810,0.017,-0.094,0.866,-1.237,0.962,2.229
3.810,0.021,-0.102,0.868,-1.603,1.740,2.061
3.820,0.023,-0.097,0.869,-1.557,2.672,1.939
3.820,0.017,-0.105,0.885,-1.496,3.481,1.832
3.830,0.020,-0.108,0.882,-1.634,4.183,1.740
3.830,0.016,-0.105,0.901,-1.313,4.779,1.511
3.830,0.013,-0.108,0.905,-0.672,4.870,1.053
3.840,0.006,-0.104,0.909,-0.611,4.107,0.779
3.840,0.003,-0.111,0.909,-0.076,2.992,0.336
3.850,0.000,-0.102,0.906,0.595,4.244,0.519
3.850,-0.002,-0.110,0.911,2.290,3.969,0.840
3.850,-0.018,-0.120,0.910,5.863,2.702,0.748
3.860,0.006,-0.078,0.890,4.794,1.344,0.794
3.860,-0.017,-0.101,0.902,5.115,0.550,0.733
3.870,0.000,-0.084,0.887,2.489,2.092,0.855
3.870,-0.011,-0.094,0.890,0.046,3.847,1.344
3.870,-0.001,-0.093,0.882,-0.656,5.160,1.634
3.880,-0.016,-0.101,0.893,-0.305,3.649,1.664
3.880,-0.015,-0.100,0.901,-0.198,2.412,1.695
3.890,-0.022,-0.103,0.899,0.504,1.588,1.756
3.890,-0.007,-0.101,0.906,0.336,1.115,1.756
3.890,-0.003,-0.106,0.891,-0.473,2.290,1.908
3.900,0.003,-0.110,0.906,-1.237,3.282,1.893
3.900,0.000,-0.115,0.896,-1.344,3.221,1.817
3.900,-0.007,-0.118,0.911,-1.420,2.885,1.573
3.910,-0.010,-0.115,0.911,-0.794,1.863,1.221
3.910,-0.020,-0.116,0.904,0.107,1.084,1.405
3.920,-0.028,-0.115,0.910,0.244,0.015,1.511
3.920,-0.020,-0.117,0.910,0.168,-0.504,1.786
3.920,-0.012,-0.108,0.902,0.397,0.229,2.275
3.930,-0.014,-0.109,0.898,0.443,0.718,2.382
3.930,-0.021,-0.109,0.901,0.733,0.718,2.672
3.940,-0.028,-0.103,0.888,0.992,0.015,3.252
3.940,-0.030,-0.105,0.892,1.313,-0.366,3.237
3.940,-0.019,-0.101,0.898,1.084,0.168,3.206
3.950,-0.019,-0.110,0.895,1.023,0.870,3.313
3.950,-0.021,-0.106,0.893,0.855,1.740,3.740
3.960,-0.021,-0.108,0.885,1.267,2.214,3.924
3.960,-0.015,-0.101,0.887,1.023,1.985,4.046
3.960,-0.016,-0.106,0.872,0.427,1.603,4.229
3.970,-0.017,-0.104,0.875,0.641,0.855,4.275
3.970,-0.013,-0.104,0.869,0.672,0.153,4.168
3.980,-0.011,-0.106,0.862,0.702,-0.611,4.321
3.980,-0.003,-0.103,0.873,0.351,-0.977,4.565
3.980,0.004,-0.100,0.853,-0.137,-0.672,4.763
3.990,0.010,-0.098,0.847,-0.840,-0.534,4.656
3.990,0.008,-0.099,0.855,-0.885,-1.298,4.397
4.000,0.020,-0.104,0.871,-1.252,-1.725,4.015
4.000,0.025,-0.101,0.870,-1.511,-1.618,3.221
4.000,0.018,-0.104,0.864,-1.252,-1.328,3.344
4.010,0.016,-0.104,0.880,-1.084,-1.053,3.252
4.010,0.027,-0.113,0.872,-1.023,-0.412,3.313
4.020,0.008,-0.110,0.887,-1.053,1.008,3.466
4.020,0.003,-0.119,0.890,-1.817,1.359,3.405
4.020,0.012,-0.118,0.886,-1.084,1.481,3.466
4.030,0.030,-0.111,0.885,-2.214,2.458,3.160
4.030,0.025,-0.109,0.889,-1.252,2.489,2.672
4.030,0.034,-0.122,0.883,-0.870,2.000,2.458
4.040,0.033,-0.108,0.873,-1.939,3.115,2.397
4.040,0.006,-0.108,0.871,-1.603,2.687,2.137
4.050,0.003,-0.114,0.879,-1.756,1.588,2.107
4.050,-0.002,-0.108,0.869,-1.786,0.901,2.092
4.050,-0.013,-0.113,0.860,-1.695,-0.366,2.366
4.060,-0.021,-0.113,0.863,-1.573,-1.679,2.626
4.060,-0.030,-0.098,0.861,-1.313,-3.359,2.870
4.070,-0.036,-0.096,0.857,-1.038,-5.496,2.962
4.070,-0.029,-0.090,0.866,-1.069,-6.687,3.038
4.070,0.003,-0.103,0.878,-0.595,-6.824,2.641
4.080,-0.004,-0.098,0.865,-0.366,-6.427,3.252
4.080,-0.014,-0.090,0.875,-0.504,-7.389,4.046
