Time,acce_x,acce_y,acce_z,gyro_x,gyro_y,gyro_z
0.000,0.100,-0.095,0.867,-2.183,2.885,0.321
0.000,0.097,-0.094,0.871,-2.183,2.565,0.305
0.010,0.099,-0.094,0.876,-2.595,2.641,0.153
0.010,0.097,-0.098,0.872,-2.733,2.565,0.137
0.010,0.093,-0.098,0.877,-2.443,2.412,-0.183
0.020,0.091,-0.096,0.866,-2.641,1.969,0.000
0.020,0.091,-0.099,0.884,-2.885,1.527,-0.168
0.020,0.092,-0.104,0.870,-2.870,1.588,-0.229
0.030,0.095,-0.104,0.880,-2.931,2.092,-0.290
0.030,0.095,-0.109,0.887,-3.053,2.015,-0.214
0.030,0.096,-0.106,0.888,-2.962,1.786,-0.031
0.040,0.089,-0.112,0.886,-3.130,1.374,0.000
0.040,0.088,-0.105,0.888,-3.038,1.328,-0.061
0.040,0.083,-0.107,0.889,-2.901,1.252,0.260
0.050,0.097,-0.110,0.904,-2.641,1.374,0.153
0.050,0.095,-0.111,0.897,-2.611,1.130,0.229
0.050,0.094,-0.102,0.907,-2.626,0.351,0.183
0.060,0.102,-0.110,0.899,-2.305,-0.092,0.168
0.060,0.097,-0.112,0.912,-2.107,0.122,-0.244
0.070,0.101,-0.117,0.902,-1.679,-1.328,-0.550
0.070,0.099,-0.108,0.914,-1.588,-1.588,-0.733
0.070,0.099,-0.117,0.909,-1.466,-1.176,-0.901
0.080,0.102,-0.114,0.915,-0.840,-0.931,-0.931
0.080,0.099,-0.106,0.914,-0.672,-0.870,-0.763
0.090,0.097,-0.117,0.916,-0.443,-1.160,-0.779
0.090,0.095,-0.115,0.907,-0.901,-0.931,-0.672
0.090,0.095,-0.110,0.899,-0.809,-0.122,-0.840
0.100,0.094,-0.107,0.905,-0.916,0.107,-0.718
0.100,0.089,-0.103,0.888,-0.779,0.351,-0.733
0.110,0.092,-0.105,0.889,-1.084,0.489,-0.626
0.110,0.089,-0.106,0.879,-1.405,0.015,-0.382
0.110,0.086,-0.108,0.884,-1.679,0.000,-0.397
0.120,0.089,-0.104,0.888,-1.725,0.794,-0.321
0.120,0.091,-0.111,0.890,-1.740,1.588,-0.092
0.130,0.090,-0.104,0.888,-1.740,2.046,-0.015
0.130,0.089,-0.104,0.894,-1.496,2.107,0.076
0.130,0.080,-0.106,0.897,-1.282,1.725,0.260
0.140,0.085,-0.105,0.898,-0.885,1.313,0.137
0.140,0.088,-0.102,0.898,-1.023,0.870,0.244
0.150,0.090,-0.106,0.894,-0.809,0.458,0.107
0.150,0.088,-0.102,0.895,-0.824,-0.473,0.000
0.150,0.090,-0.104,0.886,-1.008,-0.702,0.137
0.160,0.088,-0.102,0.882,-1.130,-0.779,0.244
0.160,0.086,-0.100,0.879,-1.267,-0.992,0.183
0.170,0.090,-0.102,0.877,-1.466,-1.298,0.321
0.170,0.089,-0.101,0.882,-1.725,-1.420,0.489
0.170,0.098,-0.101,0.893,-1.679,-1.145,0.244
0.180,0.101,-0.098,0.889,-1.893,-0.855,0.122
0.180,0.095,-0.104,0.899,-1.817,-0.931,0.046
0.190,0.101,-0.103,0.897,-1.786,-0.901,-0.092
0.190,0.100,-0.100,0.891,-1.710,-0.504,-0.183
0.190,0.100,-0.105,0.899,-1.725,0.198,-0.137
0.200,0.102,-0.105,0.899,-1.695,0.427,-0.321
0.200,0.100,-0.104,0.907,-1.374,0.977,-0.198
0.210,0.092,-0.109,0.899,-0.962,1.053,-0.290
0.210,0.093,-0.111,0.901,-0.977,0.824,-0.534
0.210,0.093,-0.106,0.904,-0.733,0.656,-0.656
0.220,0.085,-0.103,0.901,-0.626,0.473,-0.641
0.220,0.083,-0.108,0.901,-0.687,0.107,-0.550
0.230,0.078,-0.107,0.881,-0.550,-0.595,-0.855
0.230,0.077,-0.110,0.889,-0.595,-1.237,-0.794
0.230,0.083,-0.111,0.895,-0.824,-1.389,-0.687
0.240,0.075,-0.102,0.889,-0.443,-1.756,-0.656
0.240,0.079,-0.110,0.891,-0.519,-2.641,-0.519
0.250,0.073,-0.104,0.896,-0.489,-2.977,-0.290
0.250,0.076,-0.104,0.900,-0.275,-2.183,-0.168
0.260,0.077,-0.103,0.897,-0.107,-2.000,0.412
0.260,0.074,-0.104,0.886,-0.336,-1.695,0.534
0.260,0.083,-0.107,0.886,-0.473,-1.374,0.748
0.270,0.092,-0.106,0.890,-0.687,-1.038,0.962
0.270,0.099,-0.105,0.891,-0.901,-0.779,1.053
0.280,0.094,-0.107,0.893,-0.824,-0.076,0.855
0.280,0.098,-0.108,0.895,-1.298,0.519,1.069
0.280,0.093,-0.108,0.898,-0.885,1.038,1.176
0.290,0.094,-0.101,0.891,-0.931,1.115,0.977
0.290,0.086,-0.097,0.885,-0.779,0.748,1.099
0.290,0.095,-0.104,0.882,-0.702,-0.107,0.947
0.300,0.097,-0.109,0.890,-0.855,-0.092,0.840
0.300,0.101,-0.111,0.891,-0.565,0.198,0.672
0.310,0.093,-0.103,0.888,-0.427,0.183,0.519
0.310,0.096,-0.104,0.886,-0.351,-0.321,0.519
0.310,0.094,-0.102,0.895,-0.382,-0.656,0.382
0.320,0.100,-0.104,0.896,-0.260,-1.069,0.351
0.320,0.100,-0.107,0.890,-0.412,-1.084,0.229
0.330,0.096,-0.104,0.893,-0.305,-1.573,0.015
0.330,0.088,-0.104,0.900,-0.122,-1.298,-0.290
0.330,0.094,-0.101,0.895,-0.046,-0.656,0.000
0.340,0.091,-0.103,0.889,0.137,0.076,0.183
0.340,0.085,-0.108,0.887,0.107,0.092,0.351
0.350,0.083,-0.107,0.875,-0.107,-0.198,0.458
0.350,0.086,-0.105,0.876,-0.427,-0.336,0.595
0.350,0.092,-0.109,0.878,-0.595,0.702,0.718
0.360,0.093,-0.103,0.878,-0.763,1.023,0.748
0.360,0.088,-0.111,0.893,-0.947,1.191,0.977
0.370,0.094,-0.103,0.882,-1.191,1.008,1.237
0.370,0.088,-0.111,0.887,-1.267,0.733,1.252
0.370,0.088,-0.104,0.887,-1.115,0.687,1.328
0.380,0.092,-0.105,0.879,-1.099,0.382,1.115
0.380,0.098,-0.110,0.892,-1.069,0.061,0.931
0.390,0.105,-0.105,0.890,-0.733,-0.260,0.870
0.390,0.112,-0.104,0.890,-0.672,-0.168,0.794
0.390,0.110,-0.099,0.890,-0.565,-0.137,0.687
0.400,0.105,-0.107,0.882,-0.489,-0.015,0.336
0.400,0.101,-0.102,0.875,-0.397,-0.366,0.519
0.410,0.107,-0.102,0.882,-0.397,-0.595,0.305
0.410,0.099,-0.101,0.882,-0.565,-0.916,0.168
0.410,0.098,-0.097,0.892,-0.687,-0.779,0.260
0.420,0.093,-0.104,0.884,-0.748,-0.947,0.305
0.420,0.095,-0.099,0.879,-0.977,-0.901,0.489
0.430,0.093,-0.099,0.877,-0.885,-1.160,0.626
0.430,0.089,-0.096,0.874,-1.145,-1.359,0.519
0.430,0.101,-0.102,0.885,-1.573,-1.099,0.427
0.440,0.102,-0.102,0.869,-1.603,-0.992,0.427
0.440,0.105,-0.106,0.880,-1.542,-0.763,0.321
0.450,0.092,-0.105,0.881,-1.740,-0.718,0.427
0.450,0.098,-0.102,0.883,-2.122,-0.473,0.473
0.450,0.098,-0.102,0.894,-1.740,-0.260,0.489
0.460,0.098,-0.103,0.906,-1.863,0.092,0.748
0.460,0.099,-0.103,0.904,-1.618,0.153,0.504
0.470,0.098,-0.108,0.897,-1.267,0.031,0.626
0.470,0.101,-0.110,0.904,-1.038,-0.046,0.565
0.470,0.097,-0.107,0.895,-0.840,-0.336,0.580
0.480,0.102,-0.105,0.900,-0.641,-0.076,0.718
0.480,0.107,-0.105,0.898,-0.336,0.031,0.366
0.480,0.103,-0.104,0.901,-0.290,0.382,0.458
0.490,0.100,-0.105,0.894,-0.275,0.489,0.473
0.490,0.096,-0.095,0.889,-0.427,0.473,0.550
0.500,0.103,-0.101,0.896,-0.763,0.550,0.244
0.500,0.103,-0.100,0.893,-0.779,0.595,0.321
0.500,0.097,-0.107,0.890,-0.962,0.427,0.168
0.510,0.102,-0.102,0.896,-1.053,-0.427,0.229
0.510,0.105,-0.104,0.904,-1.298,-0.382,-0.046
0.520,0.109,-0.102,0.896,-0.992,-0.092,-0.092
0.520,0.104,-0.097,0.896,-0.916,-0.015,-0.198
0.520,0.100,-0.098,0.906,-0.611,-0.137,-0.214
0.530,0.103,-0.105,0.907,-0.382,-0.183,-0.458
0.530,0.100,-0.101,0.902,-0.031,-0.244,-0.473
0.540,0.102,-0.099,0.906,0.046,-0.275,-0.550
0.540,0.097,-0.097,0.901,0.443,-0.382,-0.885
0.540,0.084,-0.102,0.891,0.595,-0.519,-0.748
0.550,0.085,-0.095,0.891,0.427,-1.130,-0.626
0.550,0.084,-0.095,0.895,0.198,-1.435,-0.382
0.560,0.086,-0.092,0.894,0.214,-1.344,-0.351
0.560,0.092,-0.102,0.889,-0.015,-1.053,-0.290
0.560,0.090,-0.089,0.882,-0.427,-0.580,-0.046
0.570,0.088,-0.104,0.886,-0.534,-0.015,0.275
0.570,0.090,-0.093,0.876,-0.687,0.336,0.229
0.580,0.098,-0.098,0.881,-1.221,0.565,0.198
0.580,0.099,-0.098,0.881,-1.267,0.580,0.351
0.580,0.107,-0.098,0.904,-1.069,1.420,0.427
0.590,0.101,-0.098,0.893,-1.053,1.573,0.244
0.590,0.095,-0.100,0.904,-0.840,1.374,0.107
0.600,0.093,-0.100,0.897,-0.794,0.977,0.168
0.600,0.092,-0.102,0.901,-0.412,1.206,0.183
0.600,0.093,-0.101,0.905,-0.351,0.809,0.046
0.610,0.096,-0.103,0.896,-0.076,0.351,-0.076
0.610,0.095,-0.101,0.895,0.061,-0.595,-0.382
0.620,0.087,-0.105,0.894,-0.015,-1.985,-0.626
0.620,0.089,-0.102,0.891,0.015,-2.336,-0.718
0.620,0.099,-0.102,0.896,0.137,-2.504,-0.580
0.630,0.091,-0.100,0.894,-0.107,-2.229,-0.473
0.630,0.093,-0.100,0.889,-0.076,-2.015,-0.305
0.640,0.097,-0.098,0.885,0.153,-1.496,-0.321
0.640,0.091,-0.100,0.895,-0.137,-1.206,-0.244
0.640,0.086,-0.096,0.888,0.076,-0.901,-0.198
0.650,0.077,-0.098,0.884,0.076,-0.305,0.107
0.650,0.081,-0.097,0.897,0.122,-0.336,0.489
0.660,0.085,-0.099,0.897,0.000,0.046,0.794
0.660,0.092,-0.093,0.893,-0.214,0.458,0.901
0.660,0.104,-0.098,0.895,-0.504,0.885,1.053
0.670,0.103,-0.100,0.897,-0.443,1.206,0.779
0.670,0.108,-0.104,0.894,-0.458,1.664,0.824
0.680,0.105,-0.097,0.900,-0.550,1.908,0.656
0.680,0.104,-0.101,0.910,-0.427,2.015,0.641
0.680,0.097,-0.102,0.897,-0.244,1.817,0.611
0.690,0.103,-0.092,0.894,-0.092,1.344,0.321
0.690,0.101,-0.094,0.901,0.046,0.397,-0.015
0.700,0.103,-0.095,0.905,0.427,-1.237,-0.489
0.700,0.101,-0.102,0.912,0.763,-1.740,-0.824
0.700,0.109,-0.098,0.920,1.344,-1.679,-0.992
0.710,0.100,-0.098,0.921,1.817,-1.282,-1.176
0.710,0.094,-0.100,0.904,2.382,-1.420,-0.885
0.720,0.091,-0.094,0.894,2.336,-0.870,-0.763
0.720,0.093,-0.095,0.893,2.626,-0.076,-0.611
0.720,0.090,-0.093,0.881,2.397,0.504,-0.458
0.730,0.091,-0.100,0.892,2.412,1.435,-0.214
0.730,0.084,-0.094,0.873,2.153,2.244,0.076
0.730,0.072,-0.089,0.878,1.603,2.565,0.183
0.740,0.083,-0.086,0.867,1.206,2.977,0.550
0.740,0.079,-0.087,0.863,0.885,3.237,0.794
0.750,0.084,-0.091,0.875,0.473,3.237,1.038
0.750,0.086,-0.087,0.866,0.092,2.931,1.069
0.750,0.085,-0.092,0.869,-0.336,2.244,1.221
0.760,0.089,-0.092,0.875,-0.824,1.130,0.947
0.760,0.095,-0.081,0.887,-1.008,0.687,0.885
0.770,0.095,-0.089,0.881,-1.176,0.229,0.733
0.770,0.101,-0.092,0.889,-1.130,-0.198,0.458
0.770,0.102,-0.093,0.881,-1.160,-0.824,0.412
0.780,0.104,-0.099,0.898,-1.053,-1.313,0.260
0.780,0.101,-0.089,0.896,-0.718,-1.435,-0.031
0.790,0.096,-0.092,0.893,-0.672,-1.634,-0.336
0.790,0.099,-0.092,0.885,-0.504,-1.573,-0.321
0.790,0.094,-0.097,0.895,-0.412,-1.557,-0.275
0.800,0.088,-0.094,0.893,-0.137,-1.176,-0.214
0.800,0.089,-0.094,0.877,-0.336,-1.115,-0.168
0.810,0.085,-0.094,0.881,-0.351,-1.206,0.092
0.810,0.082,-0.088,0.874,-0.779,-1.023,0.458
0.810,0.094,-0.089,0.892,-1.008,-0.336,0.916
0.820,0.093,-0.093,0.887,-0.977,0.718,1.023
0.820,0.098,-0.097,0.886,-1.053,0.947,0.885
0.830,0.097,-0.097,0.899,-1.130,0.672,0.580
0.830,0.103,-0.095,0.903,-1.038,1.008,0.489
0.830,0.108,-0.097,0.900,-0.702,1.130,0.351
0.840,0.106,-0.094,0.902,-0.595,1.130,0.229
0.840,0.109,-0.092,0.912,-0.336,1.374,0.214
0.850,0.113,-0.094,0.894,-0.076,1.557,0.015
0.850,0.111,-0.094,0.895,0.107,1.573,-0.198
0.850,0.118,-0.085,0.891,-0.198,1.267,-0.382
0.860,0.113,-0.093,0.891,-0.198,0.855,-0.595
0.860,0.108,-0.090,0.896,-0.366,0.534,-0.885
0.860,0.104,-0.091,0.880,-0.565,0.092,-1.130
0.870,0.090,-0.092,0.878,-0.748,-0.855,-1.328
0.870,0.088,-0.089,0.893,-0.809,-2.061,-1.374
0.880,0.083,-0.096,0.885,-0.809,-2.443,-1.313
0.880,0.073,-0.088,0.898,-1.008,-2.595,-0.885
0.890,0.078,-0.093,0.889,-1.053,-2.076,-0.473
0.890,0.082,-0.096,0.897,-1.008,-1.298,-0.046
0.890,0.086,-0.092,0.899,-0.840,-0.458,0.305
0.900,0.085,-0.096,0.898,-0.718,0.519,0.748
0.900,0.088,-0.101,0.906,-0.626,1.252,0.947
0.910,0.096,-0.099,0.900,-0.397,1.847,0.855
0.910,0.103,-0.094,0.904,0.031,1.725,0.656
0.910,0.106,-0.098,0.908,0.321,1.435,0.229
0.920,0.104,-0.095,0.906,0.321,1.176,0.275
0.920,0.106,-0.094,0.902,0.412,1.374,0.153
0.920,0.096,-0.094,0.905,0.534,1.603,0.336
0.930,0.088,-0.093,0.900,0.626,1.145,0.321
0.930,0.090,-0.097,0.888,0.458,0.580,0.137
0.940,0.096,-0.084,0.886,0.198,-0.321,0.183
0.940,0.098,-0.090,0.890,0.260,-0.672,-0.183
0.940,0.106,-0.088,0.892,-0.015,-1.053,-0.137
0.950,0.099,-0.083,0.898,0.107,-1.084,-0.183
0.950,0.100,-0.085,0.893,-0.168,-0.977,-0.260
0.960,0.107,-0.089,0.904,-0.183,-1.145,-0.397
0.960,0.105,-0.090,0.909,-0.229,-1.130,-0.443
0.960,0.113,-0.092,0.910,-0.122,-1.069,-0.489
0.970,0.119,-0.083,0.919,0.137,-0.504,-0.550
0.970,0.122,-0.092,0.924,0.473,-0.061,-0.702
0.980,0.115,-0.091,0.932,0.855,0.275,-0.809
0.980,0.119,-0.095,0.927,1.206,0.702,-0.962
0.980,0.121,-0.095,0.938,1.557,1.328,-1.206
0.990,0.118,-0.094,0.931,2.214,1.496,-1.298
0.990,0.103,-0.098,0.936,2.656,1.374,-1.206
1.000,0.099,-0.100,0.917,2.763,1.115,-1.328
1.000,0.094,-0.089,0.915,2.947,0.550,-1.160
1.000,0.100,-0.090,0.918,2.702,0.168,-1.374
1.010,0.103,-0.095,0.908,2.931,-0.153,-1.405
1.010,0.091,-0.094,0.916,2.977,-0.366,-1.328
1.020,0.090,-0.090,0.901,2.611,-0.641,-1.191
1.020,0.095,-0.084,0.907,2.473,-0.550,-0.916
1.020,0.097,-0.091,0.907,2.305,0.015,-0.534
1.030,0.102,-0.089,0.914,2.290,0.779,-0.504
1.030,0.107,-0.091,0.918,2.382,1.450,-0.702
1.040,0.103,-0.092,0.910,2.183,1.618,-0.718
1.040,0.107,-0.095,0.924,2.046,1.542,-0.931
1.040,0.108,-0.094,0.939,2.412,2.458,-0.947
1.050,0.107,-0.097,0.935,2.473,2.718,-0.947
1.050,0.099,-0.104,0.944,2.779,2.214,-0.794
1.050,0.093,-0.102,0.962,3.405,1.786,-0.947
1.060,0.095,-0.102,0.972,4.412,1.328,-1.115
1.060,0.100,-0.105,0.980,5.191,1.313,-0.992
1.070,0.094,-0.104,0.982,5.969,1.130,-0.794
1.070,0.098,-0.106,0.977,7.328,1.374,-0.718
1.070,0.098,-0.101,0.971,7.527,1.252,-0.763
1.080,0.101,-0.097,0.959,8.260,1.359,-0.840
1.080,0.111,-0.094,0.965,8.641,0.763,-0.916
1.090,0.108,-0.089,0.974,8.794,0.214,-0.992
1.090,0.105,-0.091,0.969,8.885,0.748,-0.733
1.090,0.116,-0.084,0.969,8.916,1.878,-0.412
1.100,0.111,-0.086,0.974,9.130,2.260,-0.611
1.100,0.121,-0.092,0.972,9.496,2.397,-0.534
1.110,0.130,-0.083,0.980,10.198,2.702,-0.870
1.110,0.115,-0.086,0.985,10.931,3.160,-1.008
1.110,0.115,-0.085,0.981,11.771,3.679,-1.038
1.120,0.107,-0.083,0.987,12.443,4.183,-1.038
1.120,0.112,-0.080,0.988,12.916,4.397,-1.099
1.130,0.115,-0.078,0.983,13.527,4.504,-1.267
1.130,0.115,-0.077,0.999,14.061,4.046,-1.405
1.130,0.121,-0.080,1.010,14.305,3.374,-1.649
1.140,0.127,-0.085,1.004,14.794,2.947,-1.893
1.140,0.123,-0.084,1.012,15.527,2.931,-1.908
1.150,0.130,-0.079,1.023,16.168,3.344,-2.275
1.150,0.140,-0.083,1.027,16.550,4.763,-2.427
1.150,0.155,-0.083,1.031,17.573,6.794,-2.870
1.160,0.155,-0.084,1.042,18.427,9.053,-3.389
1.160,0.143,-0.084,1.042,19.252,11.603,-3.328
1.170,0.125,-0.083,1.041,20.107,13.618,-3.115
1.170,0.107,-0.078,1.043,20.519,16.137,-2.718
1.170,0.105,-0.078,1.052,20.962,18.565,-1.527
1.180,0.107,-0.076,1.066,21.237,21.588,-0.702
1.180,0.112,-0.078,1.071,21.496,24.916,-0.015
1.190,0.115,-0.076,1.088,22.443,27.893,0.382
1.190,0.111,-0.079,1.102,23.237,29.908,0.626
1.190,0.113,-0.080,1.117,24.382,31.313,0.794
1.200,0.118,-0.080,1.138,25.954,33.115,0.748
1.200,0.115,-0.080,1.146,27.603,34.336,0.855
1.210,0.109,-0.086,1.158,29.450,34.992,0.489
1.210,0.101,-0.085,1.171,31.221,33.847,-0.076
1.210,0.081,-0.084,1.174,33.664,31.145,-0.519
1.220,0.065,-0.089,1.185,36.611,27.893,-1.344
1.220,0.056,-0.088,1.187,39.069,24.244,-1.573
1.230,0.044,-0.085,1.170,41.573,20.443,-1.664
1.230,0.043,-0.077,1.159,43.786,16.824,-1.435
1.230,0.038,-0.072,1.154,45.649,13.466,-1.130
1.240,0.034,-0.075,1.152,47.160,11.191,-1.099
1.240,0.052,-0.065,1.142,48.702,9.664,-1.313
1.250,0.049,-0.063,1.137,50.382,8.977,-1.313
1.250,0.049,-0.060,1.134,51.603,8.565,-0.962
1.250,0.054,-0.052,1.110,52.504,9.099,-0.519
1.260,0.060,-0.050,1.111,53.099,9.985,-0.489
1.260,0.062,-0.050,1.111,53.756,11.252,-0.382
1.270,0.052,-0.051,1.110,54.687,12.244,-0.031
1.270,0.035,-0.052,1.109,55.542,12.702,0.763
1.270,0.030,-0.057,1.127,56.534,13.496,1.374
1.280,0.025,-0.060,1.140,58.229,14.305,2.214
1.280,0.031,-0.056,1.147,60.397,14.962,3.084
1.290,0.025,-0.057,1.151,62.275,14.870,3.740
1.290,0.023,-0.058,1.147,64.046,14.229,4.412
1.290,0.034,-0.053,1.150,65.649,13.298,4.611
1.300,0.046,-0.063,1.153,68.107,12.015,4.504
1.300,0.046,-0.064,1.162,70.305,10.824,4.015
1.310,0.053,-0.053,1.172,71.924,9.725,3.817
1.310,0.043,-0.057,1.175,74.061,9.221,3.847
1.310,0.043,-0.058,1.179,76.137,8.947,3.786
1.320,0.034,-0.053,1.186,78.275,8.763,4.046
1.320,0.028,-0.060,1.186,80.565,9.038,4.458
1.330,0.021,-0.062,1.196,82.885,9.435,5.298
1.330,0.012,-0.053,1.201,86.046,10.779,6.046
1.330,0.018,-0.059,1.206,88.702,12.336,6.947
1.340,0.021,-0.056,1.201,91.908,14.519,7.634
1.340,0.026,-0.052,1.204,94.855,15.603,8.580
1.350,0.017,-0.046,1.183,96.947,15.863,8.870
1.350,0.020,-0.038,1.175,97.786,14.947,8.840
1.350,0.036,-0.032,1.173,99.695,14.321,8.977
1.360,0.031,-0.032,1.167,101.557,14.198,8.611
1.360,0.021,-0.024,1.171,103.359,12.870,8.351
1.370,0.013,-0.024,1.172,104.626,10.168,8.168
1.370,0.015,-0.017,1.173,106.427,7.740,7.847
1.370,0.019,-0.014,1.162,108.031,6.397,7.786
1.380,0.011,-0.016,1.173,109.908,5.847,8.076
1.380,0.009,-0.007,1.189,111.939,5.679,8.122
1.390,0.002,-0.014,1.189,114.489,4.656,8.489
1.390,0.003,-0.010,1.182,117.145,3.710,8.611
1.390,0.005,-0.008,1.191,119.695,3.740,8.855
1.400,0.014,-0.002,1.174,122.153,4.290,8.809
1.400,0.015,0.007,1.162,123.786,4.122,8.672
1.410,0.009,0.009,1.165,125.939,3.542,8.626
1.410,-0.003,0.013,1.156,128.046,2.824,8.763
1.410,-0.014,0.010,1.167,130.275,1.679,8.916
1.420,-0.010,0.013,1.161,132.901,1.221,9.389
1.420,-0.013,0.024,1.153,135.557,0.397,9.511
1.430,-0.033,0.019,1.160,138.473,-2.473,9.359
1.430,-0.022,0.011,1.167,141.634,-3.328,9.863
1.430,0.001,0.030,1.133,143.237,0.366,10.366
1.440,-0.040,0.017,1.141,147.206,-0.870,10.229
1.440,-0.044,0.026,1.155,150.763,-3.450,10.168
1.450,-0.037,0.034,1.120,154.244,-3.985,10.198
1.450,-0.044,0.044,1.116,157.511,-4.947,10.427
1.450,-0.052,0.054,1.101,159.908,-5.420,11.008
1.460,-0.051,0.062,1.065,162.351,-4.809,11.740
1.460,-0.046,0.075,1.046,164.015,-4.748,12.260
1.470,-0.039,0.093,1.020,165.420,-5.542,12.534
1.470,-0.035,0.102,1.001,166.947,-5.847,12.809
1.480,-0.033,0.118,0.985,168.122,-5.435,13.237
1.480,-0.035,0.123,0.949,169.405,-4.443,14.061
1.480,-0.031,0.131,0.940,170.198,-4.351,14.702
1.490,-0.047,0.137,0.926,171.115,-5.099,15.237
1.490,-0.038,0.141,0.923,171.847,-5.710,15.725
1.500,-0.027,0.151,0.910,173.084,-6.275,16.000
1.500,-0.022,0.158,0.898,174.595,-7.328,16.290
1.500,-0.024,0.165,0.873,175.939,-8.122,17.206
1.510,-0.022,0.184,0.867,176.748,-7.603,18.061
1.510,-0.016,0.182,0.853,177.359,-5.954,19.069
1.520,-0.000,0.194,0.844,177.863,-3.160,20.366
1.520,0.007,0.208,0.831,178.504,1.359,21.969
1.530,0.016,0.218,0.815,178.992,7.221,23.679
1.530,0.010,0.219,0.804,179.206,13.771,25.618
1.530,0.022,0.222,0.799,179.695,21.252,28.275
1.540,0.022,0.228,0.798,180.672,30.076,30.931
1.540,0.030,0.232,0.790,181.847,40.412,33.802
1.550,0.055,0.239,0.796,183.053,53.542,36.702
1.550,0.076,0.242,0.772,184.092,68.458,39.603
1.550,0.072,0.253,0.750,184.565,81.954,42.382
1.560,0.055,0.255,0.735,184.626,92.489,44.687
1.560,-0.014,0.269,0.739,185.725,97.237,47.435
1.570,-0.027,0.294,0.686,187.053,97.038,49.603
1.570,-0.005,0.300,0.674,186.489,94.336,49.878
1.570,0.011,0.322,0.639,186.076,89.374,48.992
1.580,-0.010,0.341,0.639,186.611,79.695,48.473
1.580,-0.022,0.360,0.533,186.229,71.038,47.069
1.590,-0.051,0.385,0.487,182.916,57.939,45.466
1.590,-0.058,0.406,0.464,180.443,41.466,43.847
1.600,-0.037,0.425,0.360,177.084,32.702,41.573
1.600,-0.019,0.470,0.319,167.908,30.718,40.489
1.600,-0.062,0.506,0.331,161.725,21.924,40.840
1.610,-0.111,0.469,0.385,162.702,3.282,40.550
1.610,-0.121,0.483,0.414,162.824,-13.908,40.473
1.620,-0.068,0.505,0.345,160.321,-21.542,40.244
1.620,-0.039,0.511,0.312,156.702,-23.221,40.473
1.620,-0.044,0.519,0.320,153.511,-25.725,41.069
1.630,-0.025,0.505,0.341,152.397,-28.473,40.855
1.630,0.006,0.523,0.320,150.779,-29.176,40.443
1.640,0.029,0.526,0.307,148.947,-27.954,40.198
1.640,0.024,0.516,0.317,148.947,-27.878,40.031
1.650,0.019,0.506,0.354,150.122,-29.023,40.397
1.650,0.028,0.498,0.345,151.878,-29.069,41.130
1.650,0.039,0.497,0.336,153.802,-27.573,41.466
1.660,0.029,0.497,0.322,156.336,-26.672,41.969
1.660,0.037,0.485,0.307,158.977,-27.771,41.786
1.670,0.045,0.498,0.279,161.450,-28.763,41.527
1.670,0.051,0.494,0.266,163.786,-29.374,40.824
1.670,0.061,0.498,0.263,165.252,-30.382,40.153
1.680,0.078,0.506,0.255,166.382,-31.786,39.374
1.680,0.086,0.520,0.229,167.466,-32.534,38.305
1.690,0.100,0.519,0.204,167.878,-32.977,37.893
1.690,0.090,0.530,0.167,168.000,-33.527,37.313
1.700,0.099,0.535,0.149,167.511,-34.489,36.626
1.700,0.126,0.551,0.134,167.389,-33.420,35.664
1.700,0.129,0.553,0.109,167.237,-32.275,34.626
1.710,0.117,0.554,0.105,166.412,-32.565,33.924
1.710,0.091,0.569,0.094,166.107,-35.237,33.969
1.720,0.081,0.568,0.099,165.573,-37.496,33.649
1.720,0.100,0.568,0.098,165.374,-38.015,33.496
1.720,0.101,0.576,0.093,165.176,-38.473,33.374
1.730,0.111,0.572,0.078,165.374,-38.122,32.855
1.730,0.118,0.589,0.047,164.198,-38.519,32.351
1.740,0.103,0.589,0.042,164.473,-40.779,32.092
1.740,0.125,0.604,0.022,163.847,-39.924,32.046
1.750,0.121,0.609,-0.008,162.550,-39.145,31.603
1.750,0.111,0.622,-0.017,160.947,-41.130,30.779
1.750,0.109,0.621,-0.029,159.313,-44.015,30.244
1.760,0.102,0.628,-0.051,156.046,-45.771,29.634
1.760,0.124,0.633,-0.053,153.115,-47.053,29.084
1.770,0.136,0.638,-0.031,151.160,-48.305,27.786
1.770,0.159,0.638,-0.017,150.672,-48.748,26.458
1.780,0.170,0.635,-0.024,150.458,-48.672,25.344
1.780,0.167,0.638,-0.035,150.901,-47.817,24.366
1.780,0.174,0.650,-0.053,150.824,-46.275,23.740
1.790,0.171,0.663,-0.070,151.191,-45.221,22.748
1.790,0.165,0.670,-0.097,152.122,-45.771,21.282
1.800,0.165,0.669,-0.114,152.244,-48.321,19.542
1.800,0.172,0.678,-0.126,151.725,-49.374,18.153
1.800,0.179,0.689,-0.149,151.038,-48.260,17.130
1.810,0.181,0.683,-0.177,150.351,-47.237,16.214
1.810,0.169,0.693,-0.198,148.824,-47.710,14.947
1.820,0.168,0.711,-0.237,145.832,-46.870,14.107
1.820,0.171,0.714,-0.247,143.939,-44.107,13.557
1.830,0.162,0.719,-0.238,142.733,-41.160,13.298
1.830,0.170,0.727,-0.248,141.313,-38.962,12.977
1.830,0.169,0.732,-0.288,139.740,-35.450,12.718
1.840,0.160,0.743,-0.333,136.504,-32.992,12.336
1.840,0.148,0.751,-0.359,132.687,-32.214,11.786
1.850,0.137,0.760,-0.357,128.809,-32.840,11.435
1.850,0.141,0.770,-0.345,125.756,-34.137,11.130
1.860,0.130,0.761,-0.312,124.153,-35.298,10.779
1.860,0.121,0.764,-0.333,122.840,-35.878,11.466
1.860,0.116,0.756,-0.331,121.603,-36.672,11.908
1.870,0.126,0.757,-0.324,119.908,-37.786,11.847
1.870,0.137,0.765,-0.339,118.931,-38.336,11.420
1.880,0.142,0.765,-0.320,118.824,-38.672,10.901
1.880,0.149,0.756,-0.304,119.847,-38.947,10.198
1.890,0.147,0.754,-0.349,119.924,-38.870,9.313
1.890,0.147,0.778,-0.377,117.847,-39.328,8.504
1.890,0.141,0.797,-0.381,115.588,-39.115,7.893
1.900,0.137,0.810,-0.383,115.084,-37.832,7.405
1.900,0.131,0.798,-0.380,115.160,-35.863,7.450
1.910,0.116,0.804,-0.408,114.718,-33.405,7.969
1.910,0.101,0.813,-0.449,113.481,-31.527,9.206
1.910,0.094,0.819,-0.468,111.221,-28.611,10.336
1.920,0.108,0.825,-0.487,109.313,-23.542,11.985
1.920,0.112,0.828,-0.500,107.725,-18.366,13.664
1.930,0.118,0.833,-0.492,105.725,-13.786,14.870
1.930,0.134,0.845,-0.509,103.344,-9.832,16.458
1.940,0.139,0.837,-0.506,101.786,-5.069,18.122
1.940,0.137,0.832,-0.513,100.824,0.641,21.099
1.940,0.115,0.832,-0.518,99.252,6.672,24.763
1.950,0.127,0.834,-0.548,99.008,13.069,28.855
1.950,0.153,0.855,-0.566,95.893,21.496,32.382
1.960,0.167,0.859,-0.568,94.962,28.992,35.542
1.960,0.167,0.866,-0.589,95.252,35.145,38.656
1.960,0.184,0.870,-0.607,93.710,40.489,40.611
1.970,0.200,0.878,-0.647,91.420,43.939,41.313
1.970,0.216,0.898,-0.672,87.573,43.725,40.870
1.980,0.223,0.904,-0.684,84.595,39.924,39.359
1.980,0.265,0.904,-0.687,82.183,33.542,36.183
1.990,0.275,0.904,-0.708,81.099,24.763,33.344
1.990,0.267,0.924,-0.724,78.718,14.122,29.664
1.990,0.279,0.933,-0.749,75.832,4.107,26.824
2.000,0.283,0.944,-0.767,74.122,-4.733,24.260
2.000,0.295,0.940,-0.776,73.359,-12.580,22.168
2.010,0.329,0.953,-0.788,71.344,-16.733,20.290
2.010,0.357,0.949,-0.813,70.641,-17.481,19.053
2.010,0.378,0.959,-0.828,69.679,-15.496,18.641
2.020,0.369,0.954,-0.842,68.992,-13.115,18.733
2.020,0.375,0.948,-0.880,67.191,-8.885,18.824
2.030,0.390,0.967,-0.926,63.695,-2.198,19.298
2.030,0.399,0.963,-0.932,60.473,3.664,19.252
2.030,0.397,0.978,-0.950,56.382,8.962,18.947
2.040,0.405,0.985,-0.977,51.969,13.695,18.809
2.040,0.407,0.988,-0.973,47.756,18.565,18.626
2.050,0.417,0.998,-0.989,43.115,22.214,17.786
2.050,0.409,1.005,-1.014,37.496,24.137,16.779
2.050,0.394,1.009,-1.038,30.779,23.802,15.496
2.060,0.383,1.011,-1.039,24.504,21.817,13.969
2.060,0.372,1.000,-1.011,18.824,18.489,12.321
2.070,0.356,1.012,-0.996,14.641,15.267,11.847
2.070,0.343,0.964,-0.953,10.305,7.863,9.573
2.070,0.344,0.980,-0.953,5.099,2.198,7.527
2.080,0.341,0.963,-0.923,1.740,-5.969,4.962
2.080,0.347,0.959,-0.897,-1.542,-13.405,1.786
2.090,0.372,0.959,-0.888,-5.389,-20.076,-1.664
2.090,0.375,0.953,-0.867,-8.931,-23.313,-4.366
2.090,0.357,0.948,-0.836,-11.893,-24.656,-6.153
2.100,0.335,0.931,-0.807,-14.321,-24.412,-6.794
2.100,0.327,0.926,-0.792,-16.855,-22.748,-7.389
2.110,0.333,0.925,-0.765,-19.374,-20.809,-8.153
2.110,0.325,0.917,-0.741,-21.588,-19.389,-9.435
2.120,0.326,0.918,-0.725,-23.939,-17.191,-10.519
2.120,0.320,0.913,-0.714,-26.504,-13.817,-11.603
2.120,0.293,0.908,-0.701,-28.840,-10.458,-12.198
2.130,0.278,0.906,-0.701,-30.550,-7.466,-12.321
2.130,0.257,0.908,-0.688,-32.427,-5.542,-12.718
2.140,0.228,0.916,-0.710,-34.870,-3.557,-12.763
2.140,0.208,0.921,-0.719,-37.756,-2.122,-12.656
2.150,0.187,0.913,-0.722,-40.611,-1.252,-12.641
2.150,0.157,0.907,-0.719,-42.992,-0.229,-12.168
2.150,0.145,0.904,-0.703,-45.542,-0.183,-11.679
2.160,0.134,0.902,-0.700,-47.786,-1.267,-11.237
2.160,0.130,0.888,-0.685,-49.679,-2.412,-10.626
2.170,0.133,0.887,-0.656,-50.947,-2.992,-10.076
2.170,0.136,0.882,-0.655,-51.618,-2.870,-9.435
2.180,0.141,0.872,-0.645,-52.534,-3.176,-8.763
2.180,0.169,0.860,-0.638,-52.580,-2.275,-7.771
2.180,0.189,0.863,-0.644,-53.038,1.695,-7.130
2.190,0.197,0.871,-0.659,-53.496,5.237,-6.107
2.190,0.210,0.884,-0.687,-54.397,8.702,-5.221
2.200,0.228,0.891,-0.708,-55.435,12.168,-4.885
2.200,0.249,0.906,-0.743,-57.237,15.985,-4.672
2.200,0.257,0.917,-0.776,-60.214,18.321,-4.870
2.210,0.266,0.922,-0.789,-63.817,19.313,-5.786
2.210,0.280,0.930,-0.800,-67.603,20.305,-6.672
2.220,0.275,0.933,-0.808,-71.481,20.336,-7.908
2.220,0.295,0.938,-0.811,-75.527,18.626,-9.405
2.230,0.304,0.935,-0.808,-80.305,16.336,-11.466
2.230,0.305,0.935,-0.809,-85.282,14.153,-13.191
2.230,0.299,0.926,-0.808,-89.664,12.305,-14.656
2.240,0.298,0.925,-0.803,-94.504,10.336,-16.336
2.240,0.297,0.916,-0.795,-98.702,8.687,-17.603
2.250,0.286,0.902,-0.773,-102.824,6.962,-18.397
2.250,0.256,0.883,-0.748,-106.412,5.756,-18.565
2.260,0.247,0.875,-0.709,-109.099,6.015,-18.580
2.260,0.240,0.862,-0.667,-111.374,7.145,-18.427
2.260,0.224,0.850,-0.634,-113.206,8.458,-18.290
2.270,0.228,0.846,-0.610,-114.672,9.863,-18.107
2.270,0.221,0.844,-0.605,-116.031,12.092,-18.763
2.280,0.224,0.840,-0.597,-117.282,14.351,-19.389
2.280,0.208,0.837,-0.600,-118.397,16.794,-20.229
2.290,0.184,0.834,-0.584,-119.206,17.863,-20.595
2.290,0.161,0.828,-0.573,-119.221,18.672,-20.550
2.290,0.138,0.831,-0.586,-119.389,19.985,-19.511
2.300,0.120,0.842,-0.590,-121.069,20.137,-18.290
2.300,0.121,0.860,-0.622,-123.191,18.672,-17.176
2.310,0.136,0.865,-0.639,-127.115,16.702,-16.947
2.310,0.149,0.861,-0.631,-130.824,14.427,-17.191
2.320,0.170,0.867,-0.624,-135.221,11.313,-18.046
2.320,0.189,0.853,-0.612,-139.237,8.626,-19.206
2.320,0.209,0.842,-0.586,-142.718,7.206,-20.290
2.330,0.210,0.827,-0.572,-146.000,6.122,-20.611
2.330,0.203,0.814,-0.538,-148.901,5.679,-20.534
2.340,0.212,0.808,-0.514,-151.069,6.489,-20.504
2.340,0.212,0.797,-0.500,-153.038,8.198,-20.183
2.350,0.205,0.789,-0.476,-154.824,10.824,-19.954
2.350,0.188,0.777,-0.455,-156.901,12.779,-19.313
2.350,0.175,0.764,-0.424,-158.733,15.725,-17.939
2.360,0.163,0.755,-0.393,-160.519,18.977,-16.290
2.360,0.163,0.741,-0.349,-162.305,21.267,-14.458
2.370,0.158,0.724,-0.292,-162.901,22.947,-13.328
2.370,0.165,0.720,-0.250,-162.977,23.115,-12.763
2.380,0.167,0.704,-0.224,-163.038,21.588,-12.916
2.380,0.166,0.707,-0.213,-163.740,18.748,-13.298
2.380,0.166,0.716,-0.208,-164.916,15.847,-13.496
2.390,0.155,0.722,-0.202,-166.092,12.382,-13.664
2.390,0.168,0.718,-0.185,-168.000,8.000,-13.817
2.400,0.188,0.720,-0.171,-170.443,4.504,-14.672
2.400,0.210,0.717,-0.175,-172.550,2.260,-15.771
2.410,0.221,0.715,-0.165,-174.947,-0.458,-17.679
2.410,0.239,0.717,-0.166,-177.435,-1.740,-20.061
2.410,0.260,0.714,-0.181,-180.122,-1.802,-23.710
2.420,0.272,0.704,-0.193,-182.672,-3.191,-27.282
2.420,0.247,0.697,-0.169,-185.038,-4.656,-30.382
2.430,0.202,0.678,-0.146,-186.931,-6.260,-31.756
2.430,0.155,0.646,-0.106,-188.672,-7.863,-31.634
2.440,0.115,0.636,-0.069,-189.710,-8.305,-29.649
2.440,0.075,0.608,-0.002,-189.969,-7.267,-25.374
2.450,0.039,0.578,0.057,-189.557,-4.122,-19.634
2.450,0.053,0.564,0.129,-188.031,0.931,-14.061
2.450,0.084,0.548,0.177,-186.031,8.412,-9.359
2.460,0.154,0.547,0.207,-183.893,17.344,-6.214
2.460,0.209,0.535,0.230,-182.046,26.519,-5.481
2.470,0.242,0.547,0.217,-181.618,35.282,-6.198
2.470,0.244,0.558,0.216,-181.985,40.031,-7.832
2.470,0.230,0.549,0.227,-182.550,41.221,-10.550
2.480,0.204,0.546,0.240,-183.160,38.870,-13.878
2.480,0.167,0.543,0.245,-183.115,32.122,-16.565
2.490,0.149,0.545,0.245,-183.740,24.366,-19.008
2.490,0.120,0.532,0.271,-183.115,14.382,-21.328
2.500,0.110,0.530,0.278,-182.229,5.130,-23.359
2.500,0.114,0.528,0.261,-181.878,-0.626,-24.870
2.500,0.113,0.526,0.254,-181.389,-5.267,-26.244
2.510,0.106,0.516,0.263,-180.351,-9.893,-27.908
2.510,0.076,0.510,0.242,-179.420,-14.183,-29.160
2.520,0.030,0.490,0.244,-178.992,-18.794,-29.496
2.520,-0.022,0.474,0.259,-178.855,-22.611,-27.099
2.530,-0.067,0.467,0.283,-178.626,-24.519,-22.672
2.530,-0.070,0.451,0.331,-178.366,-24.473,-17.359
2.530,-0.056,0.431,0.387,-178.260,-21.267,-11.817
2.540,-0.016,0.418,0.407,-178.092,-13.115,-6.427
2.540,0.052,0.416,0.431,-177.282,-1.954,-2.305
2.550,0.132,0.413,0.458,-176.840,10.229,-0.382
2.550,0.174,0.408,0.439,-177.038,22.718,0.260
2.560,0.180,0.410,0.431,-178.107,34.153,0.229
2.560,0.159,0.404,0.419,-179.160,41.603,0.046
2.560,0.147,0.400,0.419,-180.168,45.313,-1.023
2.570,0.140,0.388,0.418,-182.198,46.061,-3.588
2.570,0.104,0.380,0.460,-182.168,39.511,-7.374
2.580,0.038,0.361,0.462,-181.221,27.511,-10.763
2.580,-0.018,0.342,0.470,-181.176,11.542,-13.420
2.580,-0.058,0.339,0.473,-179.145,-3.481,-13.939
2.590,-0.063,0.330,0.478,-177.115,-15.924,-13.191
2.590,-0.038,0.322,0.464,-174.229,-26.046,-12.763
2.600,-0.003,0.319,0.446,-171.237,-33.221,-10.992
2.600,-0.001,0.344,0.497,-172.580,-44.214,-9.511
2.610,0.026,0.307,0.536,-170.718,-52.382,-6.260
2.610,0.099,0.304,0.496,-171.130,-48.046,-3.802
2.620,0.144,0.283,0.523,-174.794,-38.366,-1.496
2.620,0.135,0.249,0.591,-178.137,-27.145,1.496
2.620,0.158,0.240,0.610,-182.779,-11.740,5.298
2.630,0.143,0.205,0.689,-183.802,1.466,8.794
2.630,0.151,0.170,0.785,-184.183,11.695,10.534
2.640,0.183,0.147,0.828,-185.053,23.649,12.122
2.640,0.174,0.130,0.851,-184.550,35.573,11.695
2.640,0.149,0.115,0.879,-183.206,42.183,10.519
2.650,0.121,0.110,0.902,-181.115,43.466,8.351
2.650,0.085,0.108,0.900,-178.473,40.168,6.687
2.660,0.075,0.109,0.880,-176.840,37.359,4.519
2.660,0.031,0.110,0.847,-176.198,34.656,3.344
2.660,-0.030,0.107,0.833,-173.802,26.611,2.031
2.670,-0.071,0.111,0.882,-172.458,12.489,1.802
2.670,-0.069,0.132,0.870,-172.015,2.137,2.702
2.680,-0.057,0.141,0.871,-169.573,-10.427,4.015
2.680,0.019,0.118,0.892,-167.649,-19.450,3.756
2.690,0.086,0.156,0.784,-171.084,-19.679,4.015
2.690,0.067,0.150,0.795,-173.634,-23.679,4.137
2.690,0.109,0.143,0.869,-174.275,-27.374,4.504
2.700,0.174,0.114,0.912,-173.221,-24.626,4.992
2.700,0.187,0.103,0.939,-173.389,-19.817,6.794
2.710,0.166,0.087,0.963,-173.099,-13.313,9.374
2.710,0.180,0.065,0.996,-172.122,-5.038,12.855
2.710,0.169,0.011,1.072,-167.008,2.702,13.160
2.720,0.239,0.054,1.000,-167.053,18.748,15.130
2.720,0.253,0.012,1.071,-160.931,23.725,13.863
2.730,0.221,-0.004,1.119,-151.893,22.489,10.015
2.730,0.228,0.037,1.079,-151.313,26.656,7.618
2.740,0.201,0.032,1.009,-150.351,32.137,5.649
2.740,0.124,0.011,1.021,-148.183,29.634,4.168
2.740,0.087,0.008,1.039,-145.878,23.023,2.595
2.750,0.074,0.013,1.031,-143.527,17.038,1.588
2.750,0.070,-0.005,1.019,-140.885,10.687,1.649
2.760,0.068,0.013,0.998,-139.389,2.870,2.061
2.760,0.041,-0.005,1.056,-136.931,-8.702,0.794
2.760,0.150,0.032,0.991,-138.168,-9.420,1.008
2.770,0.205,0.027,0.990,-139.695,-8.366,0.718
2.770,0.192,0.011,1.002,-139.664,-7.969,0.366
2.780,0.211,0.001,1.011,-140.321,-4.275,0.947
2.780,0.225,-0.008,0.996,-141.145,1.695,1.389
2.780,0.239,-0.041,1.028,-141.481,7.176,1.466
2.790,0.243,-0.042,1.040,-142.397,13.191,0.885
2.790,0.234,-0.075,1.056,-142.031,20.397,0.107
2.800,0.216,-0.101,1.076,-141.679,25.252,-0.977
2.800,0.164,-0.111,1.107,-140.748,26.885,-1.634
2.810,0.116,-0.139,1.146,-138.473,25.191,-2.046
2.810,0.085,-0.149,1.170,-136.214,21.908,-2.031
2.810,0.061,-0.159,1.195,-132.565,19.053,-1.527
2.820,0.042,-0.168,1.239,-127.634,15.985,-0.931
2.820,0.047,-0.172,1.263,-121.221,11.069,1.084
2.830,0.028,-0.166,1.262,-116.382,7.435,3.069
2.830,0.039,-0.167,1.262,-111.282,3.267,4.153
2.830,0.070,-0.161,1.279,-105.802,0.229,5.985
2.840,0.099,-0.159,1.271,-101.527,0.107,6.992
2.840,0.125,-0.154,1.259,-97.771,1.267,7.908
2.850,0.149,-0.146,1.257,-94.305,1.893,7.771
2.850,0.159,-0.146,1.243,-91.863,2.107,7.221
2.860,0.179,-0.146,1.222,-89.740,3.328,6.427
2.860,0.175,-0.131,1.207,-87.832,3.664,5.847
2.860,0.171,-0.124,1.208,-87.023,1.908,4.885
2.870,0.177,-0.134,1.193,-85.573,1.695,3.710
2.870,0.174,-0.117,1.181,-84.336,2.260,2.885
2.880,0.169,-0.116,1.160,-83.237,2.809,1.985
2.880,0.147,-0.109,1.146,-82.229,2.229,1.542
2.880,0.123,-0.109,1.120,-81.099,1.176,1.389
2.890,0.114,-0.089,1.098,-80.672,-0.458,1.328
2.890,0.121,-0.088,1.097,-79.939,-1.679,1.069
2.900,0.126,-0.093,1.110,-78.351,-2.366,0.885
2.900,0.133,-0.092,1.108,-76.855,-2.901,0.351
2.900,0.146,-0.095,1.093,-74.992,-4.214,0.000
2.910,0.151,-0.099,1.102,-73.221,-5.084,-0.489
2.910,0.156,-0.089,1.091,-71.496,-4.763,-0.412
2.920,0.168,-0.093,1.102,-69.817,-2.565,-0.382
2.920,0.175,-0.094,1.101,-67.954,-0.534,-0.260
2.920,0.184,-0.102,1.090,-66.275,0.916,-0.687
2.930,0.195,-0.100,1.101,-64.962,1.252,-1.496
2.930,0.200,-0.108,1.103,-63.176,1.939,-2.427
2.940,0.205,-0.111,1.104,-61.084,2.992,-3.053
2.940,0.199,-0.114,1.094,-59.527,2.931,-3.847
2.940,0.172,-0.126,1.092,-58.153,1.267,-4.534
2.950,0.163,-0.132,1.086,-56.687,-0.916,-5.099
2.950,0.161,-0.141,1.095,-54.504,-2.489,-5.878
2.960,0.156,-0.151,1.096,-52.122,-3.466,-6.504
2.960,0.141,-0.142,1.090,-50.336,-4.809,-6.962
2.970,0.123,-0.149,1.070,-48.916,-5.450,-6.870
2.970,0.117,-0.146,1.044,-48.061,-5.496,-6.504
2.970,0.113,-0.141,1.039,-47.481,-5.313,-6.473
2.980,0.111,-0.144,1.006,-47.023,-5.466,-6.702
2.980,0.113,-0.144,1.011,-46.855,-5.649,-6.260
2.990,0.108,-0.138,1.000,-46.916,-4.794,-5.710
2.990,0.117,-0.136,0.990,-46.916,-3.420,-5.023
2.990,0.116,-0.141,0.985,-47.008,-2.107,-4.687
3.000,0.121,-0.133,0.980,-47.389,-1.588,-3.924
3.000,0.127,-0.129,0.994,-47.069,-0.870,-3.817
3.010,0.143,-0.137,0.997,-45.908,-0.046,-3.359
3.010,0.149,-0.142,1.010,-44.565,1.084,-2.840
3.020,0.145,-0.150,1.017,-43.115,1.863,-2.656
3.020,0.156,-0.151,1.030,-41.298,2.733,-2.168
3.020,0.171,-0.159,1.031,-39.527,3.603,-2.489
3.030,0.176,-0.170,1.032,-37.328,4.397,-3.008
3.030,0.163,-0.169,1.032,-35.664,3.740,-3.328
3.040,0.151,-0.173,1.025,-34.000,2.550,-3.603
3.040,0.153,-0.174,1.009,-32.183,2.092,-3.786
3.040,0.152,-0.172,0.992,-31.221,2.107,-3.679
3.050,0.143,-0.177,0.984,-30.519,2.351,-3.527
3.050,0.141,-0.173,0.975,-29.878,1.985,-3.145
3.060,0.143,-0.167,0.966,-29.466,1.924,-3.008
3.060,0.153,-0.173,0.954,-28.702,2.779,-2.779
3.060,0.157,-0.162,0.961,-28.550,4.153,-2.595
3.070,0.169,-0.168,0.952,-27.878,5.588,-2.718
3.070,0.169,-0.168,0.946,-28.687,8.260,-3.267
3.080,0.374,-0.344,0.854,-6.641,35.023,0.702
3.080,0.110,-0.125,1.047,-23.298,25.847,0.107
3.080,0.159,-0.253,1.026,-16.763,35.710,0.580
3.090,0.102,-0.210,1.042,-17.389,33.847,1.511
3.090,0.118,-0.237,1.049,-14.183,34.519,2.443
3.100,0.109,-0.227,1.074,-9.771,32.427,3.679
3.100,0.093,-0.218,1.088,-9.817,32.229,4.031
3.100,0.112,-0.224,1.058,-10.122,32.519,3.008
3.110,0.105,-0.232,1.077,-4.611,35.237,6.168
3.110,0.088,-0.229,1.087,-4.153,34.565,6.092
3.120,0.030,-0.377,1.172,15.084,27.405,4.718
3.120,0.099,-0.170,1.088,-6.702,31.084,5.221
3.120,0.071,-0.318,1.094,2.489,26.901,2.076
3.130,0.075,-0.186,1.040,-2.840,23.847,6.183
3.130,0.082,-0.171,1.029,-4.992,24.412,2.611
3.140,0.062,-0.257,1.035,-0.947,21.756,2.824
3.140,0.076,-0.169,0.978,-3.191,22.076,4.229
3.140,0.078,-0.158,0.960,-6.718,23.374,2.290
3.150,0.194,-0.157,0.960,-15.786,38.412,3.847
3.150,0.047,-0.259,0.995,-12.748,33.557,3.359
3.160,-0.019,-0.274,1.032,-8.565,22.977,3.664
3.160,0.049,-0.203,1.015,-6.824,17.969,2.611
3.160,0.038,-0.229,0.979,-8.275,15.786,-0.046
3.170,0.013,-0.222,1.081,-3.435,9.328,-2.275
3.170,0.035,-0.219,1.093,-1.573,9.359,-0.794
3.180,0.053,-0.193,1.041,-2.595,10.092,0.046
3.180,0.029,-0.191,1.000,-7.802,8.092,0.626
3.180,0.033,-0.203,1.032,-5.115,4.382,0.107
3.190,0.067,-0.212,1.046,-1.481,8.504,1.053
3.190,0.009,-0.214,1.097,4.076,-0.366,-1.130
3.200,0.032,-0.088,1.043,-1.908,-0.702,-1.328
3.200,0.062,-0.201,1.050,2.046,-2.641,-1.298
3.200,0.100,-0.181,1.036,1.237,0.275,-1.725
3.210,0.072,-0.187,1.032,1.252,-1.038,-2.000
3.210,0.089,-0.156,0.979,-1.847,1.466,-1.389
3.220,0.063,-0.188,0.990,0.855,-2.153,-1.786
3.220,0.072,-0.200,1.004,7.481,-5.618,-2.321
3.220,0.086,-0.159,0.991,6.565,-6.519,-3.511
3.230,0.109,-0.159,0.967,6.595,-5.176,-3.985
3.230,0.109,-0.203,0.944,5.878,-4.580,-4.733
3.240,0.105,-0.177,0.935,8.122,-6.794,-5.130
3.240,0.107,-0.158,0.902,7.908,-5.267,-5.237
3.240,0.091,-0.140,0.892,5.298,-7.282,-5.985
3.250,0.091,-0.142,0.882,3.603,-5.160,-6.275
3.250,0.089,-0.146,0.867,2.504,-5.145,-6.046
3.260,0.094,-0.141,0.839,1.084,-3.954,-5.756
3.260,0.071,-0.156,0.849,1.389,-2.885,-5.969
3.260,0.053,-0.156,0.850,0.779,-2.916,-5.618
3.270,0.055,-0.155,0.848,-0.122,-3.344,-5.496
3.270,0.040,-0.152,0.852,-1.313,-4.351,-5.420
3.280,0.039,-0.153,0.849,-1.878,-4.840,-4.565
3.280,0.023,-0.159,0.846,-2.733,-7.008,-4.153
3.280,0.013,-0.167,0.853,-3.588,-8.565,-3.435
3.290,0.031,-0.193,0.874,-1.756,-9.649,-2.687
3.290,0.033,-0.170,0.865,-1.786,-10.687,-2.046
3.300,0.042,-0.176,0.872,-1.802,-10.641,-1.221
3.300,0.042,-0.189,0.880,-0.229,-10.779,-0.901
3.310,0.035,-0.174,0.893,-2.137,-9.664,-0.534
3.310,0.038,-0.201,0.893,0.641,-7.344,0.031
3.310,0.057,-0.172,0.870,-0.779,-7.176,0.275
3.320,0.063,-0.185,0.863,-0.473,-5.664,0.748
3.320,0.053,-0.178,0.853,0.229,-5.649,1.267
3.330,0.052,-0.180,0.859,-0.626,-7.023,0.931
3.330,0.075,-0.173,0.842,-1.527,-6.305,1.344
3.330,0.072,-0.171,0.848,-1.145,-5.939,1.466
3.340,0.066,-0.176,0.844,-1.389,-7.252,1.252
3.340,0.080,-0.169,0.855,-0.840,-7.740,1.176
3.350,0.084,-0.164,0.864,-1.267,-7.557,1.160
3.350,0.086,-0.171,0.860,-0.458,-6.641,1.496
3.350,0.100,-0.168,0.869,-0.687,-5.771,1.618
3.360,0.108,-0.172,0.864,-0.870,-4.351,1.176
3.360,0.119,-0.166,0.875,-0.748,-2.595,1.008
3.370,0.114,-0.173,0.875,-0.901,-1.115,0.656
3.370,0.109,-0.169,0.885,-0.977,-0.168,0.382
3.370,0.111,-0.165,0.878,-0.901,0.962,0.397
3.380,0.097,-0.170,0.883,-0.855,1.802,0.305
3.380,0.103,-0.167,0.870,-0.931,2.534,-0.031
3.380,0.094,-0.168,0.883,-0.275,2.351,-0.183
3.390,0.095,-0.168,0.875,-0.046,2.336,-0.168
3.390,0.085,-0.168,0.872,0.076,1.557,-0.580
3.400,0.085,-0.170,0.873,0.015,0.947,-0.565
3.400,0.073,-0.180,0.867,0.641,-0.137,-0.611
3.400,0.066,-0.168,0.864,-0.153,-1.634,-1.008
3.410,0.064,-0.168,0.862,-0.321,-3.511,-1.008
3.410,0.060,-0.172,0.867,-0.855,-4.855,-0.992
3.420,0.058,-0.160,0.876,-0.122,-4.809,-0.443
3.420,0.078,-0.153,0.866,-2.183,-3.603,0.107
3.430,0.075,-0.171,0.879,-1.023,-3.145,0.504
3.430,0.070,-0.166,0.881,-1.069,-2.931,0.519
3.430,0.080,-0.163,0.884,-1.725,-1.328,1.115
3.440,0.088,-0.170,0.879,-1.832,-1.115,1.481
3.440,0.101,-0.163,0.884,-2.458,-0.702,1.618
3.450,0.105,-0.174,0.910,0.229,0.885,1.695
3.450,0.098,-0.146,0.899,-3.389,2.092,1.527
3.450,0.105,-0.154,0.893,-4.290,3.298,1.878
3.460,0.109,-0.192,0.895,-0.840,3.221,1.603
3.460,0.118,-0.167,0.903,-1.511,3.008,1.450
3.460,0.116,-0.161,0.883,-2.168,4.412,1.038
3.470,0.103,-0.176,0.888,-1.008,3.328,0.534
3.470,0.092,-0.170,0.890,-1.298,2.153,-0.260
3.480,0.085,-0.186,0.902,-0.397,0.641,-0.366
3.480,0.079,-0.184,0.906,0.412,-0.672,-0.840
3.480,0.086,-0.176,0.909,0.687,-2.107,-0.779
3.490,0.079,-0.171,0.895,-0.183,-2.870,-0.779
3.490,0.071,-0.185,0.896,1.176,-5.176,-0.794
3.500,0.085,-0.175,0.903,0.931,-5.466,-0.931
3.500,0.098,-0.170,0.893,0.794,-4.061,-0.763
3.500,0.104,-0.177,0.889,0.809,-2.427,-0.672
3.510,0.095,-0.176,0.895,0.519,-1.588,-0.427
3.510,0.093,-0.167,0.887,0.153,-1.130,-0.229
3.520,0.079,-0.174,0.892,-0.015,-0.458,0.015
3.520,0.080,-0.171,0.887,-0.504,0.244,0.626
3.520,0.087,-0.166,0.889,-0.748,1.252,0.687
3.530,0.085,-0.165,0.894,-0.794,1.481,0.931
3.530,0.084,-0.166,0.884,-1.450,1.573,1.038
3.540,0.085,-0.169,0.891,-1.756,1.969,1.466
3.540,0.096,-0.170,0.880,-1.634,2.458,1.298
3.540,0.093,-0.163,0.891,-1.893,3.160,1.237
3.550,0.095,-0.158,0.875,-2.168,3.649,1.496
3.550,0.091,-0.167,0.885,-1.679,3.099,1.450
3.560,0.098,-0.168,0.892,-0.870,3.023,1.252
3.560,0.102,-0.160,0.891,-1.282,3.221,1.328
3.560,0.115,-0.168,0.879,-1.221,4.137,0.947
3.570,0.115,-0.158,0.902,-1.969,4.489,0.840
3.570,0.123,-0.174,0.909,-0.763,4.977,0.565
3.570,0.119,-0.165,0.901,-0.763,4.565,-0.061
3.580,0.122,-0.161,0.890,-0.672,4.931,-0.611
3.580,0.125,-0.164,0.879,-0.321,5.466,-0.901
3.590,0.120,-0.146,0.879,-1.802,5.634,-1.267
3.590,0.124,-0.164,0.881,-0.855,6.351,-1.511
3.590,0.113,-0.156,0.874,-2.214,6.046,-1.832
3.600,0.118,-0.170,0.878,0.031,7.191,-1.847
3.600,0.099,-0.153,0.873,-1.221,6.870,-2.137
3.610,0.102,-0.155,0.864,-1.695,6.061,-2.473
3.610,0.094,-0.165,0.874,-0.489,4.351,-2.916
3.610,0.090,-0.156,0.877,-1.313,2.977,-3.099
3.620,0.086,-0.167,0.867,-0.733,3.206,-3.084
3.620,0.078,-0.166,0.866,-0.992,1.985,-2.992
3.630,0.085,-0.154,0.872,-0.641,1.786,-2.702
3.630,0.090,-0.165,0.868,-1.191,1.924,-2.962
3.630,0.095,-0.160,0.862,-1.573,2.153,-2.458
3.640,0.084,-0.166,0.871,-1.634,3.359,-1.954
3.640,0.094,-0.169,0.879,-1.618,3.511,-1.863
3.650,0.098,-0.177,0.882,-1.359,4.305,-1.710
3.650,0.093,-0.169,0.873,-2.198,5.618,-1.298
3.650,0.096,-0.171,0.878,-1.435,5.756,-1.313
3.660,0.092,-0.174,0.886,-1.206,6.046,-1.450
3.660,0.098,-0.174,0.894,-0.504,6.916,-1.405
3.670,0.100,-0.167,0.888,-1.557,7.145,-1.603
3.670,0.091,-0.170,0.875,-0.733,7.053,-1.664
3.670,0.085,-0.170,0.887,-0.992,6.443,-1.740
3.680,0.086,-0.175,0.889,-0.824,6.794,-1.664
3.680,0.082,-0.165,0.897,-0.779,7.878,-1.542
3.690,0.087,-0.186,0.894,0.229,8.504,-1.618
3.690,0.074,-0.172,0.878,0.168,8.107,-1.802
3.690,0.071,-0.180,0.886,0.290,7.038,-2.046
3.700,0.061,-0.177,0.892,0.687,5.679,-1.939
3.700,0.060,-0.176,0.902,0.626,4.351,-2.031
3.710,0.065,-0.176,0.902,0.962,3.389,-2.000
3.710,0.077,-0.177,0.888,0.672,3.130,-2.137
3.710,0.082,-0.182,0.902,2.092,3.817,-1.786
3.720,0.079,-0.167,0.887,1.511,4.168,-1.695
3.720,0.066,-0.169,0.896,1.817,3.618,-1.817
3.730,0.068,-0.175,0.880,1.725,3.817,-1.725
3.730,0.076,-0.172,0.888,0.656,3.481,-1.893
3.730,0.075,-0.174,0.865,1.008,3.985,-1.710
3.740,0.077,-0.161,0.882,0.427,4.550,-1.786
3.740,0.066,-0.170,0.881,-0.046,3.405,-2.000
3.750,0.085,-0.168,0.889,0.382,3.786,-1.786
3.750,0.086,-0.163,0.870,0.489,5.328,-1.695
3.750,0.067,-0.164,0.879,0.290,5.191,-1.649
3.760,0.073,-0.154,0.876,-1.084,5.267,-1.618
3.760,0.071,-0.171,0.872,0.015,4.550,-2.092
3.760,0.097,-0.151,0.865,-0.626,6.931,-1.908
3.770,0.080,-0.160,0.869,0.244,6.443,-2.214
3.770,0.050,-0.159,0.886,-0.519,5.008,-2.840
3.780,0.061,-0.159,0.883,-0.718,5.252,-2.504
3.780,0.061,-0.153,0.885,-0.595,4.977,-2.412
3.780,0.052,-0.153,0.885,-1.115,3.420,-2.534
3.790,0.043,-0.154,0.900,-1.435,3.038,-2.351
3.790,0.047,-0.163,0.885,-1.527,1.771,-2.153
3.800,0.058,-0.159,0.876,-1.618,2.580,-1.985
3.800,0.060,-0.159,0.892,-1.328,2.321,-1.878
3.800,0.056,-0.167,0.891,-1.450,1.695,-1.817
3.810,0.054,-0.158,0.890,-2.198,1.557,-1.786
3.810,0.059,-0.158,0.899,-2.275,2.641,-1.374
3.820,0.050,-0.169,0.902,-1.344,3.191,-1.221
3.820,0.043,-0.164,0.920,-0.931,3.267,-1.023
3.820,0.048,-0.163,0.926,-1.145,4.000,-0.977
3.830,0.057,-0.167,0.912,-0.870,4.137,-0.519
3.830,0.053,-0.165,0.900,-1.160,3.496,-0.840
3.840,0.057,-0.167,0.907,-1.099,3.679,-0.412
3.840,0.050,-0.158,0.912,-0.931,4.351,-0.595
3.840,0.037,-0.161,0.913,-1.405,3.344,-0.672
3.850,0.050,-0.171,0.904,-0.992,3.374,-0.198
3.850,0.056,-0.166,0.908,-0.672,3.145,0.244
3.860,0.049,-0.164,0.897,-0.687,3.176,0.336
3.860,0.040,-0.160,0.901,-1.053,2.229,-0.046
3.860,0.044,-0.164,0.904,-0.885,1.328,-0.198
3.870,0.040,-0.169,0.899,-0.580,0.122,-0.214
3.870,0.040,-0.165,0.910,-0.458,-0.153,-0.092
3.880,0.035,-0.159,0.907,-1.023,-0.733,-0.458
3.880,0.039,-0.169,0.917,-0.229,-0.748,-0.168
3.880,0.046,-0.157,0.894,-0.305,-0.992,0.061
3.890,0.044,-0.162,0.889,-0.168,-1.115,0.107
3.890,0.038,-0.167,0.906,0.443,-1.603,0.275
3.900,0.035,-0.173,0.888,-0.931,-2.763,-0.015
3.900,0.035,-0.167,0.875,0.275,-3.191,0.382
3.900,0.033,-0.162,0.896,0.092,-3.527,0.718
3.910,0.047,-0.166,0.866,-0.046,-1.649,1.420
3.910,0.043,-0.160,0.890,0.580,0.229,2.260
3.920,0.033,-0.148,0.869,-0.092,0.260,1.924
3.920,0.029,-0.162,0.877,0.885,-1.267,2.107
3.920,0.038,-0.168,0.895,-0.779,-2.214,1.573
3.930,0.043,-0.179,0.893,-0.137,-1.405,1.710
3.930,0.045,-0.162,0.898,0.855,-1.252,1.832
3.940,0.045,-0.173,0.901,1.237,-2.229,1.985
3.940,0.050,-0.165,0.885,1.267,-3.237,1.985
3.940,0.070,-0.159,0.886,1.481,-3.176,1.893
3.950,0.074,-0.157,0.876,0.870,-2.641,1.847
3.950,0.068,-0.154,0.889,1.527,-2.763,1.832
3.960,0.074,-0.165,0.889,0.809,-2.748,1.420
3.960,0.076,-0.162,0.889,1.954,-2.809,1.267
3.960,0.075,-0.156,0.891,1.649,-2.641,1.099
3.970,0.100,-0.158,0.889,1.176,-0.550,1.115
3.970,0.080,-0.154,0.874,1.389,0.809,0.870
3.980,0.082,-0.154,0.875,1.893,1.511,1.237
3.980,0.066,-0.155,0.887,1.466,0.122,1.099
3.980,0.066,-0.157,0.869,1.405,0.046,1.053
3.990,0.072,-0.154,0.869,0.687,-0.198,1.145
3.990,0.068,-0.150,0.861,1.115,-0.473,1.038
3.990,0.074,-0.155,0.858,1.023,-1.191,0.641
4.000,0.069,-0.149,0.861,0.275,-2.519,0.458
4.000,0.074,-0.151,0.868,-0.076,-3.542,0.443
4.010,0.084,-0.151,0.865,-0.611,-3.374,0.550
4.010,0.078,-0.153,0.870,-1.023,-2.702,0.748
4.010,0.082,-0.150,0.883,-1.115,-2.427,0.931
4.020,0.080,-0.150,0.874,-0.397,-2.763,0.840
4.020,0.077,-0.156,0.878,-0.611,-3.084,0.824
4.030,0.077,-0.151,0.875,-0.779,-3.206,0.748
4.030,0.087,-0.149,0.892,-0.870,-3.405,0.779
4.030,0.098,-0.146,0.886,-1.023,-2.992,0.855
4.040,0.086,-0.158,0.886,-0.779,-2.748,0.931
4.040,0.095,-0.156,0.884,-0.260,-2.397,1.023
