Time,acce_x,acce_y,acce_z,gyro_x,gyro_y,gyro_z
0.000,0.101,-0.082,0.849,0.870,9.542,-1.084
0.000,0.018,-0.072,0.830,-2.336,8.076,-0.305
0.010,-0.025,-0.086,0.867,-1.863,0.534,-0.702
0.010,0.004,-0.094,0.901,-0.656,-3.740,-0.901
0.010,0.053,-0.097,0.901,0.061,-0.183,-0.992
0.020,0.063,-0.090,0.880,0.229,5.832,-0.809
0.020,0.045,-0.094,0.874,0.473,7.664,-0.519
0.020,-0.003,-0.091,0.878,0.412,4.534,-0.702
0.030,-0.002,-0.086,0.877,0.046,1.481,-0.336
0.030,0.016,-0.085,0.868,-0.412,1.053,-0.427
0.030,0.030,-0.079,0.860,-0.794,2.748,-0.107
0.040,0.024,-0.086,0.866,-0.855,4.382,0.061
0.040,0.025,-0.079,0.871,-1.023,4.824,0.412
0.040,0.014,-0.076,0.858,-1.420,4.336,0.275
0.050,0.014,-0.085,0.853,-2.244,2.763,0.366
0.050,0.023,-0.084,0.862,-2.534,2.137,0.137
0.050,0.021,-0.090,0.869,-2.198,2.534,0.137
0.060,0.016,-0.078,0.887,-2.275,2.198,0.443
0.060,0.016,-0.080,0.884,-2.473,1.237,0.550
0.070,0.016,-0.090,0.893,-2.519,0.550,0.489
0.070,0.024,-0.082,0.887,-2.275,-0.351,0.656
0.070,0.021,-0.088,0.895,-2.198,-1.084,0.534
0.080,0.024,-0.085,0.885,-2.031,-1.420,0.504
0.080,0.025,-0.081,0.891,-1.893,-1.344,0.718
0.090,0.032,-0.086,0.895,-1.634,-1.069,0.687
0.090,0.029,-0.087,0.910,-1.328,-1.237,0.733
0.090,0.031,-0.089,0.894,-1.282,-1.145,0.580
0.100,0.040,-0.092,0.902,-1.450,-0.611,0.672
0.100,0.037,-0.084,0.891,-1.328,-0.336,0.626
0.110,0.042,-0.088,0.894,-1.618,0.061,0.687
0.110,0.042,-0.084,0.894,-1.603,0.000,0.473
0.110,0.043,-0.085,0.885,-1.985,0.198,0.183
0.120,0.042,-0.084,0.901,-1.786,0.641,0.427
0.120,0.039,-0.092,0.897,-1.649,1.405,0.351
0.130,0.039,-0.090,0.896,-1.466,1.603,0.382
0.130,0.036,-0.089,0.899,-1.511,1.420,0.427
0.130,0.035,-0.086,0.898,-1.221,1.603,0.275
0.140,0.037,-0.093,0.901,-1.389,1.405,0.290
0.140,0.038,-0.093,0.901,-1.237,1.084,0.000
0.150,0.042,-0.091,0.894,-1.420,1.023,-0.107
0.150,0.034,-0.092,0.887,-1.649,1.481,-0.031
0.150,0.031,-0.090,0.890,-1.985,1.863,0.092
0.160,0.026,-0.090,0.894,-2.076,2.443,0.504
0.160,0.022,-0.098,0.908,-1.863,2.473,0.687
0.170,0.026,-0.098,0.897,-1.817,2.092,0.962
0.170,0.022,-0.104,0.913,-1.908,1.817,1.359
0.170,0.023,-0.098,0.903,-1.786,1.603,1.389
0.180,0.026,-0.104,0.915,-1.557,1.634,1.756
0.180,0.037,-0.105,0.920,-1.527,1.664,1.710
0.180,0.036,-0.102,0.914,-1.359,1.847,1.649
0.190,0.046,-0.112,0.919,-0.779,1.985,1.649
0.190,0.049,-0.108,0.915,-0.305,1.588,1.359
0.200,0.051,-0.102,0.927,0.046,1.084,1.191
0.200,0.055,-0.101,0.918,0.443,0.977,1.023
0.200,0.057,-0.100,0.912,0.885,1.160,0.824
0.210,0.049,-0.096,0.917,1.588,0.962,0.718
0.210,0.054,-0.089,0.893,1.603,0.489,0.504
0.220,0.051,-0.088,0.892,1.679,0.122,0.489
0.220,0.058,-0.090,0.899,1.802,0.321,0.427
0.220,0.055,-0.089,0.891,1.710,0.947,0.260
0.230,0.052,-0.088,0.889,1.588,0.779,0.000
0.230,0.052,-0.089,0.875,1.115,0.519,0.015
0.230,0.044,-0.080,0.880,0.901,0.015,0.031
0.240,0.050,-0.084,0.867,0.198,-0.519,-0.137
0.240,0.052,-0.076,0.869,-0.168,-0.443,-0.092
0.250,0.049,-0.078,0.871,-0.901,-0.779,-0.183
0.250,0.047,-0.082,0.873,-1.374,-0.885,0.061
0.250,0.039,-0.082,0.861,-2.061,-1.221,-0.107
0.260,0.045,-0.079,0.872,-2.763,-1.267,0.122
0.260,0.035,-0.082,0.872,-3.237,-0.809,0.046
0.270,0.034,-0.087,0.884,-3.435,-0.962,0.229
0.270,0.038,-0.087,0.875,-3.634,-1.344,0.458
0.270,0.023,-0.093,0.888,-3.771,-2.641,0.366
0.280,0.030,-0.082,0.888,-3.695,-3.313,0.412
0.280,0.033,-0.088,0.897,-3.832,-3.282,0.626
0.290,0.029,-0.085,0.900,-3.389,-3.496,0.824
0.290,0.034,-0.090,0.893,-3.099,-3.618,1.237
0.290,0.040,-0.090,0.908,-3.130,-4.321,1.160
0.300,0.042,-0.092,0.909,-2.809,-3.817,1.267
0.300,0.057,-0.084,0.906,-2.824,-2.977,1.206
0.310,0.056,-0.080,0.903,-2.794,-2.840,0.779
0.310,0.065,-0.082,0.889,-2.855,-3.206,0.580
0.310,0.067,-0.086,0.895,-4.168,-0.580,-0.137
0.320,0.119,-0.099,0.790,-8.107,10.260,-2.229
0.320,0.038,-0.081,0.893,-6.412,7.084,-2.092
0.330,0.049,-0.066,0.951,-6.092,-3.679,-0.305
0.330,0.073,-0.093,0.960,-4.214,-3.420,-0.992
0.330,0.072,-0.096,0.900,-3.435,4.336,-0.916
0.340,0.072,-0.087,0.844,-5.634,10.901,-0.763
0.340,0.004,-0.086,0.895,-4.519,0.458,0.214
0.350,-0.011,-0.104,0.959,-1.878,-7.405,-0.458
0.350,0.050,-0.093,0.901,-1.496,-3.618,-0.458
0.350,0.091,-0.080,0.872,-2.870,3.802,-0.305
0.360,0.042,-0.093,0.895,-2.397,1.695,-0.840
0.360,0.000,-0.100,0.914,-1.237,-4.321,-0.916
0.370,0.025,-0.091,0.904,-1.389,-5.893,-0.809
0.370,0.054,-0.093,0.902,-1.511,-2.992,-0.702
0.380,0.037,-0.085,0.902,-2.000,-2.611,-0.656
0.380,0.025,-0.096,0.910,-1.008,-3.099,-0.718
0.380,0.036,-0.094,0.900,-0.824,-4.580,-0.733
0.390,0.043,-0.091,0.889,-0.855,-3.557,-0.901
0.390,0.041,-0.087,0.870,-1.023,-2.870,-0.931
0.400,0.037,-0.088,0.872,-1.130,-2.519,-0.718
0.400,0.038,-0.084,0.879,-1.756,-2.107,-0.611
0.400,0.044,-0.086,0.870,-1.893,-1.649,-0.748
0.410,0.044,-0.080,0.875,-2.336,-1.023,-0.947
0.410,0.048,-0.077,0.881,-2.580,-0.656,-0.718
0.420,0.038,-0.086,0.867,-3.099,-0.321,-0.595
0.420,0.038,-0.081,0.868,-3.374,-0.122,-0.458
0.420,0.036,-0.079,0.873,-3.710,-0.565,-0.382
0.430,0.036,-0.083,0.879,-3.664,-1.008,-0.580
0.430,0.045,-0.091,0.888,-3.435,-1.053,-0.565
0.440,0.044,-0.092,0.887,-3.542,-0.962,-1.038
0.440,0.035,-0.102,0.893,-3.191,-1.542,-1.282
0.440,0.044,-0.094,0.907,-2.626,-1.939,-1.420
0.450,0.049,-0.098,0.917,-2.000,-1.084,-1.557
0.450,0.047,-0.100,0.915,-1.038,-0.137,-1.527
0.460,0.045,-0.094,0.896,-0.626,0.489,-1.420
0.460,0.046,-0.103,0.903,-0.244,0.611,-1.359
0.460,0.050,-0.100,0.894,0.061,0.824,-1.496
0.470,0.043,-0.098,0.890,-0.015,0.855,-1.740
0.470,0.037,-0.098,0.890,0.183,1.038,-1.618
0.480,0.034,-0.100,0.884,0.229,1.267,-1.756
0.480,0.031,-0.093,0.870,-0.336,1.099,-1.710
0.480,0.029,-0.097,0.882,-0.870,0.244,-1.603
0.490,0.028,-0.095,0.885,-1.038,-0.137,-1.527
0.490,0.031,-0.093,0.868,-1.405,-0.198,-1.527
0.500,0.024,-0.095,0.877,-1.542,-0.412,-1.328
0.500,0.036,-0.090,0.885,-2.107,-0.244,-1.176
0.500,0.037,-0.090,0.878,-2.214,0.000,-1.191
0.510,0.044,-0.093,0.880,-2.397,0.290,-1.206
0.510,0.046,-0.093,0.882,-2.534,0.595,-1.466
0.520,0.051,-0.090,0.885,-2.626,1.084,-1.863
0.520,0.053,-0.090,0.893,-2.336,1.435,-2.076
0.520,0.048,-0.090,0.894,-2.305,1.771,-2.336
0.530,0.044,-0.089,0.885,-2.214,1.985,-2.244
0.530,0.031,-0.093,0.893,-2.046,1.771,-2.397
0.540,0.036,-0.094,0.898,-1.939,1.695,-2.382
0.540,0.033,-0.098,0.895,-1.924,1.603,-2.351
0.540,0.023,-0.090,0.894,-1.450,1.542,-2.290
0.550,0.021,-0.098,0.889,-1.527,1.481,-1.786
0.550,0.018,-0.090,0.894,-1.542,1.359,-1.511
0.560,0.019,-0.094,0.888,-1.832,1.282,-1.267
0.560,0.016,-0.098,0.885,-1.802,0.733,-0.977
0.560,0.022,-0.097,0.893,-1.634,0.885,-0.672
0.570,0.025,-0.090,0.889,-1.496,1.115,-0.794
0.570,0.021,-0.096,0.883,-1.618,0.702,-0.534
0.580,0.022,-0.096,0.886,-1.924,-0.519,-0.733
0.580,0.039,-0.095,0.896,-1.924,-0.718,-0.809
0.580,0.046,-0.095,0.903,-1.649,-0.733,-1.023
0.590,0.048,-0.089,0.896,-1.496,0.000,-1.023
0.590,0.044,-0.097,0.901,-1.939,-0.473,-1.298
0.600,0.052,-0.087,0.891,-2.122,-0.046,-1.481
0.600,0.050,-0.092,0.889,-2.153,0.366,-1.511
0.610,0.043,-0.086,0.900,-1.908,0.977,-1.603
0.610,0.046,-0.093,0.898,-1.634,1.511,-1.603
0.610,0.035,-0.093,0.900,-1.176,1.969,-1.786
0.620,0.031,-0.089,0.899,-1.282,2.000,-1.710
0.620,0.027,-0.094,0.892,-1.191,1.695,-1.573
0.620,0.019,-0.092,0.904,-1.252,1.557,-1.115
0.630,0.017,-0.094,0.899,-1.115,2.046,-0.901
0.630,0.018,-0.092,0.904,-1.221,1.725,-0.458
0.640,0.016,-0.090,0.903,-1.405,1.069,-0.443
0.640,0.027,-0.097,0.901,-1.221,0.824,-0.321
0.640,0.030,-0.097,0.911,-1.328,0.672,-0.122
0.650,0.035,-0.096,0.901,-1.313,0.870,0.000
0.650,0.036,-0.100,0.909,-1.328,0.809,-0.015
0.660,0.037,-0.092,0.910,-1.176,0.840,-0.244
0.660,0.040,-0.095,0.910,-0.748,0.198,-0.397
0.660,0.041,-0.092,0.915,-0.519,0.000,-0.595
0.670,0.042,-0.092,0.914,-0.305,-0.687,-0.718
0.670,0.048,-0.092,0.907,-0.183,-0.443,-0.794
0.680,0.052,-0.089,0.904,0.290,-0.107,-1.206
0.680,0.048,-0.089,0.895,0.519,0.198,-1.313
0.680,0.040,-0.088,0.895,0.504,0.214,-1.282
0.690,0.040,-0.076,0.888,-0.015,0.580,-1.038
0.690,0.044,-0.088,0.891,-0.137,1.252,-0.977
0.700,0.040,-0.075,0.897,-0.550,1.832,-1.206
0.700,0.049,-0.079,0.893,-0.794,2.321,-1.053
0.700,0.053,-0.080,0.890,-1.069,2.794,-1.160
0.710,0.050,-0.082,0.893,-1.450,2.916,-1.191
0.710,0.055,-0.085,0.910,-1.435,2.641,-1.420
0.720,0.057,-0.086,0.912,-1.267,3.160,-1.939
0.720,0.051,-0.089,0.918,-1.069,3.221,-2.015
0.720,0.052,-0.090,0.909,-0.580,3.359,-2.305
0.730,0.046,-0.085,0.897,-0.366,3.099,-2.519
0.730,0.033,-0.087,0.902,-0.305,2.183,-2.595
0.740,0.031,-0.082,0.899,-0.107,2.153,-2.382
0.740,0.032,-0.086,0.892,-0.168,2.046,-2.153
0.740,0.031,-0.090,0.897,-0.290,2.397,-2.092
0.750,0.025,-0.088,0.882,-0.305,2.321,-2.046
0.750,0.021,-0.084,0.886,-0.473,2.153,-2.046
0.760,0.024,-0.088,0.893,-0.336,1.664,-1.908
0.760,0.029,-0.091,0.895,-0.458,1.649,-1.969
0.760,0.028,-0.095,0.889,-0.412,1.786,-2.092
0.770,0.034,-0.088,0.897,-0.412,2.092,-1.863
0.770,0.026,-0.084,0.892,-0.397,2.366,-1.740
0.780,0.021,-0.083,0.893,-0.198,2.824,-1.924
0.780,0.017,-0.086,0.894,-0.550,3.466,-1.481
0.780,0.016,-0.085,0.882,-0.718,3.511,-1.511
0.790,0.015,-0.090,0.898,-0.855,2.718,-1.420
0.790,0.014,-0.086,0.884,-0.962,2.290,-1.481
0.800,0.020,-0.087,0.893,-1.008,2.290,-1.237
0.800,0.013,-0.092,0.892,-0.748,1.924,-1.130
0.800,0.017,-0.096,0.885,-0.855,0.611,-0.885
0.810,0.013,-0.091,0.898,-0.626,-0.718,-1.023
0.810,0.022,-0.090,0.904,-0.427,-1.008,-0.885
0.820,0.011,-0.096,0.898,-0.321,-0.519,-0.641
0.820,0.025,-0.089,0.907,-0.198,-0.168,-0.595
0.820,0.025,-0.089,0.898,-0.015,-0.137,-0.305
0.830,0.024,-0.089,0.894,0.000,0.260,-0.626
0.830,0.032,-0.086,0.901,-0.046,0.412,-0.656
0.840,0.024,-0.085,0.886,0.260,0.351,-0.809
0.840,0.020,-0.083,0.890,0.321,0.565,-0.840
0.840,0.022,-0.086,0.885,0.519,0.290,-0.763
0.850,0.019,-0.081,0.873,0.290,-0.351,-0.824
0.850,0.027,-0.084,0.885,-0.107,-0.641,-0.779
0.860,0.027,-0.079,0.885,-0.198,-0.473,-0.870
0.860,0.034,-0.079,0.890,-0.427,0.031,-0.840
0.860,0.030,-0.082,0.882,-0.550,0.672,-0.870
0.870,0.033,-0.078,0.883,-0.809,1.130,-0.962
0.870,0.029,-0.078,0.875,-0.748,1.221,-0.947
0.880,0.022,-0.084,0.880,-0.931,1.115,-1.176
0.880,0.025,-0.086,0.890,-0.992,1.298,-0.748
0.880,0.026,-0.079,0.885,-0.977,1.542,-0.916
0.890,0.020,-0.084,0.896,-0.992,1.511,-0.809
0.890,0.013,-0.085,0.877,-0.824,0.992,-0.702
0.900,0.007,-0.086,0.874,-1.053,-0.153,-0.611
0.900,0.017,-0.087,0.884,-1.206,-1.176,-0.718
0.900,0.018,-0.090,0.895,-1.053,-1.374,-0.687
0.910,0.027,-0.093,0.886,-1.008,-1.053,-0.855
0.910,0.018,-0.101,0.895,-0.611,-0.611,-0.626
0.920,0.017,-0.094,0.885,-0.656,-0.595,-0.534
0.920,0.025,-0.088,0.882,-0.550,-0.565,-0.382
0.930,0.025,-0.084,0.875,-0.137,-0.015,-0.305
0.930,0.033,-0.091,0.879,-0.122,0.580,-0.336
0.930,0.033,-0.091,0.870,0.046,0.870,-0.595
0.940,0.024,-0.088,0.874,-0.473,0.656,-0.412
0.940,0.018,-0.085,0.869,-0.763,-0.046,-0.382
0.950,0.029,-0.080,0.866,-1.099,-0.015,-0.260
0.950,0.024,-0.083,0.873,-1.466,0.473,0.092
0.950,0.025,-0.084,0.881,-1.771,1.389,0.290
0.960,0.031,-0.086,0.873,-1.985,1.893,0.382
0.960,0.026,-0.080,0.884,-1.664,1.771,0.473
0.960,0.025,-0.085,0.881,-1.725,1.756,0.275
0.970,0.024,-0.085,0.877,-1.740,1.298,0.427
0.970,0.027,-0.078,0.889,-1.603,0.748,0.427
0.980,0.031,-0.085,0.888,-1.649,0.489,0.489
0.980,0.040,-0.080,0.877,-1.756,0.855,0.687
0.980,0.040,-0.080,0.878,-1.878,0.641,0.611
0.990,0.040,-0.078,0.872,-2.458,0.718,0.519
0.990,0.039,-0.080,0.886,-2.489,0.153,0.351
1.000,0.042,-0.081,0.876,-2.641,-0.672,0.153
1.000,0.043,-0.082,0.886,-3.115,-1.038,-0.031
1.000,0.052,-0.084,0.883,-3.145,-1.389,-0.504
1.010,0.053,-0.083,0.888,-2.947,-1.282,-0.611
1.010,0.050,-0.080,0.875,-3.145,-1.282,-0.519
1.020,0.045,-0.080,0.883,-3.191,-1.298,-0.687
1.020,0.047,-0.080,0.889,-3.160,-1.130,-0.824
1.020,0.053,-0.090,0.894,-3.038,-0.260,-0.809
1.030,0.042,-0.091,0.905,-2.901,0.305,-0.733
1.030,0.041,-0.089,0.907,-2.656,0.656,-0.656
1.040,0.036,-0.088,0.909,-2.565,0.702,-0.901
1.040,0.037,-0.089,0.903,-2.519,0.489,-0.931
1.040,0.038,-0.093,0.903,-2.382,0.504,-0.916
1.050,0.034,-0.091,0.901,-2.061,0.992,-0.748
1.050,0.040,-0.089,0.901,-2.031,0.672,-1.084
1.060,0.034,-0.088,0.904,-2.168,0.443,-1.023
1.060,0.042,-0.087,0.900,-2.107,0.229,-1.008
1.060,0.038,-0.093,0.908,-1.908,0.748,-1.069
1.070,0.041,-0.090,0.904,-1.725,1.496,-1.023
1.070,0.037,-0.094,0.914,-1.802,1.695,-1.160
1.080,0.043,-0.091,0.904,-1.527,1.344,-1.420
1.080,0.036,-0.090,0.908,-1.527,1.389,-1.527
1.080,0.040,-0.086,0.905,-1.237,1.557,-1.618
1.090,0.034,-0.088,0.894,-1.145,2.000,-1.634
1.090,0.028,-0.085,0.896,-0.962,2.015,-1.588
1.100,0.020,-0.081,0.884,-1.130,1.344,-1.481
1.100,0.013,-0.080,0.879,-1.084,0.336,-1.496
1.100,0.014,-0.086,0.880,-1.069,-0.779,-1.847
1.110,0.013,-0.082,0.887,-1.664,-1.695,-1.954
1.110,0.018,-0.087,0.895,-1.496,-2.275,-1.649
1.120,0.009,-0.087,0.899,-1.374,-2.122,-1.221
1.120,0.014,-0.088,0.893,-1.573,-1.878,-0.901
1.130,0.011,-0.090,0.903,-1.756,-1.389,-0.534
1.130,0.010,-0.084,0.893,-2.000,-0.992,-0.305
1.130,0.016,-0.087,0.906,-2.015,-0.992,-0.183
1.140,0.021,-0.095,0.914,-2.229,-0.611,-0.061
1.140,0.032,-0.091,0.901,-1.756,-0.702,-0.305
1.150,0.024,-0.087,0.915,-1.695,-0.809,-0.061
1.150,0.026,-0.094,0.912,-1.267,-1.267,-0.076
1.150,0.023,-0.090,0.917,-0.931,-0.611,0.031
1.160,0.032,-0.093,0.913,-0.809,-0.275,0.000
1.160,0.033,-0.089,0.904,-0.550,0.443,0.092
1.170,0.036,-0.089,0.910,-0.183,0.580,-0.076
1.170,0.037,-0.095,0.905,-0.076,0.977,-0.260
1.170,0.038,-0.091,0.888,-0.122,1.740,-0.229
1.180,0.031,-0.085,0.896,-0.183,1.878,-0.168
1.180,0.025,-0.081,0.885,-0.351,1.969,-0.061
1.190,0.028,-0.079,0.885,-0.718,1.649,-0.092
1.190,0.034,-0.081,0.888,-0.855,1.176,0.122
1.190,0.031,-0.080,0.895,-0.809,1.038,0.046
1.200,0.025,-0.083,0.892,-0.458,0.794,-0.153
1.200,0.028,-0.087,0.891,-0.672,-0.137,0.015
1.210,0.036,-0.077,0.897,-1.053,-1.557,-0.489
1.210,0.051,-0.084,0.897,-0.885,-1.405,-0.824
1.210,0.043,-0.088,0.903,-0.443,-0.565,-0.901
1.220,0.036,-0.087,0.909,-0.183,-0.153,-0.748
1.220,0.030,-0.088,0.899,-0.076,-0.137,-0.702
1.230,0.027,-0.083,0.893,-0.031,-0.534,-0.489
1.230,0.038,-0.084,0.886,-0.214,-0.870,-0.550
1.230,0.033,-0.081,0.894,-0.275,-0.733,-0.534
1.240,0.039,-0.094,0.905,-0.458,-0.244,-0.656
1.240,0.036,-0.082,0.890,0.076,0.305,-0.931
1.250,0.025,-0.083,0.894,0.061,0.183,-0.840
1.250,0.022,-0.084,0.903,0.458,-0.153,-0.779
1.250,0.029,-0.085,0.901,1.008,0.092,-0.779
1.260,0.019,-0.087,0.900,1.740,-0.183,-0.443
1.260,0.011,-0.086,0.895,1.618,-1.053,-0.244
1.270,0.016,-0.081,0.880,1.053,-2.137,-0.336
1.270,0.022,-0.077,0.890,0.992,-2.748,-0.321
1.270,0.022,-0.079,0.898,0.427,-2.656,-0.198
1.280,0.027,-0.079,0.892,0.260,-1.954,0.153
1.280,0.025,-0.083,0.900,-0.198,-1.267,0.137
1.290,0.036,-0.072,0.890,-0.641,-0.977,0.382
1.290,0.033,-0.077,0.900,-0.687,-0.321,0.565
1.290,0.036,-0.079,0.905,-0.534,0.305,0.214
1.300,0.040,-0.080,0.908,-0.321,0.916,0.336
1.300,0.035,-0.082,0.916,-0.061,1.328,0.321
1.310,0.028,-0.079,0.908,0.061,1.435,0.321
1.310,0.031,-0.083,0.912,0.076,2.092,0.443
1.310,0.026,-0.081,0.912,0.489,2.305,0.550
1.320,0.024,-0.085,0.918,0.473,2.260,0.626
1.320,0.026,-0.082,0.921,0.656,1.893,0.336
1.320,0.031,-0.084,0.909,1.023,1.466,0.305
1.330,0.029,-0.084,0.923,1.374,0.641,0.046
1.330,0.025,-0.092,0.916,1.756,-0.015,-0.336
1.340,0.034,-0.085,0.910,2.458,-1.695,-0.489
1.340,0.029,-0.083,0.912,2.565,-4.046,-1.145
1.340,0.033,-0.080,0.909,2.809,-4.336,-1.145
1.350,0.036,-0.089,0.912,3.176,-3.374,-1.069
1.350,0.032,-0.080,0.911,2.901,-2.198,-0.733
1.360,0.030,-0.076,0.917,3.206,-1.710,-0.397
1.360,0.026,-0.083,0.918,2.992,-1.435,-0.275
1.360,0.031,-0.092,0.925,3.252,-1.206,-0.305
1.370,0.032,-0.085,0.927,3.573,-0.473,-0.290
1.370,0.027,-0.085,0.926,3.481,-0.443,-0.443
1.380,0.030,-0.087,0.940,3.786,-1.008,-0.504
1.380,0.029,-0.094,0.944,3.924,-1.557,-0.611
1.380,0.026,-0.091,0.948,4.656,-2.229,-0.824
1.390,0.032,-0.098,0.945,4.916,-2.412,-0.855
1.390,0.033,-0.101,0.957,5.420,-2.229,-0.962
1.400,0.018,-0.099,0.951,6.031,-2.351,-0.977
1.400,0.019,-0.098,0.960,6.626,-2.718,-1.053
1.400,0.010,-0.102,0.952,7.252,-2.977,-0.916
1.410,0.011,-0.095,0.950,8.000,-2.901,-0.489
1.410,0.007,-0.096,0.950,8.672,-2.702,-0.290
1.420,0.010,-0.096,0.934,9.069,-2.015,0.046
1.420,0.018,-0.083,0.932,9.160,-1.511,0.260
1.420,0.017,-0.087,0.925,9.237,-0.718,0.519
1.430,0.017,-0.088,0.913,9.542,0.748,0.885
1.430,0.019,-0.081,0.904,9.267,1.679,1.038
1.440,0.015,-0.076,0.915,8.794,2.626,1.191
1.440,0.015,-0.076,0.897,8.824,3.573,1.557
1.440,0.006,-0.071,0.882,8.672,4.473,1.847
1.450,0.000,-0.067,0.870,8.000,4.580,2.382
1.450,0.005,-0.070,0.884,7.527,4.458,2.779
1.450,0.006,-0.060,0.862,7.130,5.069,3.206
1.460,0.014,-0.060,0.855,6.733,5.847,3.450
1.460,0.006,-0.055,0.858,6.076,5.695,3.679
1.470,0.014,-0.056,0.838,5.115,4.198,3.847
1.470,0.011,-0.051,0.837,4.351,2.626,3.664
1.470,0.020,-0.049,0.835,3.374,1.603,3.695
1.480,0.018,-0.052,0.834,2.916,1.344,4.000
1.480,0.026,-0.051,0.837,2.153,1.603,4.153
1.480,0.030,-0.055,0.836,1.588,1.450,4.351
1.490,0.026,-0.050,0.829,0.885,0.473,4.198
1.490,0.028,-0.051,0.831,0.366,-0.611,3.969
1.500,0.040,-0.047,0.837,0.046,-1.496,3.710
1.500,0.049,-0.041,0.838,-0.244,-1.405,3.450
1.500,0.044,-0.043,0.825,-0.595,-1.267,3.267
1.510,0.049,-0.045,0.820,-1.221,-1.221,3.038
1.510,0.051,-0.040,0.822,-1.450,-1.252,2.534
1.520,0.058,-0.045,0.834,-1.588,-1.542,1.985
1.520,0.059,-0.038,0.835,-1.832,-1.847,1.405
1.520,0.060,-0.043,0.837,-2.015,-2.061,1.053
1.530,0.063,-0.045,0.847,-1.924,-2.061,0.687
1.530,0.059,-0.049,0.842,-1.634,-2.351,0.443
1.540,0.050,-0.042,0.840,-1.908,-2.656,0.336
1.540,0.053,-0.051,0.847,-1.802,-2.290,0.397
1.540,0.044,-0.049,0.842,-1.847,-1.496,0.198
1.550,0.040,-0.050,0.853,-2.015,-1.664,0.351
1.550,0.041,-0.047,0.863,-1.985,-2.534,0.214
1.560,0.046,-0.052,0.880,-2.153,-2.107,0.153
1.560,0.056,-0.057,0.883,-2.000,-1.084,0.107
1.560,0.048,-0.058,0.893,-1.710,0.015,0.015
1.570,0.046,-0.066,0.895,-1.603,0.046,-0.122
1.570,0.043,-0.070,0.900,-1.557,-0.412,-0.427
1.580,0.037,-0.071,0.916,-1.298,-0.336,-0.427
1.580,0.035,-0.077,0.918,-0.687,0.107,-0.489
1.580,0.030,-0.079,0.921,-0.580,-0.076,-0.550
1.590,0.028,-0.074,0.917,-0.550,0.031,-0.489
1.590,0.027,-0.079,0.930,-0.336,-0.412,-0.382
1.600,0.027,-0.077,0.927,-0.198,-1.221,-0.198
1.600,0.028,-0.080,0.944,0.076,-2.397,-0.168
1.600,0.031,-0.092,0.959,0.840,-2.565,-0.550
1.610,0.031,-0.097,0.961,1.435,-2.687,-0.489
1.610,0.027,-0.101,0.973,2.107,-3.023,-0.733
1.620,0.022,-0.107,0.992,2.641,-3.481,-0.748
1.620,0.018,-0.108,1.011,3.573,-3.252,-0.687
1.620,0.010,-0.115,1.023,4.794,-2.794,-0.198
1.630,0.006,-0.119,1.029,6.244,-1.527,0.382
1.630,-0.002,-0.119,1.042,7.466,-0.656,0.962
1.640,0.001,-0.125,1.049,8.214,0.244,1.466
1.640,0.000,-0.126,1.058,9.542,1.786,2.229
1.640,-0.001,-0.130,1.075,11.450,3.420,3.008
1.650,-0.005,-0.133,1.095,13.130,4.901,3.878
1.650,-0.008,-0.132,1.098,14.229,6.397,4.565
1.660,0.002,-0.135,1.126,15.771,8.733,5.252
1.660,0.004,-0.130,1.139,17.282,10.794,5.832
1.660,0.011,-0.132,1.163,18.901,13.191,6.519
1.670,0.012,-0.129,1.160,20.458,15.084,7.328
1.670,0.021,-0.128,1.188,21.511,15.649,7.786
1.680,0.030,-0.118,1.211,23.023,15.237,7.679
1.680,0.056,-0.121,1.246,25.786,15.267,7.160
1.680,0.073,-0.118,1.268,28.824,15.802,6.550
1.690,0.064,-0.119,1.273,32.198,15.618,5.863
1.690,0.067,-0.118,1.269,35.206,14.824,5.160
1.700,0.062,-0.110,1.277,37.908,14.046,4.656
1.700,0.047,-0.114,1.270,40.916,12.611,4.183
1.700,0.042,-0.119,1.281,43.282,10.198,3.817
1.710,0.037,-0.110,1.300,46.244,8.733,3.573
1.710,0.031,-0.120,1.307,49.573,7.634,3.542
1.720,0.026,-0.116,1.323,52.824,6.595,3.466
1.720,0.016,-0.120,1.331,56.336,6.580,4.031
1.720,0.013,-0.125,1.336,59.344,7.084,4.305
1.730,-0.011,-0.141,1.383,63.160,6.962,5.252
1.730,-0.012,-0.135,1.379,68.137,8.947,6.366
1.740,-0.018,-0.140,1.385,71.557,10.748,7.252
1.740,-0.026,-0.136,1.371,75.695,12.000,8.122
1.740,-0.031,-0.133,1.368,79.496,12.275,8.565
1.750,-0.036,-0.129,1.357,82.885,12.183,8.992
1.750,-0.047,-0.126,1.361,85.832,11.802,9.679
1.760,-0.061,-0.125,1.356,89.435,10.977,10.641
1.760,-0.073,-0.115,1.345,92.504,8.947,11.511
1.760,-0.077,-0.118,1.338,94.183,6.153,12.382
1.770,-0.083,-0.104,1.345,97.069,3.695,13.160
1.770,-0.083,-0.108,1.346,101.237,1.481,14.366
1.780,-0.094,-0.107,1.352,104.443,-0.763,15.710
1.780,-0.084,-0.109,1.350,107.725,-3.374,16.794
1.780,-0.062,-0.101,1.359,111.450,-4.733,17.863
1.790,-0.045,-0.103,1.353,114.382,-4.687,18.427
1.790,-0.035,-0.096,1.344,117.557,-4.916,18.855
1.800,-0.018,-0.087,1.338,120.427,-5.496,19.115
1.800,-0.029,-0.077,1.337,123.359,-5.481,19.771
1.810,-0.010,-0.075,1.320,126.015,-0.885,20.534
1.810,0.021,-0.050,1.285,125.603,7.099,21.634
1.810,-0.009,-0.044,1.307,128.458,9.191,22.794
1.820,-0.037,-0.051,1.316,133.237,6.305,23.969
1.820,-0.032,-0.040,1.303,136.763,6.672,25.740
1.830,-0.021,-0.034,1.265,138.870,11.557,27.328
1.830,-0.041,-0.034,1.251,141.115,15.466,29.634
1.840,-0.054,-0.034,1.242,143.267,18.214,32.107
1.840,-0.061,-0.037,1.232,145.252,21.145,34.611
1.840,-0.065,-0.043,1.232,146.718,24.321,37.359
1.850,-0.092,-0.049,1.253,150.214,24.748,39.634
1.850,-0.114,-0.055,1.278,154.321,22.336,42.015
1.860,-0.129,-0.055,1.256,156.870,20.641,44.229
1.860,-0.132,-0.063,1.240,159.130,18.794,45.496
1.870,-0.135,-0.064,1.235,161.435,15.496,46.748
1.870,-0.145,-0.057,1.253,163.985,12.962,47.847
1.870,-0.147,-0.046,1.255,166.779,11.298,49.206
1.880,-0.160,-0.040,1.266,171.756,6.076,50.260
1.880,-0.175,-0.037,1.256,177.130,-0.840,50.916
1.890,-0.151,-0.011,1.217,181.817,-7.206,51.313
1.890,-0.171,-0.015,1.159,183.954,-28.076,51.649
1.890,-0.268,0.053,1.105,180.412,-58.733,49.450
1.900,-0.065,0.042,1.055,182.885,-48.321,45.481
1.900,-0.018,0.055,1.108,187.878,-35.389,43.649
1.910,-0.055,0.063,1.171,193.298,-34.366,43.496
1.910,-0.062,0.080,1.072,197.939,-35.542,43.313
1.920,-0.054,0.112,0.998,198.748,-38.397,42.748
1.920,-0.021,0.134,0.953,198.916,-40.641,41.466
1.920,0.027,0.154,0.947,199.985,-40.824,39.817
1.930,0.054,0.168,0.926,201.649,-39.481,37.847
1.930,0.069,0.183,0.896,202.153,-36.885,36.489
1.940,0.079,0.201,0.851,200.992,-33.298,35.359
1.940,0.089,0.219,0.821,200.397,-30.015,34.748
1.950,0.098,0.223,0.809,200.061,-27.725,33.847
1.950,0.089,0.232,0.781,199.069,-26.519,33.038
1.950,0.077,0.240,0.748,196.626,-25.695,32.931
1.960,0.062,0.243,0.742,194.840,-24.244,33.130
1.960,0.059,0.242,0.751,195.023,-23.542,33.389
1.970,0.056,0.241,0.759,196.061,-24.977,33.084
1.970,0.053,0.241,0.747,197.084,-26.550,32.519
1.970,0.048,0.241,0.737,197.481,-27.832,32.550
1.980,0.053,0.245,0.726,198.931,-29.618,32.061
1.980,0.057,0.249,0.711,199.802,-31.542,31.511
1.990,0.072,0.258,0.688,200.473,-32.718,31.206
1.990,0.086,0.267,0.682,201.313,-33.160,30.733
2.000,0.096,0.282,0.665,203.053,-32.718,30.458
2.000,0.099,0.285,0.650,204.885,-32.672,30.183
2.000,0.115,0.298,0.621,205.496,-32.000,29.725
2.010,0.127,0.307,0.578,205.359,-30.763,29.206
2.010,0.135,0.326,0.554,205.221,-28.229,29.206
2.020,0.146,0.335,0.534,205.603,-25.038,29.145
2.020,0.150,0.347,0.506,205.527,-22.580,28.931
2.020,0.171,0.355,0.483,204.779,-18.565,28.550
2.030,0.188,0.375,0.455,203.679,-14.229,28.031
2.030,0.187,0.377,0.413,202.565,-11.908,26.947
2.040,0.183,0.388,0.403,201.649,-11.939,26.366
2.040,0.188,0.401,0.394,200.763,-11.160,25.313
2.050,0.190,0.412,0.356,200.137,-10.107,24.305
2.050,0.184,0.421,0.323,199.252,-9.740,23.191
2.050,0.174,0.432,0.296,198.336,-11.115,21.939
2.060,0.159,0.440,0.261,196.733,-13.908,21.282
2.060,0.145,0.443,0.249,195.313,-16.458,20.916
2.070,0.145,0.456,0.237,193.802,-17.863,21.130
2.070,0.145,0.455,0.237,192.412,-17.313,21.679
2.070,0.150,0.462,0.215,189.786,-16.305,21.695
2.080,0.142,0.461,0.232,190.107,-20.412,21.649
2.080,0.140,0.463,0.235,190.412,-24.107,21.786
2.090,0.177,0.463,0.223,190.366,-24.198,22.000
2.090,0.190,0.459,0.234,192.061,-23.282,21.863
2.100,0.208,0.463,0.225,194.550,-22.687,21.252
2.100,0.219,0.464,0.212,196.153,-22.076,20.092
2.100,0.221,0.479,0.175,196.931,-21.053,18.672
2.110,0.216,0.481,0.145,197.359,-21.191,17.176
2.110,0.214,0.486,0.112,197.053,-22.275,15.450
2.120,0.198,0.495,0.100,197.084,-24.321,14.351
2.120,0.192,0.500,0.074,196.397,-27.466,13.038
2.120,0.175,0.510,0.060,195.160,-31.160,12.809
2.130,0.172,0.519,0.040,193.863,-34.336,12.275
2.130,0.177,0.541,0.021,191.985,-35.740,11.740
2.140,0.187,0.544,-0.015,189.527,-36.489,11.099
2.140,0.182,0.545,-0.007,188.702,-39.557,10.046
2.150,0.193,0.577,-0.028,188.733,-40.687,10.229
2.150,0.202,0.581,-0.055,186.656,-38.015,9.664
2.150,0.210,0.600,-0.142,183.863,-33.588,9.389
2.160,0.204,0.614,-0.157,180.061,-31.069,8.809
2.160,0.200,0.625,-0.177,176.672,-29.130,8.748
2.170,0.202,0.636,-0.178,172.672,-27.237,8.427
2.170,0.204,0.626,-0.169,168.794,-24.733,8.107
2.170,0.195,0.628,-0.176,164.992,-23.710,7.435
2.180,0.177,0.629,-0.168,161.832,-24.840,7.221
2.180,0.169,0.626,-0.160,159.527,-26.107,6.718
2.190,0.171,0.633,-0.137,157.832,-26.351,6.977
2.190,0.186,0.618,-0.116,157.802,-25.450,6.962
2.200,0.188,0.614,-0.113,158.611,-24.122,7.008
2.200,0.187,0.618,-0.127,158.656,-23.374,6.901
2.200,0.174,0.628,-0.145,158.550,-23.389,6.870
2.210,0.180,0.625,-0.147,158.870,-23.237,7.176
2.210,0.181,0.629,-0.120,160.290,-22.718,7.206
2.220,0.180,0.627,-0.133,162.061,-20.748,7.359
2.220,0.170,0.628,-0.163,163.374,-20.214,7.344
2.220,0.178,0.647,-0.194,162.687,-20.351,6.763
2.230,0.159,0.648,-0.204,163.038,-23.756,6.565
2.230,0.172,0.653,-0.202,163.450,-25.664,6.977
2.240,0.180,0.654,-0.204,163.832,-25.160,6.611
2.240,0.180,0.659,-0.245,164.336,-25.099,7.160
2.250,0.188,0.671,-0.298,163.588,-26.595,6.748
2.250,0.179,0.674,-0.333,161.481,-30.000,5.954
2.250,0.179,0.695,-0.360,158.611,-33.939,5.313
2.260,0.186,0.707,-0.353,156.229,-36.046,4.366
2.260,0.194,0.699,-0.342,154.687,-37.847,3.298
2.270,0.184,0.699,-0.348,153.481,-40.977,2.137
2.270,0.171,0.701,-0.372,151.802,-45.176,1.023
2.270,0.151,0.722,-0.395,149.191,-47.557,0.168
2.280,0.161,0.721,-0.390,147.588,-48.137,-0.366
2.280,0.159,0.715,-0.375,146.458,-48.015,-1.435
2.290,0.158,0.712,-0.379,145.756,-47.634,-2.595
2.290,0.147,0.710,-0.404,144.626,-47.588,-3.573
2.300,0.133,0.715,-0.409,143.634,-47.053,-3.832
2.300,0.113,0.708,-0.423,142.397,-45.695,-3.985
2.300,0.095,0.723,-0.421,141.221,-43.817,-3.695
2.310,0.085,0.705,-0.416,140.824,-41.847,-3.237
2.310,0.079,0.710,-0.416,140.382,-39.588,-2.718
2.320,0.070,0.709,-0.420,140.885,-37.542,-2.015
2.320,0.059,0.699,-0.445,141.099,-36.122,-1.145
2.330,0.058,0.699,-0.466,140.427,-34.198,-0.748
2.330,0.055,0.703,-0.481,139.878,-31.420,-0.244
2.330,0.015,0.714,-0.541,139.374,-30.321,0.336
2.340,-0.009,0.711,-0.573,138.000,-32.412,1.359
2.340,-0.021,0.720,-0.597,135.649,-33.939,2.626
2.350,-0.021,0.732,-0.649,132.382,-33.603,4.153
2.350,-0.020,0.736,-0.684,128.931,-33.588,5.023
2.360,-0.010,0.731,-0.689,126.031,-35.176,5.603
2.360,-0.002,0.713,-0.720,123.420,-36.763,6.061
2.360,-0.012,0.711,-0.737,121.191,-36.748,6.748
2.370,-0.003,0.720,-0.755,119.771,-35.084,8.489
2.370,0.010,0.722,-0.779,118.580,-34.015,10.687
2.380,0.022,0.719,-0.805,116.824,-35.206,12.092
2.380,0.054,0.720,-0.843,115.282,-35.344,13.695
2.390,0.083,0.700,-0.862,114.214,-34.366,14.779
2.390,0.088,0.715,-0.873,113.328,-32.641,17.160
2.390,0.106,0.709,-0.878,113.527,-29.893,19.893
2.400,0.125,0.711,-0.906,113.053,-24.992,21.786
2.400,0.176,0.701,-0.940,113.374,-20.382,22.305
2.410,0.220,0.722,-0.994,112.595,-15.206,22.061
2.410,0.213,0.732,-1.057,111.740,-13.176,20.427
2.410,0.222,0.757,-1.118,109.160,-13.557,18.641
2.420,0.245,0.771,-1.175,105.695,-12.656,16.107
2.420,0.244,0.797,-1.238,100.794,-11.328,13.481
2.430,0.252,0.815,-1.305,94.565,-7.679,10.916
2.430,0.154,0.869,-1.455,81.481,-8.672,12.748
2.440,0.223,0.791,-1.336,77.282,-14.290,5.527
2.440,0.213,0.846,-1.319,71.206,-19.237,4.595
2.440,0.211,0.854,-1.411,62.351,-14.885,2.763
2.450,0.202,0.855,-1.418,53.878,-15.053,1.435
2.450,0.177,0.844,-1.386,46.794,-18.901,0.443
2.460,0.199,0.846,-1.386,39.496,-18.061,-0.550
2.460,0.219,0.843,-1.370,31.802,-14.916,-1.817
2.460,0.235,0.847,-1.359,24.824,-12.351,-3.344
2.470,0.247,0.843,-1.337,18.198,-10.061,-4.931
2.470,0.213,0.838,-1.314,11.435,-8.977,-6.824
2.480,0.214,0.842,-1.264,5.802,-8.779,-7.939
2.480,0.217,0.826,-1.219,0.595,-6.031,-8.947
2.480,0.200,0.820,-1.180,-3.817,-2.351,-9.985
2.490,0.168,0.812,-1.136,-8.534,0.031,-10.382
2.490,0.146,0.809,-1.123,-13.069,2.962,-10.427
2.500,0.112,0.812,-1.089,-17.420,5.313,-10.000
2.500,0.069,0.812,-1.062,-22.122,6.840,-8.763
2.510,0.038,0.804,-1.028,-26.519,6.015,-7.160
2.510,0.032,0.806,-0.986,-30.550,4.443,-5.710
2.510,0.044,0.811,-0.955,-35.038,2.779,-4.153
2.520,0.035,0.808,-0.904,-38.489,-0.611,-2.336
2.520,0.049,0.796,-0.854,-41.389,-3.679,-1.435
2.530,0.085,0.798,-0.795,-43.863,-5.573,-0.809
2.530,0.109,0.795,-0.760,-45.344,-7.405,-0.519
2.530,0.140,0.806,-0.702,-46.840,-8.855,-0.702
2.540,0.159,0.798,-0.681,-46.885,-8.733,-1.145
2.540,0.186,0.808,-0.645,-46.672,-6.443,-2.137
2.550,0.193,0.807,-0.629,-45.893,-4.702,-2.824
2.550,0.194,0.806,-0.588,-44.611,-3.557,-4.168
2.560,0.194,0.818,-0.603,-43.160,-2.015,-5.115
2.560,0.189,0.828,-0.578,-42.122,-0.824,-6.153
2.560,0.188,0.830,-0.594,-41.634,0.885,-7.130
2.570,0.192,0.832,-0.592,-40.718,2.733,-8.290
2.570,0.187,0.845,-0.591,-40.855,4.733,-9.130
2.580,0.178,0.851,-0.597,-41.115,6.565,-10.015
2.580,0.171,0.853,-0.614,-41.817,9.160,-10.855
2.580,0.166,0.853,-0.626,-42.061,12.076,-11.634
2.590,0.153,0.859,-0.643,-42.366,15.740,-12.153
2.590,0.162,0.858,-0.654,-43.389,19.527,-13.038
2.600,0.249,0.860,-0.657,-40.855,37.710,-13.206
2.600,0.151,0.853,-0.650,-41.038,40.641,-13.053
2.610,0.072,0.858,-0.723,-43.008,31.344,-12.656
2.610,0.102,0.834,-0.745,-43.481,23.954,-12.733
2.610,0.133,0.845,-0.762,-44.214,23.160,-12.305
2.620,0.143,0.835,-0.784,-44.366,25.359,-11.878
2.620,0.149,0.853,-0.851,-44.992,27.130,-11.160
2.630,0.145,0.870,-0.915,-47.084,26.733,-11.557
2.630,0.154,0.879,-0.999,-50.687,25.252,-12.718
2.640,0.171,0.903,-1.056,-55.634,23.969,-14.137
2.640,0.171,0.912,-1.110,-61.053,22.458,-15.985
2.640,0.162,0.918,-1.143,-68.122,20.916,-17.557
2.650,0.145,0.913,-1.183,-75.573,20.153,-18.870
2.650,0.214,0.912,-1.164,-80.443,31.328,-19.344
2.660,0.127,0.881,-1.159,-87.725,27.786,-19.664
2.660,0.014,0.883,-1.202,-96.748,14.779,-19.420
2.660,0.028,0.856,-1.177,-103.847,11.115,-18.656
2.670,0.048,0.837,-1.137,-109.038,15.588,-16.076
2.670,0.017,0.825,-1.126,-114.107,18.580,-12.977
2.680,-0.001,0.805,-1.118,-119.649,18.443,-9.588
2.680,0.012,0.797,-1.099,-125.298,18.198,-6.718
2.690,0.046,0.801,-1.075,-129.557,18.763,-4.687
2.690,0.072,0.801,-1.061,-133.710,17.954,-3.221
2.700,0.099,0.794,-1.045,-138.763,15.389,-2.763
2.700,0.135,0.792,-1.016,-143.649,12.855,-3.069
2.700,0.163,0.790,-0.999,-148.015,10.321,-3.863
2.710,0.193,0.782,-0.972,-152.031,7.527,-5.282
2.710,0.212,0.782,-0.952,-156.153,6.122,-6.687
2.720,0.224,0.770,-0.926,-159.893,3.893,-9.206
2.720,0.233,0.769,-0.909,-163.664,1.435,-11.634
2.720,0.237,0.764,-0.897,-166.916,-1.145,-14.305
2.730,0.238,0.748,-0.878,-170.153,-2.137,-17.237
2.730,0.229,0.737,-0.863,-173.328,-0.397,-19.374
2.740,0.205,0.715,-0.841,-177.053,0.489,-21.420
2.740,0.169,0.706,-0.823,-180.473,-0.092,-22.687
2.750,0.136,0.686,-0.792,-183.771,-0.229,-22.763
2.750,0.089,0.676,-0.769,-186.519,1.313,-21.802
2.750,0.044,0.667,-0.746,-189.893,4.198,-19.588
2.760,0.024,0.655,-0.719,-193.450,7.038,-16.611
2.760,0.017,0.636,-0.670,-195.588,9.695,-13.725
2.770,-0.001,0.627,-0.638,-198.076,11.832,-10.824
2.770,-0.004,0.614,-0.572,-199.710,13.695,-7.374
2.780,0.016,0.600,-0.543,-200.504,16.168,-5.008
2.780,0.020,0.598,-0.518,-201.450,15.756,-3.511
2.780,0.037,0.596,-0.495,-202.992,13.924,-2.122
2.790,0.057,0.590,-0.467,-204.214,11.267,-1.573
2.790,0.077,0.581,-0.427,-204.595,8.443,-1.466
2.800,0.101,0.582,-0.393,-204.763,5.664,-1.985
2.800,0.115,0.584,-0.380,-205.282,1.389,-2.763
2.810,0.123,0.584,-0.371,-206.748,-3.863,-3.832
2.810,0.149,0.588,-0.366,-208.580,-8.870,-5.542
2.810,0.188,0.583,-0.375,-210.641,-12.977,-8.366
2.820,0.200,0.581,-0.366,-212.977,-15.481,-11.130
2.820,0.204,0.584,-0.335,-215.038,-18.031,-13.679
2.830,0.203,0.568,-0.330,-217.389,-20.641,-15.679
2.830,0.214,0.557,-0.313,-220.336,-20.870,-18.031
2.840,0.206,0.540,-0.295,-223.099,-20.275,-19.359
2.840,0.160,0.531,-0.249,-225.985,-20.260,-18.824
2.850,0.098,0.510,-0.199,-228.168,-18.977,-15.939
2.850,0.073,0.504,-0.179,-231.237,-13.481,-11.435
2.850,0.053,0.481,-0.122,-234.641,-7.237,-6.580
2.860,0.058,0.460,-0.060,-235.847,-0.183,-1.588
2.860,0.052,0.434,0.006,-235.725,7.038,2.779
2.870,0.068,0.430,0.069,-234.534,14.275,6.611
2.870,0.102,0.416,0.102,-233.954,20.519,9.481
2.870,0.130,0.421,0.122,-232.595,25.481,10.641
2.880,0.158,0.416,0.141,-231.771,28.214,10.656
2.880,0.185,0.413,0.176,-230.779,29.496,9.023
2.890,0.206,0.399,0.199,-229.786,30.809,6.031
2.890,0.210,0.406,0.209,-228.427,29.679,2.962
2.900,0.202,0.396,0.221,-227.542,25.832,-1.450
2.900,0.182,0.398,0.247,-225.710,18.137,-5.832
2.900,0.157,0.403,0.269,-222.977,9.511,-9.313
2.910,0.140,0.413,0.275,-221.069,2.595,-11.221
2.910,0.115,0.428,0.242,-220.595,-3.802,-12.534
2.920,0.092,0.438,0.216,-221.298,-11.725,-13.344
2.920,0.089,0.450,0.190,-223.405,-18.443,-13.664
2.920,0.083,0.458,0.166,-226.763,-21.832,-13.099
2.930,0.062,0.448,0.142,-231.756,-22.412,-11.603
2.930,0.038,0.436,0.152,-236.473,-21.389,-8.763
2.940,0.011,0.411,0.171,-240.870,-18.870,-4.061
2.940,0.021,0.391,0.225,-245.527,-13.053,1.435
2.950,0.045,0.358,0.295,-247.817,-4.901,6.687
2.950,0.087,0.322,0.345,-248.977,6.611,11.115
2.950,0.122,0.301,0.392,-249.664,19.115,14.031
2.960,0.162,0.283,0.423,-249.450,30.244,14.992
2.960,0.190,0.272,0.430,-249.573,39.221,14.244
2.970,0.194,0.250,0.461,-248.397,42.718,12.550
2.970,0.192,0.219,0.526,-245.664,42.427,9.832
2.980,0.206,0.218,0.532,-242.992,44.305,6.489
2.980,0.154,0.215,0.573,-241.053,37.328,3.924
2.980,0.101,0.198,0.643,-237.878,23.527,0.977
2.990,0.092,0.194,0.631,-234.458,11.084,-0.763
2.990,0.102,0.194,0.598,-231.679,-0.656,-2.565
3.000,0.112,0.209,0.574,-230.153,-12.031,-4.519
3.000,0.132,0.217,0.540,-229.145,-22.947,-6.336
3.000,0.144,0.216,0.533,-228.137,-34.183,-8.366
3.010,0.168,0.212,0.497,-227.695,-42.611,-9.634
3.010,0.149,0.211,0.478,-229.008,-48.824,-9.344
3.020,0.151,0.197,0.475,-230.687,-51.710,-7.817
3.020,0.149,0.169,0.495,-231.237,-53.359,-5.466
3.030,0.168,0.152,0.502,-232.565,-51.069,-2.656
3.030,0.249,0.152,0.520,-233.802,-30.214,1.420
3.030,0.266,0.060,0.564,-231.206,-8.824,3.328
3.040,0.130,0.052,0.584,-235.267,-7.374,6.260
3.040,0.176,0.012,0.577,-241.634,1.130,9.252
3.050,0.203,-0.043,0.624,-245.420,13.450,9.985
3.050,0.217,-0.065,0.750,-249.298,22.977,10.565
3.050,0.203,-0.110,0.832,-249.084,29.527,10.092
3.060,0.190,-0.155,0.970,-245.969,29.786,8.275
3.060,0.187,-0.173,1.044,-240.458,26.443,5.695
3.070,0.176,-0.217,1.141,-230.748,20.702,2.458
3.070,0.151,-0.204,1.214,-221.573,11.771,0.519
3.080,0.121,-0.201,1.237,-212.076,1.634,-1.191
3.080,0.123,-0.211,1.194,-204.198,-4.305,-2.366
3.080,0.111,-0.185,1.139,-198.519,-9.191,-1.756
3.090,0.071,-0.193,1.188,-192.519,-18.656,-0.763
3.090,0.077,-0.207,1.211,-184.824,-23.435,0.641
3.100,0.088,-0.204,1.216,-177.496,-24.595,4.137
3.100,0.083,-0.213,1.235,-171.634,-24.931,7.160
3.110,0.100,-0.216,1.251,-167.389,-23.405,10.229
3.110,0.136,-0.221,1.267,-162.412,-17.878,13.832
3.110,0.171,-0.239,1.315,-156.962,-8.244,15.679
3.120,0.190,-0.254,1.337,-151.908,0.947,16.748
3.120,0.209,-0.259,1.363,-147.313,8.458,16.748
3.130,0.227,-0.255,1.365,-142.458,14.519,15.725
3.130,0.243,-0.240,1.341,-140.015,20.840,13.969
3.130,0.258,-0.236,1.334,-137.191,26.397,11.023
3.140,0.246,-0.228,1.311,-135.053,26.855,7.221
3.140,0.209,-0.219,1.355,-132.015,20.763,3.634
3.150,0.191,-0.216,1.382,-127.481,14.977,0.702
3.150,0.179,-0.211,1.395,-122.580,11.389,-1.359
3.160,0.162,-0.195,1.408,-118.076,7.084,-2.824
3.160,0.170,-0.191,1.410,-112.580,4.534,-4.336
3.160,0.163,-0.186,1.416,-106.672,3.130,-5.267
3.170,0.152,-0.173,1.428,-101.053,1.786,-5.863
3.170,0.146,-0.170,1.440,-94.977,0.076,-5.832
3.180,0.153,-0.151,1.417,-89.847,-1.130,-6.229
3.180,0.156,-0.143,1.425,-84.931,-1.695,-6.351
3.180,0.178,-0.135,1.424,-80.397,-1.069,-6.779
3.190,0.204,-0.111,1.399,-76.718,3.038,-6.992
3.190,0.197,-0.099,1.368,-73.679,7.023,-7.527
3.200,0.203,-0.073,1.343,-72.031,11.496,-7.511
3.200,0.191,-0.070,1.301,-70.244,16.260,-7.450
3.210,0.174,-0.058,1.295,-68.962,19.069,-7.649
3.210,0.161,-0.050,1.288,-67.252,20.870,-8.214
3.210,0.143,-0.063,1.276,-64.656,22.885,-8.779
3.220,0.112,-0.071,1.276,-62.366,23.008,-8.580
3.220,0.085,-0.071,1.270,-61.115,22.656,-8.153
3.230,0.072,-0.077,1.267,-58.916,20.885,-8.122
3.230,0.075,-0.067,1.261,-56.977,18.366,-7.618
3.230,0.060,-0.062,1.265,-54.366,14.168,-7.099
3.240,0.062,-0.076,1.246,-51.802,11.191,-7.344
3.240,0.083,-0.053,1.195,-50.595,9.756,-7.252
3.250,0.083,-0.060,1.171,-49.603,7.344,-7.344
3.250,0.095,-0.037,1.141,-49.328,8.504,-6.748
3.260,0.102,-0.033,1.115,-49.557,8.885,-6.489
3.260,0.103,-0.034,1.087,-49.832,8.977,-5.954
3.260,0.091,-0.029,1.078,-50.321,7.954,-5.588
3.270,0.102,-0.031,1.061,-51.405,6.931,-5.435
3.270,0.103,-0.041,1.062,-51.878,5.069,-5.496
3.280,0.118,-0.038,1.075,-51.634,2.443,-6.275
3.280,0.125,-0.044,1.092,-51.420,-1.206,-6.718
3.280,0.127,-0.038,1.087,-51.481,-3.542,-7.115
3.290,0.128,-0.040,1.080,-51.756,-5.389,-7.191
3.290,0.135,-0.034,1.069,-52.122,-5.695,-7.496
3.300,0.150,-0.037,1.074,-51.878,-5.634,-7.344
3.300,0.153,-0.033,1.083,-51.191,-4.595,-7.511
3.300,0.151,-0.037,1.069,-50.168,-4.351,-7.481
3.310,0.150,-0.031,1.064,-49.481,-4.397,-7.420
3.310,0.152,-0.037,1.064,-48.794,-2.580,-7.511
3.320,0.154,-0.031,1.056,-47.847,0.198,-7.237
3.320,0.141,-0.029,1.042,-47.237,1.786,-6.855
3.330,0.137,-0.040,1.036,-46.595,3.435,-6.626
3.330,0.130,-0.031,1.013,-45.863,4.336,-6.092
3.330,0.127,-0.031,0.995,-45.695,4.076,-5.954
3.340,0.130,-0.028,1.000,-45.969,2.763,-5.832
3.340,0.138,-0.024,0.974,-45.954,2.580,-5.924
3.350,0.137,-0.029,0.958,-46.687,2.092,-5.985
3.350,0.138,-0.030,0.951,-47.679,1.237,-5.679
3.350,0.139,-0.037,0.941,-48.519,0.443,-5.679
3.360,0.139,-0.035,0.932,-49.038,-1.221,-5.511
3.360,0.140,-0.046,0.944,-49.282,-3.405,-5.954
3.370,0.156,-0.051,0.949,-49.389,-4.412,-5.969
3.370,0.156,-0.061,0.936,-49.313,-4.840,-6.641
3.370,0.154,-0.064,0.940,-49.679,-5.710,-7.023
3.380,0.152,-0.068,0.942,-50.107,-7.420,-7.221
3.380,0.154,-0.076,0.961,-50.214,-7.802,-6.870
3.390,0.153,-0.088,0.973,-49.695,-7.023,-6.672
3.390,0.158,-0.101,0.997,-48.962,-6.763,-6.489
3.400,0.167,-0.114,1.021,-48.565,-6.733,-6.519
3.400,0.173,-0.125,1.032,-46.595,-5.206,-6.260
3.400,0.162,-0.136,1.042,-44.519,-2.947,-5.649
3.410,0.162,-0.133,1.067,-42.305,-0.427,-5.115
3.410,0.168,-0.149,1.064,-39.939,2.443,-4.748
3.420,0.165,-0.159,1.069,-37.710,4.458,-4.626
3.420,0.157,-0.158,1.055,-35.817,5.634,-4.534
3.420,0.150,-0.166,1.061,-33.924,6.046,-4.626
3.430,0.144,-0.170,1.073,-31.878,5.924,-4.534
3.430,0.131,-0.174,1.076,-29.756,6.153,-4.168
3.440,0.124,-0.176,1.071,-27.817,6.336,-4.076
3.440,0.113,-0.175,1.073,-26.366,5.466,-3.725
3.440,0.122,-0.170,1.076,-24.748,4.687,-3.817
3.450,0.128,-0.169,1.076,-22.824,5.496,-3.710
3.450,0.139,-0.167,1.111,-20.626,7.802,-4.229
3.460,0.189,-0.198,1.082,-18.885,13.313,-4.183
3.460,0.194,-0.206,1.055,-8.061,27.069,0.870
3.470,0.036,-0.277,1.101,7.084,21.008,-2.000
3.470,0.135,-0.184,1.113,-2.748,26.015,-4.321
3.470,0.157,-0.111,1.078,-8.473,36.855,0.153
3.480,0.116,-0.113,1.050,-14.107,40.519,2.137
3.480,0.040,-0.154,1.048,-13.511,34.763,-0.168
3.490,-0.019,-0.190,1.075,-13.664,23.420,-2.397
3.490,0.112,-0.179,1.022,-4.137,22.031,-1.527
3.490,0.080,-0.151,1.054,-1.115,26.260,-0.870
3.500,0.059,-0.110,1.014,-4.519,23.756,0.214
3.500,0.108,-0.118,0.986,-6.107,27.023,1.084
3.510,0.067,-0.133,1.010,-5.618,23.954,-0.244
3.510,0.084,-0.122,1.000,-6.992,20.000,-2.412
3.510,0.110,-0.094,0.965,-6.031,19.832,0.260
3.520,0.203,-0.229,0.952,10.550,18.168,-2.977
3.520,0.078,-0.102,1.065,8.107,7.237,-4.534
3.530,0.152,-0.114,1.008,7.282,15.252,-4.031
3.530,0.120,-0.107,0.998,5.298,18.076,-4.229
3.530,0.085,-0.117,1.009,5.267,13.527,-4.229
3.540,0.079,-0.109,1.023,3.817,9.695,-4.931
3.540,0.092,-0.115,1.005,2.916,8.092,-5.237
3.550,0.078,-0.112,1.003,2.580,7.542,-5.115
3.550,0.076,-0.105,0.995,1.939,7.786,-4.626
3.550,0.067,-0.106,0.973,0.901,6.748,-4.260
3.560,0.056,-0.111,0.981,-0.351,4.351,-4.061
3.560,0.066,-0.109,0.979,-0.901,3.466,-3.802
3.570,0.062,-0.108,0.963,-1.573,3.786,-3.618
3.570,0.065,-0.103,0.944,-2.321,3.649,-3.160
3.570,0.056,-0.107,0.932,-2.214,3.069,-2.885
3.580,0.048,-0.111,0.919,-2.137,2.351,-2.687
3.580,0.038,-0.098,0.909,-3.130,2.000,-1.969
3.590,0.038,-0.105,0.906,-3.130,1.069,-1.679
3.590,0.036,-0.104,0.899,-5.206,-0.427,-1.359
3.590,0.049,-0.102,0.904,-4.183,-0.336,-0.550
3.600,0.046,-0.100,0.903,-4.947,-0.305,-0.137
3.600,0.052,-0.117,0.906,-4.977,-0.794,0.244
3.610,0.064,-0.140,0.907,-0.611,-0.641,0.763
3.610,0.040,-0.099,0.917,-4.122,-5.420,0.076
3.610,0.086,-0.120,0.907,-2.794,-2.168,0.458
3.620,0.049,-0.129,0.916,-1.771,-4.198,0.366
3.620,0.061,-0.116,0.910,-2.580,-5.771,0.504
3.630,0.072,-0.127,0.903,-1.328,-4.458,0.870
3.630,0.071,-0.125,0.902,0.092,-4.855,0.733
3.630,0.060,-0.125,0.887,1.847,-8.427,0.122
3.640,0.074,-0.101,0.874,0.092,-9.084,0.443
3.640,0.079,-0.124,0.876,-0.214,-8.092,0.275
3.650,0.055,-0.117,0.884,-0.534,-10.214,-0.168
3.650,0.090,-0.137,0.880,5.603,-7.893,0.198
3.650,0.028,-0.109,0.907,3.405,-12.244,-0.565
3.660,0.077,-0.104,0.887,3.634,-8.977,0.260
3.660,0.076,-0.101,0.859,1.679,-7.466,0.244
3.670,0.067,-0.103,0.855,0.656,-6.443,0.916
3.670,0.056,-0.112,0.881,-0.046,-7.527,0.824
3.670,0.091,-0.104,0.864,-0.763,-7.634,0.947
3.680,0.101,-0.107,0.845,-0.855,-5.740,1.832
3.680,0.113,-0.113,0.855,-0.046,-3.893,1.450
3.690,0.097,-0.120,0.875,1.725,-6.000,0.748
3.690,0.098,-0.111,0.876,0.473,-6.901,0.198
3.690,0.116,-0.106,0.875,-0.092,-4.076,0.443
3.700,0.108,-0.102,0.874,-0.931,-3.725,0.611
3.700,0.086,-0.105,0.867,0.000,-3.252,0.641
3.710,0.079,-0.115,0.877,0.672,-3.954,0.504
3.710,0.065,-0.116,0.885,1.588,-5.176,0.382
3.710,0.076,-0.107,0.863,0.122,-6.519,0.397
3.720,0.085,-0.113,0.875,0.779,-5.206,0.473
3.720,0.089,-0.115,0.885,1.023,-5.282,0.733
3.720,0.076,-0.107,0.887,1.176,-4.916,0.824
3.730,0.088,-0.112,0.883,1.969,-4.412,1.298
3.730,0.096,-0.118,0.881,2.198,-4.183,1.542
3.740,0.094,-0.120,0.879,2.198,-3.588,1.695
3.740,0.106,-0.107,0.885,2.489,-1.878,1.878
3.740,0.110,-0.113,0.880,2.611,-0.870,2.214
3.750,0.108,-0.104,0.863,2.534,-0.427,2.122
3.750,0.119,-0.106,0.868,2.244,-0.229,1.954
3.760,0.124,-0.105,0.876,2.382,-0.504,1.679
3.760,0.128,-0.105,0.877,2.275,-0.214,1.450
3.760,0.127,-0.102,0.866,2.198,0.672,1.221
3.770,0.130,-0.104,0.866,2.153,1.145,1.053
3.770,0.123,-0.104,0.867,1.817,0.656,0.641
3.780,0.111,-0.108,0.876,1.618,-0.183,0.076
3.780,0.118,-0.110,0.881,1.969,-0.580,-0.015
3.780,0.111,-0.112,0.883,2.122,-0.473,-0.168
3.790,0.108,-0.105,0.896,2.244,0.107,-0.366
3.790,0.109,-0.103,0.889,2.351,-0.046,-0.275
3.790,0.109,-0.103,0.890,2.183,0.229,-0.092
3.800,0.105,-0.111,0.890,2.443,1.527,0.061
3.800,0.107,-0.107,0.887,2.397,2.611,0.107
3.810,0.097,-0.108,0.884,2.458,2.489,0.137
3.810,0.097,-0.098,0.876,1.130,2.153,0.229
3.810,0.099,-0.093,0.874,1.466,2.977,0.504
3.820,0.101,-0.088,0.875,0.855,2.397,0.336
3.820,0.107,-0.089,0.867,1.298,2.565,0.809
3.830,0.110,-0.085,0.847,1.008,3.710,1.130
3.830,0.104,-0.090,0.854,0.519,3.847,1.053
3.830,0.111,-0.092,0.875,0.107,2.718,0.931
3.840,0.123,-0.094,0.875,-0.351,2.626,0.992
3.840,0.130,-0.095,0.885,-0.168,3.618,0.672
3.840,0.130,-0.096,0.886,-0.580,4.137,0.672
3.850,0.133,-0.094,0.889,-0.718,5.328,0.382
3.850,0.134,-0.102,0.905,-0.672,6.046,0.321
3.860,0.138,-0.094,0.909,-0.748,6.901,0.092
3.860,0.132,-0.090,0.904,-1.038,7.084,-0.183
3.860,0.119,-0.096,0.903,-1.084,6.901,-0.382
3.870,0.120,-0.093,0.894,-1.817,5.878,-0.702
3.870,0.117,-0.098,0.906,-1.985,5.527,-1.084
3.880,0.108,-0.102,0.904,-1.878,5.710,-1.145
3.880,0.102,-0.100,0.910,-2.198,5.237,-1.084
3.880,0.094,-0.103,0.910,-2.290,3.832,-0.947
3.890,0.090,-0.105,0.910,-2.550,1.771,-1.069
3.890,0.087,-0.107,0.913,-2.412,0.244,-1.038
3.900,0.094,-0.107,0.919,-2.397,0.061,-1.008
3.900,0.098,-0.106,0.922,-2.015,0.427,-1.115
3.900,0.101,-0.108,0.921,-2.611,0.290,-1.115
3.910,0.093,-0.108,0.911,-2.733,0.183,-0.977
3.910,0.096,-0.109,0.912,-2.870,0.061,-1.038
3.920,0.097,-0.104,0.911,-3.344,0.901,-0.718
3.920,0.082,-0.110,0.905,-3.115,2.305,-0.443
3.920,0.086,-0.104,0.904,-3.420,2.351,-0.061
3.930,0.080,-0.111,0.896,-3.527,1.878,-0.275
3.930,0.077,-0.107,0.881,-3.740,2.061,-0.168
3.940,0.085,-0.109,0.879,-3.649,2.412,-0.290
3.940,0.075,-0.112,0.881,-3.420,1.786,-0.290
3.940,0.076,-0.121,0.869,-0.611,1.069,-0.168
3.950,0.066,-0.112,0.892,1.191,-0.794,-0.061
3.950,0.083,-0.107,0.894,1.038,-1.237,-0.153
3.960,0.092,-0.104,0.896,-0.061,-1.145,-0.275
3.960,0.082,-0.095,0.891,-0.962,-2.015,-0.504
3.960,0.077,-0.104,0.893,-1.008,-3.817,-0.626
3.970,0.078,-0.112,0.893,-0.733,-3.359,-0.397
3.970,0.076,-0.115,0.898,0.473,-2.366,-0.031
3.980,0.073,-0.113,0.891,0.672,-1.618,0.046
3.980,0.081,-0.104,0.882,0.321,-1.191,0.382
3.980,0.085,-0.117,0.874,1.557,-0.550,0.076
3.990,0.089,-0.091,0.885,-0.763,-1.344,0.275
3.990,0.095,-0.097,0.875,-1.527,0.336,0.427
4.000,0.077,-0.105,0.878,-1.130,-0.443,0.183
4.000,0.081,-0.100,0.876,-0.504,-1.649,0.458
4.000,0.078,-0.101,0.877,-0.397,-1.237,0.916
4.010,0.077,-0.099,0.878,-1.160,-1.008,0.885
4.010,0.076,-0.099,0.876,-2.153,-0.656,1.282
4.020,0.082,-0.105,0.898,-1.527,-0.275,1.527
4.020,0.086,-0.093,0.894,-2.427,-0.824,1.191
4.020,0.103,-0.096,0.887,-2.275,0.031,1.359
4.030,0.101,-0.098,0.875,-2.275,0.397,1.145
4.030,0.111,-0.103,0.883,-2.748,0.305,0.763
4.040,0.113,-0.103,0.884,-2.748,0.947,0.687
4.040,0.123,-0.103,0.889,-2.366,1.695,0.168
4.040,0.105,-0.109,0.903,-0.962,2.000,-0.168
4.050,0.102,-0.110,0.917,0.244,1.695,-0.366
4.050,0.094,-0.114,0.906,0.092,1.435,-0.672
