Time,acce_x,acce_y,acce_z,gyro_x,gyro_y,gyro_z
0.000,0.056,-0.103,0.875,-0.962,3.298,-1.221
0.000,0.042,-0.109,0.879,-1.115,2.336,-1.160
0.010,0.044,-0.103,0.873,-1.298,1.496,-1.282
0.010,0.045,-0.100,0.877,-1.527,0.840,-1.511
0.010,0.052,-0.105,0.870,-1.634,0.641,-1.206
0.020,0.053,-0.100,0.882,-1.756,0.794,-1.099
0.020,0.046,-0.105,0.883,-1.649,1.069,-0.626
0.020,0.046,-0.103,0.883,-1.832,1.115,-0.519
0.030,0.051,-0.101,0.873,-1.847,0.992,-0.473
0.030,0.042,-0.103,0.883,-2.031,0.702,-0.107
0.030,0.045,-0.103,0.892,-1.985,0.473,-0.214
0.040,0.060,-0.099,0.892,-1.847,0.702,-0.137
0.040,0.062,-0.103,0.881,-1.985,0.870,-0.046
0.040,0.054,-0.095,0.894,-2.214,1.420,0.092
0.050,0.055,-0.097,0.885,-2.183,1.756,0.244
0.050,0.051,-0.092,0.878,-2.458,1.527,0.382
0.060,0.044,-0.092,0.868,-2.656,0.779,0.534
0.060,0.055,-0.091,0.880,-3.130,-0.290,0.473
0.060,0.055,-0.094,0.885,-3.466,-0.748,0.305
0.070,0.063,-0.096,0.874,-3.649,-1.511,0.412
0.070,0.059,-0.093,0.893,-3.511,-2.015,0.336
0.070,0.064,-0.092,0.886,-3.664,-2.046,0.168
0.080,0.068,-0.087,0.883,-3.679,-1.954,0.290
0.080,0.077,-0.095,0.881,-3.664,-1.710,0.137
0.090,0.073,-0.095,0.875,-3.695,-1.252,0.168
0.090,0.075,-0.091,0.880,-3.832,-0.290,0.305
0.090,0.080,-0.093,0.878,-4.137,0.733,0.412
0.100,0.078,-0.092,0.893,-4.107,2.076,0.244
0.100,0.081,-0.093,0.891,-4.092,1.969,0.076
0.110,0.079,-0.100,0.897,-3.771,1.191,-0.718
0.110,0.072,-0.104,0.919,-3.206,-0.366,-1.145
0.110,0.062,-0.108,0.936,-2.519,-0.977,-1.573
0.120,0.071,-0.116,0.934,-1.771,-0.916,-1.389
0.120,0.064,-0.104,0.924,-1.115,-0.153,-1.206
0.130,0.059,-0.108,0.918,-0.656,-0.076,-0.733
0.130,0.063,-0.104,0.918,-0.489,0.595,-0.382
0.130,0.071,-0.097,0.899,-0.397,1.985,-0.473
0.140,0.069,-0.103,0.890,-0.321,3.298,-0.168
0.140,0.075,-0.097,0.884,-0.718,4.473,-0.061
0.150,0.070,-0.099,0.889,-1.008,5.237,0.000
0.150,0.057,-0.101,0.887,-1.298,5.542,0.076
0.150,0.062,-0.108,0.904,-0.672,5.130,0.122
0.160,0.049,-0.107,0.896,-0.092,3.053,-0.305
0.160,0.041,-0.104,0.910,-0.473,0.214,-0.595
0.170,0.055,-0.104,0.908,-0.229,-2.122,-1.176
0.170,0.070,-0.111,0.913,0.061,-2.015,-1.573
0.170,0.069,-0.105,0.907,0.183,-2.153,-1.725
0.180,0.064,-0.095,0.896,0.015,-2.595,-1.664
0.180,0.060,-0.097,0.892,-0.107,-2.046,-1.099
0.190,0.067,-0.088,0.879,-0.076,-1.237,-1.038
0.190,0.069,-0.088,0.874,-0.336,-0.122,-0.748
0.190,0.066,-0.088,0.879,-0.840,0.809,-0.763
0.200,0.067,-0.091,0.876,-1.542,1.557,-0.718
0.200,0.059,-0.090,0.866,-2.305,2.107,-0.687
0.210,0.052,-0.096,0.878,-2.702,2.779,-0.351
0.210,0.048,-0.090,0.890,-3.221,3.191,-0.092
0.210,0.041,-0.093,0.896,-3.710,3.191,0.260
0.220,0.036,-0.100,0.893,-3.679,3.084,0.748
0.220,0.039,-0.104,0.894,-3.313,2.534,0.794
0.230,0.045,-0.113,0.915,-2.595,2.092,0.809
0.230,0.042,-0.107,0.905,-1.405,1.252,0.458
0.230,0.043,-0.114,0.896,-0.733,-2.229,0.153
0.240,0.051,-0.106,0.911,-0.687,-5.679,-0.351
0.240,0.065,-0.098,0.900,-0.244,-6.321,-0.672
0.250,0.076,-0.106,0.906,0.061,-4.885,-0.656
0.250,0.077,-0.098,0.898,0.229,-4.412,-0.641
0.250,0.075,-0.105,0.906,0.168,-4.229,-0.550
0.260,0.083,-0.098,0.902,-0.061,-3.649,-0.611
0.260,0.083,-0.100,0.908,0.229,-2.214,-0.641
0.270,0.087,-0.104,0.909,0.427,-0.122,-0.611
0.270,0.083,-0.103,0.911,0.244,1.206,-0.840
0.270,0.074,-0.104,0.906,0.260,2.595,-0.809
0.280,0.071,-0.101,0.913,0.183,3.695,-0.748
0.280,0.070,-0.102,0.900,0.092,5.115,-0.656
0.290,0.063,-0.101,0.897,-0.107,5.634,-0.229
0.290,0.053,-0.092,0.889,-0.229,5.069,-0.305
0.290,0.041,-0.095,0.897,-0.351,3.542,-0.290
0.300,0.044,-0.094,0.887,-0.656,1.954,-0.153
0.300,0.056,-0.091,0.891,-0.550,1.847,0.061
0.310,0.056,-0.088,0.890,-0.855,1.405,0.153
0.310,0.050,-0.095,0.893,-1.176,0.092,0.137
0.310,0.047,-0.093,0.887,-1.237,-2.092,0.015
0.320,0.054,-0.096,0.904,-1.282,-3.221,0.092
0.320,0.057,-0.094,0.903,-1.160,-4.046,-0.015
0.330,0.054,-0.098,0.910,-0.901,-4.718,0.076
0.330,0.057,-0.103,0.917,-0.763,-4.794,0.351
0.330,0.058,-0.102,0.907,-0.382,-4.473,0.687
0.340,0.077,-0.100,0.907,-0.244,-3.145,0.748
0.340,0.081,-0.103,0.913,0.031,-1.695,0.748
0.350,0.087,-0.100,0.903,0.351,0.214,0.565
0.350,0.093,-0.104,0.897,0.550,1.511,0.382
0.350,0.084,-0.104,0.904,0.687,2.656,0.198
0.360,0.079,-0.098,0.895,0.977,3.573,-0.183
0.360,0.076,-0.099,0.877,1.084,3.786,-0.580
0.370,0.053,-0.098,0.881,0.931,1.649,-0.656
0.370,0.050,-0.106,0.884,0.809,-0.656,-1.099
0.370,0.066,-0.103,0.896,1.160,-1.008,-1.450
0.380,0.072,-0.103,0.888,1.420,-0.366,-1.603
0.380,0.050,-0.092,0.884,1.099,-0.901,-1.298
0.390,0.039,-0.092,0.876,0.855,-1.878,-0.748
0.390,0.051,-0.088,0.870,0.382,-1.863,-0.595
0.390,0.057,-0.091,0.870,0.092,-0.794,-0.321
0.400,0.062,-0.083,0.867,-0.260,-0.214,0.122
0.400,0.057,-0.086,0.861,-0.733,0.336,0.229
0.400,0.060,-0.090,0.862,-1.374,0.718,0.321
0.410,0.062,-0.090,0.881,-1.878,1.298,0.305
0.410,0.065,-0.089,0.885,-1.985,1.664,0.305
0.420,0.066,-0.094,0.886,-2.595,1.389,0.183
0.420,0.068,-0.095,0.899,-2.656,1.206,-0.015
0.420,0.078,-0.101,0.908,-2.595,0.947,-0.061
0.430,0.076,-0.099,0.911,-2.046,0.183,-0.275
0.430,0.074,-0.098,0.921,-1.588,0.000,-0.489
0.440,0.083,-0.102,0.922,-0.916,0.092,-0.489
0.440,0.080,-0.104,0.918,0.122,0.198,-0.748
0.440,0.083,-0.102,0.902,0.779,0.153,-0.885
0.450,0.082,-0.105,0.904,1.099,-0.168,-1.023
0.450,0.071,-0.092,0.901,1.466,-0.779,-1.420
0.460,0.083,-0.097,0.897,2.504,-1.023,-1.634
0.460,0.090,-0.089,0.887,1.679,1.374,-1.435
0.460,0.086,-0.077,0.868,0.977,3.069,-1.420
0.470,0.056,-0.095,0.897,1.527,1.511,-1.160
0.470,0.068,-0.090,0.888,1.435,1.420,-1.176
0.480,0.087,-0.086,0.891,0.779,2.412,-1.313
0.480,0.093,-0.091,0.902,0.641,3.771,-1.435
0.480,0.081,-0.092,0.894,0.595,4.672,-1.679
0.490,0.085,-0.095,0.897,0.244,4.794,-2.107
0.490,0.080,-0.095,0.895,0.397,4.947,-2.550
0.500,0.067,-0.102,0.897,0.519,4.031,-2.824
0.500,0.068,-0.095,0.903,0.351,3.573,-3.252
0.500,0.064,-0.100,0.904,0.229,2.885,-3.221
0.510,0.059,-0.091,0.886,0.168,2.366,-2.947
0.510,0.051,-0.090,0.896,0.229,1.985,-2.962
0.510,0.044,-0.094,0.895,0.305,2.366,-2.977
0.520,0.038,-0.094,0.895,0.443,1.786,-2.824
0.520,0.034,-0.096,0.890,0.260,1.160,-2.672
0.530,0.026,-0.091,0.882,0.031,0.748,-2.122
0.530,0.030,-0.098,0.874,-0.122,1.038,-1.710
0.530,0.028,-0.088,0.878,-0.351,1.740,-1.267
0.540,0.026,-0.105,0.885,-0.733,1.481,-0.718
0.540,0.024,-0.096,0.881,-0.992,0.977,-0.519
0.550,0.021,-0.099,0.885,-1.038,0.122,-0.092
0.550,0.023,-0.096,0.886,-1.160,-0.718,0.366
0.550,0.023,-0.095,0.887,-1.267,-0.977,0.947
0.560,0.027,-0.090,0.888,-1.450,-1.771,1.298
0.560,0.047,-0.096,0.887,-1.588,-2.366,1.695
0.570,0.051,-0.090,0.887,-1.466,-2.519,1.924
0.570,0.061,-0.096,0.894,-1.420,-2.443,1.756
0.570,0.070,-0.098,0.897,-1.252,-2.229,1.511
0.580,0.082,-0.094,0.905,-0.718,-1.985,0.931
0.580,0.086,-0.102,0.911,-0.229,-1.435,0.748
0.590,0.089,-0.095,0.906,0.061,-0.672,0.366
0.590,0.087,-0.092,0.901,0.687,0.321,0.305
0.590,0.075,-0.090,0.894,0.992,0.855,-0.031
0.600,0.074,-0.093,0.886,0.840,1.008,-0.122
0.600,0.081,-0.088,0.876,0.611,1.359,-0.260
0.610,0.087,-0.079,0.881,0.092,2.153,-0.473
0.610,0.082,-0.080,0.864,-0.351,2.855,-0.504
0.610,0.068,-0.081,0.864,-0.947,2.656,-0.748
0.620,0.059,-0.081,0.876,-1.344,2.092,-0.779
0.620,0.056,-0.086,0.874,-1.542,1.832,-0.779
0.630,0.053,-0.092,0.888,-1.389,1.313,-0.748
0.630,0.046,-0.090,0.883,-1.405,0.443,-0.580
0.630,0.045,-0.091,0.880,-1.374,-0.321,-0.366
0.640,0.053,-0.092,0.895,-1.160,-0.595,-0.214
0.640,0.058,-0.095,0.910,-0.748,0.015,0.046
0.650,0.068,-0.095,0.889,-0.382,0.305,0.122
0.650,0.065,-0.090,0.895,-0.031,-0.061,0.321
0.650,0.062,-0.090,0.906,0.092,-0.397,-0.153
0.660,0.075,-0.096,0.892,0.107,-0.244,-0.290
0.660,0.087,-0.096,0.903,0.244,0.718,-0.626
0.670,0.084,-0.088,0.892,0.550,1.160,-0.992
0.670,0.076,-0.088,0.903,0.641,1.176,-1.298
0.670,0.074,-0.093,0.892,0.534,0.656,-1.573
0.680,0.070,-0.086,0.894,0.397,0.931,-1.664
0.680,0.061,-0.088,0.886,0.198,1.405,-1.588
0.690,0.058,-0.088,0.876,0.092,1.252,-1.450
0.690,0.047,-0.078,0.873,-0.153,0.656,-1.511
0.690,0.048,-0.083,0.875,-0.443,0.015,-1.374
0.700,0.052,-0.083,0.880,-0.748,0.305,-1.191
0.700,0.048,-0.082,0.876,-0.702,1.649,-0.763
0.710,0.049,-0.084,0.876,-0.809,1.985,-0.534
0.710,0.041,-0.085,0.875,-1.038,1.939,-0.046
0.710,0.047,-0.080,0.879,-1.237,1.832,-0.168
0.720,0.047,-0.085,0.865,-1.527,1.649,-0.137
0.720,0.047,-0.084,0.866,-1.618,1.053,-0.244
0.720,0.043,-0.081,0.878,-1.985,-0.565,-0.198
0.730,0.056,-0.082,0.878,-2.473,-1.969,-0.198
0.730,0.062,-0.081,0.878,-2.840,-1.695,-0.382
0.740,0.069,-0.083,0.889,-2.412,-1.099,-0.382
0.740,0.053,-0.088,0.895,-2.519,-1.359,-0.458
0.750,0.065,-0.090,0.900,-2.153,-1.817,-0.550
0.750,0.061,-0.090,0.910,-2.015,-1.939,-0.565
0.750,0.062,-0.092,0.900,-1.664,-1.695,-0.687
0.760,0.065,-0.089,0.901,-1.405,-1.557,-1.221
0.760,0.062,-0.093,0.897,-1.344,-1.725,-1.176
0.770,0.052,-0.088,0.894,-1.511,-1.634,-1.298
0.770,0.055,-0.084,0.897,-1.466,-0.855,-1.038
0.770,0.063,-0.088,0.895,-1.328,0.519,-0.901
0.780,0.055,-0.082,0.885,-1.389,1.359,-0.595
0.780,0.060,-0.093,0.891,-1.450,2.000,-0.427
0.790,0.061,-0.088,0.891,-1.481,2.504,-0.443
0.790,0.063,-0.082,0.901,-1.405,3.252,-0.550
0.790,0.055,-0.091,0.888,-1.069,3.802,-0.458
0.800,0.054,-0.088,0.890,-0.840,4.137,-0.489
0.800,0.054,-0.091,0.885,-0.794,3.985,-0.275
0.810,0.054,-0.083,0.891,-0.870,3.221,-0.229
0.810,0.050,-0.086,0.889,-0.855,2.962,-0.198
0.810,0.054,-0.089,0.882,-0.840,2.748,-0.336
0.820,0.057,-0.088,0.878,-1.115,2.076,-0.489
0.820,0.057,-0.084,0.880,-1.710,1.618,-0.641
0.830,0.055,-0.086,0.872,-1.969,1.435,-0.580
0.830,0.047,-0.083,0.878,-1.969,0.992,-0.672
0.830,0.043,-0.083,0.882,-1.985,0.397,-0.611
0.840,0.042,-0.083,0.887,-1.969,-0.382,-0.397
0.840,0.045,-0.089,0.885,-1.786,-1.130,-0.489
0.850,0.047,-0.090,0.890,-1.450,-1.863,-0.733
0.850,0.043,-0.090,0.896,-1.405,-3.206,-0.885
0.850,0.047,-0.084,0.896,-1.664,-4.092,-0.626
0.860,0.057,-0.085,0.894,-1.679,-3.695,-0.672
0.860,0.058,-0.092,0.899,-1.511,-3.740,-0.809
0.870,0.060,-0.087,0.891,-1.450,-4.260,-1.023
0.870,0.061,-0.085,0.899,-1.450,-3.832,-0.672
0.870,0.067,-0.088,0.902,-1.130,-3.008,-0.687
0.880,0.073,-0.086,0.910,-0.763,-2.031,-0.366
0.880,0.074,-0.091,0.906,-0.702,-2.076,-0.718
0.890,0.083,-0.095,0.907,-0.611,-1.389,-0.931
0.890,0.088,-0.093,0.906,-0.260,0.458,-1.298
0.890,0.086,-0.090,0.908,-0.092,1.893,-1.313
0.900,0.078,-0.089,0.907,-0.366,2.641,-1.282
0.900,0.075,-0.085,0.898,-0.473,3.588,-1.313
0.910,0.066,-0.090,0.896,-0.382,4.534,-1.130
0.910,0.065,-0.093,0.904,-0.641,5.038,-0.992
0.910,0.066,-0.089,0.908,-0.565,5.542,-0.992
0.920,0.063,-0.090,0.912,-0.244,5.969,-0.702
0.920,0.056,-0.088,0.914,-0.275,5.969,-0.641
0.930,0.059,-0.090,0.915,-0.061,5.664,-0.779
0.930,0.050,-0.094,0.916,0.168,5.450,-0.809
0.930,0.062,-0.092,0.918,0.748,4.611,-1.038
0.940,0.063,-0.098,0.921,1.145,4.321,-1.023
0.940,0.065,-0.095,0.918,1.588,4.641,-1.176
0.950,0.058,-0.085,0.911,1.634,5.130,-0.870
0.950,0.057,-0.096,0.905,1.786,5.252,-0.702
0.950,0.050,-0.094,0.906,1.603,4.595,-0.626
0.960,0.052,-0.089,0.902,0.977,4.244,-0.626
0.960,0.058,-0.093,0.903,0.870,3.878,-0.779
0.970,0.055,-0.095,0.908,0.962,3.313,-1.053
0.970,0.044,-0.090,0.914,0.656,1.954,-1.206
0.970,0.038,-0.095,0.925,0.947,0.183,-1.191
0.980,0.045,-0.100,0.931,0.977,-0.992,-1.023
0.980,0.052,-0.091,0.935,1.542,-1.160,-0.870
0.990,0.050,-0.098,0.938,2.137,-1.542,-0.962
0.990,0.047,-0.103,0.939,2.534,-2.641,-1.221
0.990,0.047,-0.106,0.946,3.176,-4.122,-1.267
1.000,0.048,-0.099,0.944,3.527,-3.939,-1.069
1.000,0.052,-0.105,0.940,3.832,-3.145,-0.885
1.010,0.060,-0.098,0.961,3.954,-2.046,-0.748
1.010,0.058,-0.103,0.965,4.305,-2.015,-0.840
1.010,0.061,-0.115,0.978,4.687,-2.168,-0.992
1.020,0.060,-0.115,0.995,5.359,-2.092,-1.389
1.020,0.063,-0.112,1.021,6.687,-0.672,-1.115
1.030,0.062,-0.124,1.026,7.908,0.397,-0.855
1.030,0.062,-0.119,1.031,9.176,1.221,-0.901
1.030,0.061,-0.116,1.038,10.489,1.725,-0.214
1.040,0.074,-0.118,1.040,12.092,2.809,-0.565
1.040,0.069,-0.117,1.047,13.374,3.603,-0.962
1.050,0.074,-0.120,1.044,14.779,3.679,-1.511
1.050,0.068,-0.118,1.055,15.985,3.817,-1.634
1.050,0.069,-0.117,1.054,17.267,3.985,-1.756
1.060,0.063,-0.117,1.062,18.336,4.305,-1.832
1.060,0.056,-0.113,1.065,19.634,3.817,-2.092
1.070,0.046,-0.114,1.054,20.702,3.496,-1.954
1.070,0.049,-0.105,1.052,21.908,4.595,-1.878
1.070,0.045,-0.104,1.036,22.763,5.740,-1.924
1.080,0.038,-0.109,1.035,23.771,6.473,-2.000
1.080,0.028,-0.097,1.027,24.870,7.359,-1.435
1.090,0.012,-0.092,1.019,25.817,8.076,-1.008
1.090,-0.000,-0.086,1.009,26.443,8.855,0.168
1.090,0.001,-0.080,1.000,26.947,9.282,0.779
1.100,0.010,-0.071,0.996,27.038,9.176,1.008
1.100,0.014,-0.069,0.986,26.916,8.382,1.527
1.100,0.015,-0.059,0.985,26.962,7.542,1.588
1.110,0.025,-0.058,0.988,26.718,8.076,1.481
1.110,0.057,-0.062,0.990,27.023,8.076,-0.305
1.120,0.064,-0.069,1.003,27.328,5.847,-1.817
1.120,0.054,-0.064,0.992,27.053,3.191,-2.458
1.120,0.018,-0.063,0.997,27.786,-0.015,-2.153
1.130,0.013,-0.062,1.012,28.840,-2.427,-1.084
1.130,0.026,-0.063,1.016,29.603,-2.947,-0.504
1.140,0.029,-0.061,1.011,30.427,-3.099,-0.015
1.140,0.027,-0.055,0.996,31.374,-3.450,0.412
1.150,0.029,-0.053,0.989,31.985,-2.641,0.718
1.150,0.040,-0.045,0.978,32.275,-1.099,1.237
1.150,0.037,-0.043,0.967,32.107,0.153,1.450
1.160,0.019,-0.042,0.974,31.756,0.733,2.046
1.160,0.025,-0.041,0.986,31.481,1.450,2.290
1.160,0.028,-0.051,1.002,31.267,2.931,2.672
1.170,0.028,-0.054,1.020,30.947,4.244,2.672
1.170,0.025,-0.061,1.035,30.794,5.237,3.038
1.180,0.016,-0.066,1.055,30.779,5.695,2.626
1.180,0.006,-0.079,1.079,31.023,5.710,2.748
1.180,-0.002,-0.083,1.100,31.344,4.977,2.931
1.190,-0.005,-0.089,1.125,32.718,3.649,2.962
1.190,-0.017,-0.102,1.170,34.443,2.366,3.038
1.200,-0.022,-0.110,1.203,36.977,1.588,3.374
1.200,-0.024,-0.119,1.237,40.107,0.427,3.924
1.200,-0.038,-0.123,1.268,43.802,-0.611,4.718
1.210,-0.043,-0.132,1.293,47.740,-1.115,5.985
1.210,-0.040,-0.136,1.305,51.832,-0.198,7.771
1.220,-0.030,-0.139,1.333,56.275,2.015,9.267
1.220,-0.026,-0.138,1.338,60.748,4.748,10.748
1.220,-0.014,-0.134,1.352,65.496,7.603,12.107
1.230,-0.012,-0.134,1.352,70.489,8.504,13.069
1.230,0.006,-0.129,1.361,74.443,10.336,14.473
1.240,0.043,-0.115,1.332,77.115,15.740,15.084
1.240,0.034,-0.123,1.337,81.511,16.672,14.901
1.240,0.043,-0.113,1.353,85.740,15.817,14.366
1.250,0.060,-0.108,1.322,89.756,17.069,13.756
1.250,0.059,-0.096,1.302,93.237,17.008,13.160
1.260,0.053,-0.082,1.291,96.580,14.916,11.969
1.260,0.067,-0.087,1.293,99.679,12.824,10.427
1.270,0.064,-0.075,1.284,102.824,12.015,9.008
1.270,0.046,-0.065,1.266,106.046,9.664,8.122
1.270,0.024,-0.056,1.267,108.916,6.214,7.603
1.280,0.030,-0.047,1.239,111.221,3.328,7.069
1.280,0.043,-0.037,1.225,113.008,1.954,6.015
1.290,0.058,-0.046,1.223,114.550,1.359,5.115
1.290,0.050,-0.039,1.225,116.290,1.176,4.168
1.290,0.031,-0.042,1.234,117.588,0.641,4.046
1.300,0.026,-0.049,1.238,119.298,1.298,4.305
1.300,0.010,-0.058,1.268,121.649,1.924,4.611
1.310,0.001,-0.058,1.265,124.015,2.702,5.252
1.310,0.001,-0.059,1.291,126.504,4.046,6.351
1.310,-0.001,-0.060,1.296,129.710,5.710,7.298
1.320,-0.005,-0.065,1.287,133.389,7.847,8.336
1.320,-0.011,-0.061,1.291,136.916,9.511,9.344
1.330,-0.009,-0.061,1.292,141.008,10.015,10.336
1.330,-0.011,-0.062,1.298,145.450,9.939,10.855
1.330,-0.001,-0.051,1.294,150.290,10.168,11.435
1.340,-0.005,-0.046,1.286,155.298,9.786,11.954
1.340,-0.009,-0.037,1.263,159.771,9.221,12.656
1.350,-0.012,-0.021,1.240,163.649,7.527,13.603
1.350,-0.017,-0.010,1.216,167.557,5.710,14.519
1.350,-0.010,0.003,1.185,171.298,2.962,15.756
1.360,-0.008,0.020,1.162,174.382,-0.580,16.412
1.360,0.009,0.033,1.136,176.656,-3.145,17.038
1.370,0.036,0.047,1.107,178.351,-4.275,17.038
1.370,0.061,0.060,1.068,180.198,-5.176,16.626
1.380,0.078,0.075,1.045,181.557,-6.290,15.878
1.380,0.084,0.080,1.012,182.168,-7.328,14.550
1.380,0.087,0.094,1.003,182.076,-8.824,13.450
1.390,0.082,0.102,0.989,182.489,-10.275,12.290
1.390,0.086,0.112,0.984,183.466,-10.763,11.313
1.400,0.093,0.129,0.983,184.809,-9.847,10.931
1.400,0.100,0.137,0.946,185.832,-8.626,9.817
1.400,0.115,0.146,0.917,186.198,-7.786,8.214
1.410,0.107,0.164,0.902,186.305,-7.542,6.595
1.410,0.109,0.170,0.875,185.588,-6.275,5.542
1.420,0.087,0.187,0.864,185.282,-5.176,4.885
1.420,0.074,0.193,0.847,184.748,-4.198,4.687
1.420,0.063,0.205,0.843,184.779,-3.542,5.038
1.430,0.057,0.208,0.835,185.359,-2.534,5.847
1.430,0.038,0.211,0.812,185.893,-1.420,7.160
1.440,0.032,0.223,0.810,186.672,-0.763,8.092
1.440,0.045,0.235,0.776,187.053,-0.840,8.305
1.440,0.040,0.242,0.752,187.389,-2.214,8.076
1.450,0.034,0.256,0.748,187.939,-4.107,7.878
1.450,0.033,0.255,0.727,189.450,-6.061,7.893
1.460,0.035,0.266,0.726,190.427,-8.076,8.198
1.460,0.037,0.275,0.696,190.641,-8.931,8.840
1.460,0.029,0.283,0.675,191.344,-9.954,9.740
1.470,0.026,0.293,0.672,192.198,-10.870,11.053
1.470,0.058,0.301,0.664,193.573,-10.901,12.000
1.480,0.076,0.313,0.645,194.519,-9.969,12.229
1.480,0.108,0.326,0.616,195.511,-8.214,11.802
1.480,0.116,0.333,0.594,196.702,-6.244,10.947
1.490,0.122,0.347,0.565,198.000,-5.313,9.802
1.490,0.115,0.364,0.515,198.611,-4.458,8.733
1.500,0.124,0.378,0.477,197.985,-3.084,7.542
1.500,0.112,0.397,0.432,197.359,-2.794,6.626
1.500,0.101,0.414,0.401,195.939,-3.527,6.336
1.510,0.083,0.432,0.377,193.725,-3.496,6.061
1.510,0.086,0.440,0.346,191.237,-3.405,5.435
1.520,0.061,0.455,0.325,188.748,-3.786,5.527
1.520,0.058,0.480,0.309,186.321,-3.252,5.374
1.520,0.047,0.498,0.281,184.153,-2.473,5.740
1.530,0.044,0.508,0.244,180.931,-1.832,5.542
1.530,0.038,0.537,0.209,175.679,-2.275,6.137
1.540,0.008,0.549,0.217,172.336,-5.496,6.992
1.540,0.004,0.550,0.222,168.000,-8.046,7.863
1.540,0.027,0.585,0.221,162.137,-7.328,9.466
1.550,0.048,0.561,0.174,161.267,-3.527,10.107
1.550,0.050,0.578,0.173,158.351,-0.824,9.817
1.560,0.054,0.613,0.180,152.275,1.466,11.802
1.560,0.084,0.615,0.150,148.947,5.160,12.214
1.560,0.076,0.611,0.234,149.527,3.649,12.794
1.570,0.079,0.609,0.252,151.359,0.718,13.282
1.570,0.094,0.621,0.232,151.924,-0.229,11.893
1.580,0.097,0.621,0.194,150.992,-1.160,10.962
1.580,0.098,0.631,0.188,151.252,-1.634,10.580
1.580,0.100,0.637,0.203,152.076,-2.321,9.756
1.590,0.091,0.635,0.211,153.237,-3.252,9.359
1.590,0.091,0.645,0.213,154.351,-5.069,8.962
1.600,0.072,0.650,0.177,155.176,-8.137,9.160
1.600,0.070,0.660,0.153,155.817,-10.992,9.405
1.600,0.065,0.667,0.147,155.740,-13.588,9.756
1.610,0.083,0.676,0.134,155.710,-14.458,10.000
1.610,0.086,0.682,0.114,155.435,-15.176,10.061
1.620,0.091,0.689,0.101,154.382,-17.206,9.740
1.620,0.090,0.698,0.076,153.145,-19.344,9.130
1.630,0.096,0.709,0.067,151.740,-21.786,8.595
1.630,0.112,0.707,0.069,150.260,-22.595,7.679
1.630,0.122,0.711,0.032,148.015,-21.832,6.855
1.640,0.123,0.729,0.000,144.458,-21.496,5.496
1.640,0.110,0.724,0.012,140.458,-23.481,4.641
1.650,0.109,0.724,0.031,137.328,-24.397,3.664
1.650,0.120,0.717,0.060,135.282,-24.443,2.763
1.650,0.132,0.715,0.077,134.702,-23.756,1.863
1.660,0.137,0.711,0.066,134.122,-21.893,1.191
1.660,0.125,0.704,0.071,133.649,-19.985,0.687
1.670,0.115,0.708,0.058,134.107,-18.824,0.061
1.670,0.114,0.707,0.047,134.672,-16.397,-0.061
1.670,0.113,0.715,0.039,135.023,-13.023,-0.092
1.680,0.108,0.706,0.028,135.298,-9.405,0.397
1.680,0.100,0.718,0.012,135.420,-7.756,0.916
1.690,0.072,0.704,0.009,136.382,-8.855,1.191
1.690,0.075,0.704,-0.002,136.870,-9.664,1.328
1.690,0.079,0.697,-0.003,136.565,-8.504,1.573
1.700,0.081,0.695,0.000,136.947,-6.290,2.092
1.700,0.077,0.686,-0.024,137.542,-4.107,2.458
1.710,0.072,0.681,-0.046,137.191,-3.511,2.931
1.710,0.057,0.691,-0.060,137.008,-3.511,3.374
1.710,0.063,0.682,-0.064,137.160,-3.191,3.389
1.720,0.072,0.686,-0.083,136.794,-1.985,3.420
1.720,0.066,0.682,-0.100,136.473,-2.382,2.931
1.730,0.055,0.688,-0.119,135.206,-4.366,3.450
1.730,0.051,0.694,-0.120,134.351,-5.344,3.634
1.740,0.052,0.701,-0.145,134.122,-6.351,3.527
1.740,0.058,0.706,-0.149,133.893,-7.618,3.145
1.740,0.060,0.716,-0.168,132.931,-7.221,2.885
1.750,0.075,0.728,-0.195,131.374,-4.855,2.916
1.750,0.065,0.740,-0.208,129.527,-4.718,2.977
1.760,0.047,0.740,-0.204,128.656,-5.466,2.733
1.760,0.061,0.746,-0.227,127.985,-4.031,2.687
1.760,0.059,0.748,-0.251,126.992,-2.687,2.641
1.770,0.042,0.756,-0.272,124.916,-2.840,2.473
1.770,0.029,0.770,-0.276,122.092,-3.313,2.702
1.780,0.026,0.766,-0.259,120.137,-4.092,3.221
1.780,0.018,0.757,-0.245,118.992,-5.053,3.634
1.780,0.023,0.746,-0.234,117.924,-5.588,4.260
1.790,0.025,0.746,-0.230,116.992,-5.389,4.443
1.790,0.025,0.749,-0.239,117.023,-6.000,4.763
1.800,0.031,0.739,-0.233,117.802,-7.053,4.626
1.800,0.024,0.739,-0.260,117.924,-8.000,4.733
1.800,0.023,0.750,-0.259,117.176,-9.069,4.565
1.810,0.024,0.759,-0.272,116.336,-10.321,4.382
1.810,0.027,0.765,-0.262,116.321,-11.863,4.687
1.820,0.030,0.771,-0.257,116.290,-12.809,4.733
1.820,0.036,0.777,-0.284,116.290,-13.191,4.977
1.830,0.038,0.779,-0.299,115.481,-13.664,4.748
1.830,0.037,0.802,-0.311,113.817,-14.244,4.962
1.830,0.049,0.813,-0.322,111.725,-13.542,4.977
1.840,0.055,0.817,-0.320,110.168,-11.176,4.870
1.840,0.066,0.829,-0.316,109.786,-8.748,5.466
1.850,0.059,0.822,-0.332,109.374,-6.733,5.389
1.850,0.053,0.825,-0.348,108.000,-4.992,5.527
1.850,0.062,0.841,-0.385,105.695,-3.084,5.664
1.860,0.064,0.854,-0.385,103.221,-1.374,6.275
1.860,0.055,0.847,-0.384,101.374,0.153,6.290
1.870,0.056,0.845,-0.389,99.985,1.069,6.489
1.870,0.066,0.850,-0.401,98.275,2.366,5.893
1.870,0.075,0.869,-0.433,94.046,3.740,5.450
1.880,0.069,0.880,-0.424,89.374,4.916,5.267
1.880,0.071,0.871,-0.422,86.351,5.176,4.718
1.890,0.079,0.870,-0.393,83.878,5.725,4.122
1.890,0.087,0.859,-0.382,82.046,7.374,3.588
1.890,0.094,0.864,-0.387,79.863,9.374,2.443
1.900,0.097,0.875,-0.376,77.176,11.496,1.084
1.900,0.098,0.871,-0.366,74.687,13.511,-0.519
1.910,0.092,0.871,-0.343,73.069,15.023,-1.618
1.910,0.076,0.873,-0.329,71.893,16.198,-2.427
1.910,0.061,0.862,-0.314,71.313,17.313,-2.916
1.920,0.043,0.860,-0.296,72.000,17.786,-2.885
1.920,0.040,0.847,-0.302,72.443,17.237,-2.840
1.930,0.028,0.841,-0.301,73.389,16.076,-2.718
1.930,0.037,0.835,-0.315,73.924,15.802,-2.015
1.930,0.036,0.826,-0.290,75.038,16.473,-1.023
1.940,0.025,0.804,-0.270,77.817,15.878,0.015
1.940,0.021,0.780,-0.249,81.679,13.649,0.702
1.950,0.028,0.763,-0.258,86.275,10.885,1.389
1.950,0.029,0.747,-0.268,90.534,8.855,2.107
1.950,0.043,0.740,-0.285,94.687,7.786,2.962
1.960,0.048,0.734,-0.312,100.214,8.244,3.863
1.960,0.049,0.733,-0.346,105.679,8.305,4.885
1.970,0.035,0.721,-0.372,111.679,7.863,6.183
1.970,0.038,0.739,-0.440,117.344,7.023,7.359
1.970,0.048,0.753,-0.528,121.435,7.496,8.336
1.980,0.064,0.769,-0.612,124.748,7.969,9.740
1.980,0.069,0.785,-0.680,127.282,8.260,11.649
1.990,0.083,0.788,-0.778,129.496,9.298,12.519
1.990,0.123,0.814,-0.858,130.153,11.847,13.649
1.990,0.129,0.826,-0.936,129.603,12.366,14.550
2.000,0.144,0.835,-1.016,128.763,12.198,15.115
2.000,0.137,0.861,-1.088,127.420,9.145,15.740
2.010,0.171,0.880,-1.177,124.550,7.282,16.351
2.010,0.205,0.910,-1.251,119.542,8.427,16.382
2.020,0.230,0.925,-1.330,113.099,10.870,16.244
2.020,0.241,0.949,-1.394,105.511,11.771,15.359
2.020,0.248,0.979,-1.441,95.328,11.527,14.260
2.030,0.261,0.991,-1.474,86.656,12.382,12.733
2.030,0.278,0.997,-1.505,76.122,13.542,10.443
2.040,0.283,1.003,-1.485,66.137,14.840,8.260
2.040,0.260,0.997,-1.498,55.985,13.847,6.107
2.040,0.241,1.003,-1.488,45.710,11.374,4.275
2.050,0.221,1.001,-1.480,34.962,8.809,2.550
2.050,0.216,0.997,-1.449,24.534,6.824,1.038
2.060,0.192,0.994,-1.402,13.985,4.168,-0.153
2.060,0.175,0.968,-1.348,5.863,0.351,-1.069
2.060,0.160,0.950,-1.297,-1.893,-3.618,-1.603
2.070,0.156,0.958,-1.274,-11.099,-7.130,-2.489
2.070,0.129,0.936,-1.236,-19.878,-11.954,-2.901
2.080,0.113,0.921,-1.158,-27.069,-16.198,-3.298
2.080,0.103,0.895,-1.071,-32.855,-17.740,-3.649
2.080,0.100,0.888,-1.009,-38.580,-18.443,-3.924
2.090,0.075,0.880,-0.975,-43.878,-20.031,-4.244
2.090,0.051,0.861,-0.919,-48.748,-22.565,-4.046
2.100,0.051,0.856,-0.840,-52.183,-23.328,-3.573
2.100,0.055,0.832,-0.773,-54.000,-21.802,-3.344
2.110,0.044,0.810,-0.714,-54.992,-20.794,-3.450
2.110,0.035,0.813,-0.673,-56.275,-20.870,-2.931
2.110,0.036,0.803,-0.615,-56.595,-19.939,-2.214
2.120,0.037,0.781,-0.575,-55.756,-17.664,-1.237
2.120,0.034,0.786,-0.518,-54.107,-14.885,0.260
2.130,0.035,0.778,-0.486,-51.954,-12.733,0.947
2.130,0.039,0.772,-0.468,-49.847,-10.076,1.557
2.140,0.045,0.774,-0.440,-47.359,-8.153,2.107
2.140,0.044,0.776,-0.417,-44.718,-5.863,2.305
2.140,0.046,0.777,-0.407,-41.863,-4.031,2.672
2.150,0.054,0.777,-0.405,-39.038,-2.336,3.191
2.150,0.053,0.782,-0.410,-36.351,-1.496,3.359
2.160,0.059,0.787,-0.429,-33.740,0.015,3.573
2.160,0.060,0.803,-0.446,-31.634,2.031,3.542
2.160,0.073,0.814,-0.474,-30.046,3.771,3.542
2.170,0.070,0.833,-0.504,-28.947,5.267,3.588
2.170,0.068,0.840,-0.538,-28.427,6.550,3.863
2.180,0.083,0.851,-0.568,-28.733,7.954,3.893
2.180,0.094,0.870,-0.602,-29.328,10.229,4.092
2.180,0.108,0.870,-0.621,-29.954,11.985,4.153
2.190,0.122,0.871,-0.637,-30.763,13.115,4.122
2.190,0.134,0.875,-0.643,-31.939,14.321,3.802
2.200,0.148,0.882,-0.649,-32.779,15.038,3.511
2.200,0.159,0.880,-0.662,-33.420,15.099,2.840
2.200,0.181,0.884,-0.659,-33.893,14.397,1.847
2.210,0.198,0.889,-0.672,-34.519,13.145,0.611
2.210,0.222,0.888,-0.678,-34.992,12.443,-0.962
2.220,0.223,0.900,-0.683,-35.359,11.557,-3.145
2.220,0.226,0.906,-0.703,-36.336,9.664,-5.176
2.220,0.221,0.909,-0.711,-37.389,8.000,-7.237
2.230,0.214,0.922,-0.741,-39.130,6.458,-9.374
2.230,0.196,0.932,-0.764,-41.405,3.664,-10.977
2.240,0.173,0.934,-0.775,-44.137,0.473,-12.702
2.240,0.168,0.941,-0.789,-46.656,-2.153,-13.969
2.250,0.161,0.941,-0.789,-49.603,-4.107,-15.023
2.250,0.145,0.942,-0.797,-53.115,-5.786,-16.061
2.250,0.135,0.932,-0.797,-56.153,-6.931,-16.992
2.260,0.133,0.943,-0.811,-59.786,-5.664,-18.107
2.260,0.151,0.925,-0.810,-63.527,-3.374,-20.351
2.270,0.141,0.929,-0.834,-68.076,-0.962,-22.015
2.270,0.116,0.932,-0.823,-72.519,0.214,-23.115
2.270,0.078,0.922,-0.806,-77.130,1.313,-23.496
2.280,0.073,0.915,-0.795,-81.450,3.771,-23.298
2.280,0.057,0.902,-0.780,-84.885,6.214,-22.947
2.290,0.023,0.891,-0.767,-88.321,7.450,-22.290
2.290,0.005,0.893,-0.765,-91.969,7.389,-21.389
2.300,-0.022,0.892,-0.761,-94.962,7.618,-20.076
2.300,-0.038,0.880,-0.730,-97.725,7.221,-18.473
2.300,-0.045,0.872,-0.717,-99.863,7.527,-16.519
2.310,-0.053,0.863,-0.699,-101.389,7.389,-14.519
2.310,-0.061,0.849,-0.676,-102.733,6.473,-12.779
2.320,-0.066,0.853,-0.670,-103.771,5.176,-10.611
2.320,-0.056,0.854,-0.646,-104.504,4.473,-8.061
2.330,-0.053,0.844,-0.642,-105.145,4.504,-5.450
2.330,-0.042,0.842,-0.628,-105.817,4.275,-3.252
2.330,-0.033,0.851,-0.634,-106.107,3.481,-1.221
2.340,-0.013,0.854,-0.637,-106.748,3.252,0.794
2.340,0.010,0.868,-0.645,-108.443,2.321,2.275
2.350,0.031,0.879,-0.663,-111.008,1.618,3.023
2.350,0.066,0.881,-0.661,-113.405,-0.534,2.779
2.360,0.093,0.875,-0.638,-115.466,-3.145,1.588
2.360,0.118,0.886,-0.638,-117.130,-3.924,0.519
2.360,0.129,0.898,-0.652,-120.305,-4.305,-0.260
2.370,0.138,0.906,-0.682,-125.115,-4.550,-1.023
2.370,0.141,0.910,-0.674,-129.542,-6.015,-2.046
2.380,0.153,0.918,-0.677,-134.122,-5.908,-3.206
2.380,0.174,0.917,-0.660,-139.252,-4.855,-4.305
2.380,0.171,0.898,-0.660,-144.275,-3.618,-6.031
2.390,0.167,0.883,-0.643,-148.718,-3.313,-7.603
2.390,0.169,0.866,-0.621,-152.489,-2.611,-8.916
2.400,0.168,0.853,-0.586,-156.092,-1.252,-9.618
2.400,0.170,0.839,-0.568,-158.718,0.931,-10.351
2.410,0.156,0.833,-0.554,-161.099,0.931,-11.359
2.410,0.152,0.822,-0.527,-163.267,-0.458,-12.153
2.410,0.148,0.824,-0.522,-165.679,-0.534,-13.206
2.420,0.137,0.816,-0.511,-167.618,-0.702,-14.092
2.420,0.133,0.803,-0.496,-169.756,-2.153,-14.748
2.430,0.131,0.793,-0.479,-171.527,-3.863,-15.328
2.430,0.137,0.790,-0.458,-173.649,-5.725,-15.679
2.440,0.131,0.789,-0.431,-175.282,-9.221,-15.954
2.440,0.130,0.778,-0.411,-177.115,-13.511,-16.718
2.440,0.139,0.774,-0.408,-178.947,-16.397,-17.344
2.450,0.156,0.778,-0.399,-181.099,-17.710,-17.649
2.450,0.154,0.773,-0.406,-183.756,-19.191,-18.137
2.460,0.162,0.782,-0.398,-187.557,-20.794,-18.733
2.460,0.168,0.782,-0.418,-192.534,-21.145,-19.695
2.470,0.178,0.785,-0.416,-197.924,-19.908,-20.351
2.470,0.160,0.777,-0.416,-204.290,-18.977,-21.450
2.480,0.143,0.765,-0.416,-211.099,-20.031,-22.641
2.480,0.134,0.755,-0.397,-217.191,-21.481,-24.122
2.480,0.126,0.731,-0.381,-223.282,-22.504,-25.969
2.490,0.107,0.708,-0.361,-228.748,-24.229,-27.618
2.490,0.090,0.679,-0.324,-233.756,-26.092,-29.282
2.500,0.078,0.655,-0.294,-237.252,-28.779,-30.947
2.500,0.055,0.625,-0.269,-238.595,-31.130,-31.588
2.510,0.048,0.595,-0.230,-240.519,-30.229,-31.099
2.510,0.035,0.575,-0.187,-240.443,-29.710,-29.695
2.520,0.015,0.540,-0.117,-238.076,-27.802,-27.466
2.520,0.020,0.519,-0.091,-234.794,-22.260,-24.443
2.520,-0.006,0.502,-0.013,-232.061,-18.962,-19.817
2.530,-0.009,0.482,0.023,-231.069,-15.176,-14.901
2.530,0.006,0.469,0.057,-228.702,-9.939,-10.198
2.540,0.017,0.457,0.105,-225.206,-5.160,-6.122
2.540,0.053,0.444,0.145,-221.893,0.198,-3.221
2.550,0.053,0.446,0.160,-219.450,1.328,-2.107
2.550,0.069,0.436,0.156,-216.885,0.702,-1.359
2.550,0.106,0.437,0.148,-216.427,0.947,-2.305
2.560,0.116,0.436,0.159,-216.519,-0.931,-4.336
2.560,0.122,0.441,0.183,-216.229,-4.458,-6.046
2.570,0.135,0.435,0.177,-216.885,-6.519,-7.939
2.570,0.153,0.432,0.175,-217.603,-7.511,-9.817
2.570,0.145,0.427,0.183,-218.305,-8.595,-11.634
2.580,0.138,0.410,0.185,-218.580,-8.427,-13.389
2.580,0.128,0.398,0.180,-219.420,-6.229,-14.947
2.590,0.103,0.394,0.155,-221.176,-3.634,-15.939
2.590,0.080,0.380,0.167,-223.328,-1.282,-16.412
2.600,0.052,0.366,0.176,-225.527,1.389,-16.809
2.600,0.038,0.357,0.198,-227.634,3.420,-17.664
2.600,0.021,0.319,0.231,-229.405,2.992,-18.397
2.610,-0.023,0.294,0.287,-228.626,0.198,-19.420
2.610,-0.045,0.280,0.345,-230.443,-2.641,-17.115
2.620,-0.087,0.250,0.397,-231.053,-7.420,-13.557
2.620,-0.086,0.220,0.462,-229.008,-9.267,-9.099
2.630,-0.056,0.201,0.497,-226.137,-10.153,-4.687
2.630,-0.023,0.186,0.559,-221.939,-11.985,-1.267
2.630,0.042,0.161,0.608,-217.008,-12.458,0.595
2.640,0.088,0.165,0.625,-212.794,-11.038,1.298
2.640,0.116,0.152,0.632,-209.176,-9.954,0.779
2.650,0.098,0.156,0.659,-205.176,-11.863,-0.427
2.650,0.100,0.140,0.692,-200.534,-15.969,-0.916
2.660,0.094,0.139,0.693,-197.069,-18.031,-1.756
2.660,0.109,0.132,0.704,-194.687,-19.557,-2.611
2.660,0.109,0.120,0.724,-192.198,-22.076,-3.084
2.670,0.122,0.121,0.760,-190.031,-21.695,-3.405
2.670,0.149,0.115,0.749,-187.206,-17.832,-3.771
2.680,0.166,0.125,0.740,-186.672,-11.374,-4.290
2.680,0.172,0.115,0.737,-186.214,-5.954,-5.496
2.690,0.172,0.114,0.725,-185.939,-1.282,-7.298
2.690,0.171,0.107,0.708,-186.473,3.313,-9.725
2.690,0.152,0.104,0.702,-188.519,5.725,-12.229
2.700,0.120,0.108,0.695,-190.748,5.557,-14.641
2.700,0.080,0.083,0.720,-192.290,3.863,-16.718
2.710,0.034,0.074,0.744,-193.481,0.550,-18.046
2.710,-0.007,0.063,0.767,-193.817,-4.824,-17.863
2.710,-0.031,0.057,0.806,-193.298,-9.344,-16.641
2.720,-0.037,0.046,0.839,-191.847,-12.962,-14.733
2.720,-0.012,0.044,0.847,-189.374,-15.237,-12.580
2.730,0.008,0.036,0.854,-186.534,-16.443,-11.084
2.730,0.005,0.024,0.867,-183.740,-17.450,-9.313
2.740,0.024,0.022,0.876,-180.519,-16.870,-6.931
2.740,0.045,0.003,0.901,-177.817,-15.328,-5.282
2.740,0.051,-0.004,0.913,-175.618,-13.160,-3.557
2.750,0.063,-0.033,0.963,-173.099,-10.779,-2.183
2.750,0.071,-0.045,1.010,-170.015,-8.458,-0.794
2.760,0.090,-0.076,1.053,-165.664,-4.382,-0.763
2.760,0.094,-0.093,1.086,-161.695,-1.145,-0.916
2.770,0.106,-0.086,1.082,-160.519,2.855,-1.496
2.770,0.119,-0.101,1.080,-158.824,6.244,-2.611
2.770,0.108,-0.106,1.120,-155.725,6.061,-4.885
2.780,0.116,-0.105,1.118,-152.733,5.466,-7.267
2.780,0.101,-0.097,1.114,-149.664,4.076,-9.817
2.790,0.080,-0.092,1.102,-147.191,0.656,-12.031
2.790,0.040,-0.091,1.090,-144.519,-4.763,-13.832
2.800,0.030,-0.086,1.098,-141.969,-10.550,-14.962
2.800,0.025,-0.085,1.102,-138.901,-14.611,-15.908
2.800,0.000,-0.085,1.105,-135.802,-17.969,-15.557
2.810,-0.013,-0.080,1.098,-132.565,-19.603,-14.031
2.810,-0.015,-0.074,1.086,-129.420,-18.809,-10.702
2.820,-0.021,-0.068,1.082,-126.840,-15.359,-9.130
2.820,-0.010,-0.065,1.078,-124.977,-10.901,-5.802
2.830,-0.002,-0.065,1.068,-123.847,-5.344,-3.053
2.830,0.009,-0.058,1.061,-123.618,-0.275,-0.382
2.840,0.019,-0.064,1.074,-123.099,3.969,1.389
2.840,0.035,-0.072,1.069,-123.008,6.779,2.321
2.840,0.051,-0.074,1.068,-123.557,8.931,2.687
2.850,0.049,-0.085,1.085,-123.206,8.702,2.366
2.850,0.067,-0.088,1.073,-121.649,7.466,1.817
2.860,0.040,-0.090,1.096,-118.870,2.534,1.282
2.860,0.058,-0.088,1.079,-117.206,0.458,0.244
2.860,0.093,-0.100,1.089,-114.565,-1.725,-1.542
2.870,0.094,-0.099,1.074,-110.427,-6.809,-3.893
2.870,0.093,-0.078,1.052,-108.107,-11.893,-5.863
2.880,0.090,-0.081,1.012,-106.840,-14.947,-6.885
2.880,0.084,-0.077,0.989,-105.603,-14.763,-7.252
2.890,0.074,-0.076,0.978,-104.672,-14.137,-7.450
2.890,0.072,-0.072,0.949,-104.901,-13.221,-6.672
2.890,0.051,-0.073,0.931,-106.382,-11.481,-6.153
2.900,0.058,-0.077,0.910,-109.023,-8.641,-5.298
2.900,0.066,-0.085,0.895,-112.550,-4.397,-5.298
2.910,0.040,-0.101,0.875,-116.580,-0.626,-4.794
2.910,0.021,-0.120,0.906,-121.008,2.840,-2.733
2.920,-0.002,-0.155,0.943,-123.985,5.954,0.076
2.920,-0.016,-0.197,1.012,-125.359,9.466,3.298
2.920,-0.059,-0.238,1.084,-124.595,9.023,5.802
2.930,-0.034,-0.262,1.106,-124.397,11.618,8.076
2.930,-0.048,-0.273,1.154,-124.580,10.565,10.397
2.940,-0.049,-0.315,1.220,-122.000,6.305,11.527
2.940,-0.030,-0.332,1.256,-117.420,1.908,12.550
2.940,-0.019,-0.335,1.271,-112.336,-3.344,12.153
2.950,0.017,-0.358,1.290,-107.725,-6.947,10.962
2.950,0.023,-0.366,1.305,-102.947,-12.336,9.740
2.960,0.044,-0.384,1.341,-98.076,-17.985,8.458
2.960,0.055,-0.380,1.353,-92.733,-20.748,7.191
2.970,0.062,-0.384,1.360,-87.344,-22.321,6.092
2.970,0.066,-0.376,1.364,-81.557,-23.008,4.840
2.970,0.078,-0.377,1.359,-76.260,-22.931,3.634
2.980,0.098,-0.366,1.339,-71.496,-21.527,2.580
2.980,0.102,-0.358,1.329,-67.588,-18.809,1.817
2.990,0.098,-0.346,1.308,-64.198,-15.771,1.481
2.990,0.096,-0.335,1.298,-61.221,-14.000,1.328
3.000,0.100,-0.324,1.276,-58.397,-12.092,0.611
3.000,0.100,-0.326,1.264,-56.061,-10.611,0.443
3.000,0.104,-0.310,1.245,-54.061,-8.611,0.198
3.010,0.106,-0.310,1.246,-51.847,-7.069,0.412
3.010,0.106,-0.299,1.240,-49.496,-5.893,0.229
3.020,0.115,-0.295,1.222,-47.282,-5.267,-0.198
3.020,0.113,-0.295,1.205,-44.580,-5.252,-0.824
3.020,0.111,-0.284,1.190,-41.878,-4.489,-1.420
3.030,0.114,-0.278,1.167,-39.313,-4.076,-2.076
3.030,0.099,-0.273,1.149,-37.313,-4.229,-2.321
3.040,0.097,-0.263,1.121,-35.557,-5.160,-2.443
3.040,0.096,-0.257,1.096,-34.183,-5.847,-2.305
3.050,0.112,-0.248,1.071,-33.511,-5.725,-2.153
3.050,0.123,-0.238,1.058,-33.115,-5.130,-2.641
3.050,0.134,-0.227,1.029,-33.221,-4.443,-3.008
3.060,0.157,-0.225,1.016,-33.618,-3.191,-3.389
3.060,0.162,-0.219,1.007,-34.092,-2.000,-4.137
3.070,0.160,-0.223,0.998,-34.427,-0.198,-4.840
3.070,0.156,-0.221,1.001,-35.115,0.733,-5.756
3.070,0.145,-0.232,1.012,-35.252,0.977,-6.443
3.080,0.146,-0.233,1.009,-42.626,-0.382,-7.252
3.080,0.458,-0.414,0.759,-24.244,26.641,-4.656
3.090,0.134,-0.202,1.085,-26.824,25.863,-2.382
3.090,0.129,-0.300,1.099,-30.092,25.847,-4.550
3.090,0.137,-0.314,1.079,-19.038,28.779,-2.412
3.100,0.067,-0.247,1.127,-18.198,24.198,-2.153
3.100,0.100,-0.371,1.267,18.733,22.290,-2.656
3.110,0.100,-0.135,1.217,-10.366,25.573,-5.099
3.110,0.149,-0.215,1.096,-15.069,44.534,0.046
3.120,0.096,-0.214,1.115,-19.466,47.298,2.916
3.120,0.062,-0.248,1.103,-22.183,43.832,2.901
3.120,0.038,-0.281,1.098,-16.183,38.458,1.221
3.130,0.021,-0.309,1.087,-5.985,31.145,-0.763
3.130,0.059,-0.203,1.042,-3.802,28.443,1.099
3.140,0.039,-0.238,1.030,-3.176,26.031,-0.855
3.140,0.040,-0.252,1.013,-8.397,25.053,-2.336
3.140,0.065,-0.250,1.009,-6.458,25.481,-1.038
3.150,0.047,-0.228,1.001,-8.168,24.626,-0.550
3.150,0.018,-0.237,0.998,-10.290,22.290,-1.206
3.160,0.017,-0.250,0.982,-9.145,19.847,-0.458
3.160,0.003,-0.255,1.011,-6.153,16.366,-1.160
3.160,-0.003,-0.260,1.021,-8.641,21.924,-3.435
3.170,-0.039,-0.269,1.034,-5.405,19.099,-0.794
3.170,0.031,-0.256,1.037,-3.954,28.260,-2.351
3.180,-0.002,-0.297,1.016,1.023,32.672,0.733
3.180,-0.071,-0.260,1.027,0.855,18.382,0.412
3.180,-0.092,-0.257,1.007,1.130,-0.748,-0.809
3.190,-0.002,-0.262,1.017,1.389,-7.603,-1.679
3.190,0.047,-0.239,1.028,1.359,-4.672,-1.527
3.200,0.056,-0.258,1.038,3.374,-1.176,-1.130
3.200,0.028,-0.251,1.020,4.015,-3.954,-1.542
3.210,0.031,-0.242,1.008,3.084,-4.290,-1.420
3.210,0.035,-0.254,1.002,3.420,-4.122,-1.313
3.210,0.049,-0.300,0.982,2.412,-4.183,-2.275
3.220,0.029,-0.250,0.962,5.542,-5.191,-2.153
3.220,0.038,-0.209,0.930,3.313,-6.763,-1.481
3.220,0.007,-0.228,0.928,3.557,-11.420,-2.779
3.230,0.023,-0.227,0.929,6.214,-12.305,-2.534
3.230,0.009,-0.207,0.917,5.130,-15.466,-3.557
3.240,0.017,-0.232,0.917,9.252,-15.908,-3.863
3.240,0.033,-0.215,0.898,10.305,-17.405,-3.740
3.250,0.028,-0.214,0.876,9.908,-18.870,-3.771
3.250,0.029,-0.205,0.881,7.435,-17.649,-3.069
3.250,0.021,-0.216,0.870,8.977,-18.260,-2.611
3.260,0.026,-0.206,0.851,9.008,-19.084,-2.366
3.260,0.044,-0.196,0.838,8.275,-17.405,-1.832
3.270,0.056,-0.188,0.823,6.382,-15.069,-1.145
3.270,0.058,-0.186,0.813,3.649,-12.351,-1.130
3.270,0.065,-0.201,0.818,3.282,-9.573,-0.916
3.280,0.048,-0.188,0.824,-0.290,-8.229,-0.794
3.280,0.060,-0.198,0.824,-0.809,-3.954,-0.122
3.290,0.041,-0.193,0.833,-2.550,-4.901,0.198
3.290,0.063,-0.202,0.855,-3.115,-4.260,0.168
3.290,0.056,-0.205,0.869,-2.763,-2.947,0.092
3.300,0.051,-0.214,0.884,-2.137,-3.939,-0.244
3.300,0.043,-0.222,0.883,-0.977,-5.313,-0.595
3.310,0.031,-0.222,0.887,-0.351,-8.305,-0.885
3.310,0.040,-0.213,0.878,-0.153,-10.534,-0.977
3.310,0.041,-0.218,0.881,0.748,-11.450,-1.099
3.320,0.037,-0.213,0.882,1.710,-13.176,-1.145
3.320,0.046,-0.226,0.877,4.290,-12.031,-0.916
3.330,0.044,-0.200,0.877,2.840,-11.725,-0.779
3.330,0.060,-0.211,0.874,2.336,-10.366,-0.962
3.330,0.071,-0.214,0.868,2.641,-8.748,-0.885
3.340,0.069,-0.210,0.865,2.840,-7.573,-0.794
3.340,0.064,-0.214,0.871,2.550,-6.748,-0.916
3.350,0.052,-0.203,0.867,0.885,-6.916,-1.099
3.350,0.064,-0.214,0.848,1.450,-4.565,-0.580
3.350,0.057,-0.209,0.859,0.412,-5.267,-0.443
3.360,0.058,-0.212,0.858,1.053,-3.725,0.183
3.360,0.042,-0.214,0.861,0.794,-3.466,0.504
3.370,0.045,-0.209,0.860,1.053,-3.481,0.947
3.370,0.049,-0.215,0.864,1.649,-2.183,1.008
3.370,0.059,-0.205,0.847,1.878,-1.695,0.824
3.380,0.055,-0.203,0.853,1.374,-2.168,0.687
3.380,0.063,-0.195,0.828,0.855,-0.565,0.870
3.390,0.058,-0.194,0.823,0.718,-0.137,1.206
3.390,0.059,-0.190,0.823,-0.458,-1.252,0.794
3.390,0.066,-0.193,0.825,-0.641,-0.947,0.870
3.400,0.069,-0.194,0.841,-0.779,-1.695,0.550
3.400,0.075,-0.199,0.837,-0.595,-0.824,0.305
3.410,0.067,-0.204,0.856,-0.580,-0.855,0.397
3.410,0.052,-0.199,0.877,-0.473,-2.046,0.397
3.410,0.043,-0.214,0.897,0.229,-3.954,0.443
3.420,0.049,-0.216,0.888,0.779,-4.519,0.366
3.420,0.058,-0.214,0.898,0.916,-4.687,0.458
3.430,0.052,-0.213,0.892,0.824,-5.282,0.412
3.430,0.062,-0.212,0.888,1.252,-5.603,0.565
3.430,0.059,-0.218,0.875,1.252,-6.229,0.534
3.440,0.066,-0.208,0.877,1.450,-5.710,0.458
3.440,0.072,-0.210,0.867,1.603,-4.702,0.412
3.450,0.065,-0.214,0.875,1.817,-4.260,0.336
3.450,0.069,-0.209,0.878,1.756,-3.618,0.458
3.450,0.069,-0.212,0.882,1.603,-2.733,0.687
3.460,0.059,-0.212,0.884,1.771,-1.786,0.611
3.460,0.058,-0.208,0.887,1.893,-1.496,0.656
3.460,0.052,-0.214,0.893,1.832,-2.275,0.901
3.470,0.049,-0.212,0.892,1.573,-2.794,1.053
3.470,0.052,-0.206,0.898,1.802,-2.183,1.115
3.480,0.049,-0.212,0.884,1.649,-2.244,1.405
3.480,0.051,-0.212,0.889,1.450,-2.534,1.466
3.480,0.054,-0.204,0.891,1.160,-3.099,1.542
3.490,0.039,-0.197,0.887,0.672,-4.076,1.679
3.490,0.056,-0.204,0.886,1.237,-3.847,1.725
3.500,0.047,-0.196,0.884,0.870,-4.809,1.481
3.500,0.057,-0.206,0.887,1.847,-4.061,1.908
3.500,0.051,-0.192,0.891,1.053,-4.550,2.046
3.510,0.056,-0.197,0.890,1.069,-5.008,2.000
3.510,0.062,-0.193,0.876,0.824,-5.527,1.847
3.520,0.067,-0.190,0.895,0.260,-5.618,1.725
3.520,0.075,-0.199,0.897,0.351,-4.885,1.740
3.520,0.075,-0.200,0.903,0.244,-4.611,1.695
3.530,0.076,-0.203,0.897,0.244,-4.641,1.603
3.530,0.084,-0.200,0.896,-0.015,-3.985,1.542
3.540,0.079,-0.205,0.893,-0.031,-2.504,1.481
3.540,0.080,-0.201,0.889,-0.351,-1.908,1.084
3.540,0.082,-0.199,0.891,-0.519,-2.412,1.008
3.550,0.063,-0.208,0.875,-0.611,-3.023,0.901
3.550,0.062,-0.206,0.876,-0.595,-3.527,0.656
3.560,0.058,-0.201,0.883,-0.153,-3.725,0.962
3.560,0.052,-0.202,0.879,-0.076,-4.824,1.008
3.560,0.053,-0.210,0.875,-0.305,-5.771,0.977
3.570,0.060,-0.194,0.875,-0.305,-6.153,1.069
3.570,0.070,-0.196,0.879,-0.534,-5.511,1.389
3.580,0.071,-0.198,0.872,-0.672,-4.626,1.557
3.580,0.071,-0.193,0.868,-0.718,-3.053,1.817
3.580,0.080,-0.199,0.877,-1.191,-1.893,2.046
3.590,0.082,-0.191,0.868,-1.863,-0.992,2.382
3.590,0.076,-0.195,0.867,-2.061,-0.412,2.504
3.600,0.089,-0.198,0.867,-2.229,0.290,2.626
3.600,0.080,-0.201,0.881,-2.504,0.198,2.550
3.600,0.082,-0.202,0.876,-2.412,0.565,2.397
3.610,0.083,-0.214,0.880,-2.626,0.412,2.290
3.610,0.078,-0.210,0.896,-1.313,-0.702,2.473
3.610,0.082,-0.228,0.893,0.168,-1.679,1.344
3.620,0.067,-0.226,0.900,1.603,-3.374,0.885
3.620,0.062,-0.219,0.906,1.786,-3.634,0.901
3.630,0.057,-0.217,0.896,2.244,-4.031,1.160
3.630,0.064,-0.212,0.886,1.542,-3.863,1.527
3.630,0.069,-0.222,0.889,2.473,-4.153,1.450
3.640,0.076,-0.207,0.879,2.733,-4.244,1.328
3.640,0.074,-0.206,0.884,3.084,-4.641,1.405
3.650,0.073,-0.201,0.877,2.656,-4.824,1.450
3.650,0.081,-0.197,0.877,2.092,-4.412,1.450
3.650,0.070,-0.201,0.879,1.939,-4.504,0.916
3.660,0.092,-0.197,0.869,1.237,-4.427,1.359
3.660,0.094,-0.192,0.881,1.160,-4.168,1.466
3.670,0.102,-0.196,0.881,1.405,-3.374,1.084
3.670,0.111,-0.191,0.872,0.947,-3.038,0.733
3.670,0.110,-0.193,0.887,2.183,-3.252,0.351
3.680,0.112,-0.190,0.885,1.618,-3.252,-0.107
3.680,0.099,-0.186,0.879,2.137,-2.565,-0.672
3.690,0.096,-0.181,0.874,1.863,-3.496,-0.687
3.690,0.090,-0.189,0.854,1.481,-4.595,-0.565
3.690,0.094,-0.178,0.861,1.420,-4.595,-0.626
3.700,0.094,-0.178,0.857,0.977,-4.015,-0.611
3.700,0.094,-0.180,0.850,0.305,-2.748,-0.458
3.710,0.080,-0.183,0.848,0.214,-2.809,-0.519
3.710,0.080,-0.186,0.848,-0.687,-4.229,-0.901
3.710,0.066,-0.184,0.854,-0.992,-4.443,-0.916
3.720,0.076,-0.186,0.859,-1.069,-4.656,-0.885
3.720,0.076,-0.185,0.854,-1.786,-4.198,-0.534
3.730,0.073,-0.185,0.855,-2.519,-3.832,-0.382
3.730,0.077,-0.183,0.853,-3.206,-3.115,-0.015
3.730,0.073,-0.194,0.857,-3.206,-2.733,0.214
3.740,0.087,-0.191,0.866,-3.084,-2.260,0.382
3.740,0.076,-0.195,0.864,-3.282,-2.534,0.473
3.750,0.083,-0.200,0.882,-3.267,-2.702,0.504
3.750,0.094,-0.203,0.900,-3.206,-1.939,0.534
3.750,0.092,-0.204,0.898,-3.038,-1.038,0.611
3.760,0.087,-0.212,0.906,-2.580,-1.206,0.504
3.760,0.083,-0.205,0.895,-2.198,-1.374,0.626
3.770,0.082,-0.212,0.902,-2.000,-1.725,0.504
3.770,0.088,-0.199,0.886,-1.740,-1.450,0.504
3.770,0.080,-0.201,0.878,-1.405,-0.580,0.672
3.780,0.087,-0.199,0.881,-1.038,-0.092,0.885
3.780,0.079,-0.202,0.887,-0.168,-0.031,1.145
3.790,0.073,-0.202,0.889,0.504,-0.748,1.237
3.790,0.084,-0.198,0.879,0.595,-0.733,0.718
3.790,0.088,-0.197,0.867,0.015,-0.443,0.763
3.800,0.071,-0.187,0.864,-1.023,-1.496,0.641
3.800,0.075,-0.191,0.866,-1.115,-2.656,0.794
3.810,0.081,-0.197,0.866,-1.023,-3.084,0.473
3.810,0.090,-0.191,0.880,-0.992,-2.870,0.656
3.810,0.090,-0.188,0.866,-1.298,-2.702,0.550
3.820,0.095,-0.189,0.879,-1.237,-2.336,0.672
3.820,0.102,-0.190,0.875,-1.221,-1.634,0.626
3.830,0.104,-0.187,0.880,-1.267,-0.962,0.687
3.830,0.111,-0.189,0.880,-1.450,0.061,0.763
3.830,0.121,-0.190,0.874,-1.527,0.901,0.519
3.840,0.125,-0.184,0.875,-1.893,1.740,0.244
3.840,0.119,-0.196,0.877,-1.374,2.153,-0.305
3.840,0.123,-0.186,0.871,-1.130,1.878,-1.008
3.850,0.130,-0.193,0.874,-0.504,2.397,-1.496
3.850,0.117,-0.187,0.873,-0.718,2.947,-2.076
3.860,0.110,-0.190,0.859,-0.656,4.198,-2.015
3.860,0.087,-0.186,0.851,-0.458,3.557,-2.107
3.860,0.084,-0.183,0.851,-0.244,3.344,-2.000
3.870,0.079,-0.187,0.856,-0.840,4.092,-1.786
3.870,0.071,-0.188,0.845,-1.435,4.214,-1.450
3.880,0.071,-0.190,0.853,-1.374,4.214,-1.313
3.880,0.066,-0.190,0.852,-1.313,3.542,-1.527
3.880,0.068,-0.191,0.854,-1.221,2.183,-1.634
3.890,0.066,-0.191,0.870,-1.511,0.809,-1.527
3.890,0.064,-0.194,0.865,-1.359,0.519,-1.389
3.900,0.070,-0.195,0.869,-1.435,0.473,-1.053
3.900,0.068,-0.191,0.863,-1.496,0.168,-0.794
3.900,0.083,-0.183,0.882,-1.481,0.962,-0.672
3.910,0.091,-0.189,0.876,-2.214,1.542,-0.412
3.910,0.104,-0.189,0.886,-2.427,3.389,-0.366
3.920,0.096,-0.187,0.882,-2.931,4.534,-0.458
3.920,0.092,-0.191,0.898,-3.176,4.840,-0.550
3.920,0.084,-0.198,0.905,-2.824,5.237,-0.412
3.930,0.083,-0.198,0.905,-2.641,3.893,-0.611
3.930,0.085,-0.203,0.896,-1.542,3.771,-0.534
3.940,0.078,-0.200,0.897,-1.710,2.626,-0.901
3.940,0.077,-0.201,0.914,-1.053,2.458,-1.099
3.940,0.074,-0.200,0.896,-1.130,2.229,-1.008
3.950,0.074,-0.200,0.895,-1.038,1.985,-0.947
3.950,0.067,-0.204,0.893,-1.099,1.313,-0.962
3.960,0.062,-0.199,0.881,-0.947,0.885,-0.718
3.960,0.067,-0.195,0.874,-1.282,0.550,-0.519
3.960,0.075,-0.197,0.878,-1.511,0.702,-0.504
3.970,0.079,-0.199,0.872,-1.908,1.344,-0.382
3.970,0.074,-0.200,0.879,-1.924,1.603,-0.366
3.980,0.079,-0.198,0.887,-2.153,1.466,-0.458
3.980,0.079,-0.196,0.884,-2.214,1.115,-0.611
3.980,0.072,-0.194,0.884,-2.305,1.145,-0.626
3.990,0.076,-0.189,0.891,-2.366,1.908,-0.565
3.990,0.077,-0.200,0.883,-1.908,2.290,-0.290
4.000,0.079,-0.192,0.872,-2.931,2.107,-0.641
4.000,0.078,-0.199,0.883,-2.809,2.947,-0.336
4.000,0.073,-0.197,0.873,-3.069,2.580,-0.321
4.010,0.073,-0.205,0.888,-2.626,2.489,-0.504
4.010,0.061,-0.203,0.887,-2.290,1.191,-0.366
4.020,0.062,-0.199,0.899,-1.267,0.473,-0.412
4.020,0.059,-0.208,0.895,-0.504,-0.962,-0.366
4.020,0.060,-0.214,0.895,1.298,-1.359,-0.061
4.030,0.052,-0.201,0.881,1.832,-3.099,-0.107
4.030,0.060,-0.198,0.885,1.069,-3.771,-0.198
4.040,0.067,-0.196,0.867,0.214,-4.275,-0.153
4.040,0.073,-0.188,0.864,-0.275,-3.878,-0.137
4.040,0.086,-0.193,0.858,-0.794,-3.740,-0.214
