Time,acce_x,acce_y,acce_z,gyro_x,gyro_y, gyro_z
0.000,0.047,-0.115,0.901,-0.687,1.160,-0.824
0.000,0.056,-0.111,0.897,-0.626,1.038,-1.023
0.010,0.061,-0.107,0.895,-0.489,1.008,-1.038
0.010,0.063,-0.102,0.897,-0.595,1.069,-0.870
0.010,0.057,-0.096,0.884,-0.656,1.466,-0.763
0.020,0.059,-0.101,0.893,-0.412,1.710,-0.641
0.020,0.054,-0.096,0.882,-0.366,2.183,-0.534
0.020,0.057,-0.102,0.878,-0.672,2.336,-0.702
0.030,0.059,-0.101,0.873,-0.855,2.260,-0.779
0.030,0.054,-0.104,0.876,-0.962,1.924,-1.405
0.030,0.055,-0.103,0.870,-1.328,0.702,-1.832
0.040,0.053,-0.106,0.878,-2.076,-0.672,-2.702
0.040,0.054,-0.105,0.883,-2.962,-2.031,-3.160
0.040,0.054,-0.110,0.908,-3.435,-2.489,-3.603
0.050,0.040,-0.104,0.901,-3.298,-2.504,-3.466
0.050,0.034,-0.112,0.925,-3.023,-2.244,-2.855
0.060,0.027,-0.114,0.906,-2.565,-1.557,-2.290
0.060,0.027,-0.113,0.912,-1.847,-1.191,-1.725
0.060,0.018,-0.111,0.902,-1.481,-0.824,-0.992
0.070,0.010,-0.105,0.896,-1.740,-1.267,-0.260
0.070,0.025,-0.111,0.902,-1.405,-2.168,0.015
0.080,0.031,-0.108,0.916,-1.344,-3.374,-0.198
0.080,0.041,-0.103,0.921,-1.237,-4.000,-0.336
0.080,0.056,-0.105,0.919,-1.038,-3.771,-0.763
0.090,0.058,-0.102,0.913,-0.718,-3.588,-1.176
0.090,0.062,-0.106,0.916,-0.473,-3.405,-1.450
0.100,0.046,-0.110,0.917,-0.443,-3.496,-1.344
0.100,0.048,-0.106,0.897,0.000,-3.328,-1.267
0.100,0.052,-0.102,0.899,0.260,-2.656,-1.206
0.110,0.037,-0.103,0.886,0.260,-1.939,-0.809
0.110,0.036,-0.102,0.885,0.214,-1.557,-0.137
0.120,0.038,-0.095,0.885,0.198,-0.977,0.137
0.120,0.040,-0.103,0.886,0.015,-0.351,0.534
0.120,0.038,-0.098,0.886,-0.595,0.351,1.145
0.130,0.038,-0.100,0.878,-0.550,1.008,1.405
0.130,0.033,-0.103,0.880,-0.992,1.557,1.893
0.140,0.028,-0.107,0.883,-0.779,2.336,2.290
0.140,0.036,-0.110,0.879,-0.992,3.084,2.626
0.140,0.033,-0.111,0.880,-1.374,2.901,2.687
0.150,0.041,-0.105,0.888,-0.947,3.145,2.809
0.150,0.047,-0.110,0.895,-0.855,3.206,2.595
0.160,0.042,-0.112,0.883,-0.565,3.130,2.351
0.160,0.046,-0.111,0.883,-0.244,3.206,2.198
0.160,0.049,-0.110,0.877,-0.046,2.809,2.000
0.170,0.038,-0.116,0.876,0.092,1.969,1.832
0.170,0.047,-0.111,0.881,-0.504,0.794,1.573
0.170,0.046,-0.113,0.869,-0.305,0.519,1.191
0.180,0.042,-0.109,0.881,0.031,0.626,0.977
0.180,0.035,-0.107,0.862,-0.641,0.076,1.084
0.190,0.034,-0.108,0.871,-1.710,-0.809,1.603
0.190,0.051,-0.109,0.875,-1.695,-1.313,1.053
0.190,0.051,-0.110,0.889,-1.954,-1.481,0.794
0.200,0.065,-0.102,0.879,-2.672,-1.542,0.550
0.200,0.057,-0.105,0.879,-2.641,-1.527,0.214
0.210,0.049,-0.111,0.873,-2.672,-1.603,-0.061
0.210,0.046,-0.108,0.873,-2.931,-2.595,-0.351
0.210,0.059,-0.110,0.887,-3.084,-2.885,-0.702
0.220,0.065,-0.114,0.887,-2.702,-2.321,-0.962
0.220,0.060,-0.111,0.889,-2.397,-1.588,-0.901
0.230,0.049,-0.113,0.896,-2.275,-1.038,-0.672
0.230,0.044,-0.116,0.896,-2.061,-0.840,-0.443
0.240,0.042,-0.118,0.892,-1.893,-0.718,-0.260
0.240,0.044,-0.123,0.889,-1.817,-0.473,-0.168
0.240,0.041,-0.119,0.892,-1.863,-0.290,0.260
0.250,0.045,-0.117,0.897,-1.588,-0.183,0.092
0.250,0.047,-0.116,0.894,-1.588,0.305,0.351
0.260,0.043,-0.117,0.887,-1.588,0.595,0.656
0.260,0.044,-0.120,0.895,-1.450,1.008,0.855
0.260,0.050,-0.119,0.899,-1.191,1.649,1.282
0.270,0.054,-0.117,0.893,-1.160,1.450,0.992
0.270,0.052,-0.118,0.896,-1.160,1.511,0.901
0.270,0.052,-0.119,0.888,-1.374,1.450,0.885
0.280,0.046,-0.111,0.890,-1.298,1.344,0.733
0.280,0.048,-0.116,0.883,-1.649,1.130,0.824
0.290,0.045,-0.114,0.895,-1.908,1.038,0.779
0.290,0.050,-0.115,0.880,-1.786,0.962,0.641
0.290,0.043,-0.116,0.890,-1.878,0.641,0.779
0.300,0.040,-0.115,0.895,-2.061,0.595,0.840
0.300,0.048,-0.117,0.897,-2.061,0.504,0.916
0.310,0.049,-0.124,0.896,-1.939,0.656,0.840
0.310,0.049,-0.124,0.900,-1.679,0.565,0.824
0.310,0.041,-0.124,0.905,-1.435,0.473,0.885
0.320,0.050,-0.122,0.897,-1.084,0.214,0.763
0.320,0.037,-0.124,0.902,-0.916,-0.229,0.840
0.330,0.044,-0.117,0.897,-1.053,-1.069,0.718
0.330,0.044,-0.123,0.900,-0.565,-1.496,0.550
0.330,0.049,-0.118,0.902,-0.427,-1.206,0.779
0.340,0.044,-0.120,0.886,-0.305,-0.519,1.298
0.340,0.050,-0.115,0.891,-0.641,-0.626,1.450
0.350,0.051,-0.111,0.877,-0.870,-0.672,1.405
0.350,0.062,-0.115,0.892,-1.038,-0.122,1.496
0.350,0.063,-0.110,0.883,-1.374,-0.534,1.267
0.360,0.065,-0.113,0.891,-1.863,-0.382,1.191
0.360,0.067,-0.115,0.878,-2.229,-0.458,0.641
0.370,0.075,-0.116,0.878,-2.427,0.092,0.656
0.370,0.074,-0.116,0.894,-2.427,0.183,0.214
0.370,0.074,-0.110,0.897,-2.580,-0.397,-0.427
0.380,0.068,-0.115,0.901,-2.580,-0.443,-0.779
0.380,0.064,-0.113,0.896,-2.580,-0.489,-1.008
0.390,0.059,-0.112,0.907,-2.137,0.092,-0.885
0.390,0.051,-0.119,0.903,-1.740,0.550,-0.809
0.390,0.053,-0.118,0.898,-1.542,0.580,-0.473
0.400,0.048,-0.115,0.900,-1.389,0.275,-0.275
0.400,0.043,-0.115,0.898,-1.145,0.611,0.031
0.410,0.048,-0.117,0.894,-1.221,1.008,0.305
0.410,0.046,-0.112,0.890,-0.870,1.038,0.641
0.410,0.045,-0.113,0.895,-1.023,0.809,0.870
0.420,0.051,-0.115,0.889,-1.206,1.008,1.160
0.420,0.041,-0.114,0.902,-0.840,1.450,1.435
0.420,0.040,-0.114,0.883,-0.931,1.786,1.664
0.430,0.041,-0.107,0.877,-1.237,1.237,1.817
0.430,0.052,-0.110,0.880,-1.496,0.702,1.664
0.440,0.061,-0.111,0.894,-1.557,0.275,1.481
0.440,0.055,-0.113,0.889,-1.588,0.229,1.359
0.440,0.061,-0.108,0.895,-1.450,0.458,1.145
0.450,0.064,-0.100,0.885,-1.008,0.366,0.855
0.450,0.061,-0.107,0.888,-1.389,0.107,0.641
0.460,0.060,-0.105,0.884,-1.817,-0.565,0.168
0.460,0.059,-0.105,0.892,-1.969,-0.947,0.000
0.460,0.066,-0.106,0.896,-1.802,-1.130,-0.427
0.470,0.062,-0.108,0.896,-1.908,-1.771,-0.763
0.470,0.060,-0.106,0.890,-2.290,-2.321,-0.916
0.480,0.057,-0.105,0.891,-2.626,-2.580,-0.992
0.480,0.066,-0.105,0.909,-2.305,-2.565,-1.298
0.480,0.060,-0.115,0.907,-1.847,-2.214,-1.176
0.490,0.054,-0.114,0.905,-1.145,-2.244,-1.420
0.490,0.056,-0.111,0.900,-1.634,-2.626,-1.206
0.500,0.058,-0.114,0.896,-1.786,-2.580,-1.557
0.500,0.052,-0.114,0.900,-1.099,-1.939,-1.420
0.500,0.050,-0.118,0.891,-1.237,-2.000,-1.008
0.510,0.048,-0.115,0.903,-1.008,-1.832,-0.718
0.510,0.048,-0.115,0.895,-0.718,-1.328,-0.198
0.520,0.059,-0.113,0.890,-0.702,-0.565,-0.015
0.520,0.052,-0.115,0.896,-0.672,0.214,0.046
0.530,0.056,-0.115,0.895,-0.565,0.565,0.153
0.530,0.054,-0.112,0.886,-0.550,0.443,-0.412
0.530,0.049,-0.107,0.877,-1.053,-0.748,-0.718
0.540,0.045,-0.103,0.884,-2.015,-2.626,-1.206
0.540,0.052,-0.108,0.893,-1.893,-2.840,-1.359
0.550,0.053,-0.107,0.909,-1.389,-1.893,-1.389
0.550,0.058,-0.110,0.900,-1.160,-1.832,-1.481
0.550,0.044,-0.111,0.898,-1.252,-2.214,-1.511
0.560,0.055,-0.110,0.890,-1.084,-2.321,-1.435
0.560,0.046,-0.116,0.899,-0.763,-2.092,-1.420
0.570,0.048,-0.124,0.898,-0.031,-1.695,-1.389
0.570,0.055,-0.111,0.899,0.107,-1.328,-0.824
0.570,0.056,-0.111,0.896,0.489,-0.550,-0.733
0.580,0.052,-0.113,0.890,0.611,0.076,-0.641
0.580,0.037,-0.112,0.879,0.229,-0.229,-0.412
0.590,0.032,-0.105,0.875,-0.183,-1.802,-0.290
0.590,0.050,-0.105,0.878,-0.656,-3.069,-0.702
0.590,0.065,-0.107,0.882,-1.405,-3.176,-1.267
0.600,0.071,-0.108,0.880,-1.557,-2.504,-1.481
0.600,0.075,-0.112,0.891,-1.252,-2.168,-1.786
0.610,0.067,-0.114,0.885,-1.053,-1.756,-1.878
0.610,0.073,-0.112,0.890,-0.794,-0.992,-1.679
0.610,0.074,-0.107,0.886,-0.687,1.038,-1.420
0.620,0.077,-0.114,0.894,-0.458,3.740,-1.191
0.620,0.072,-0.112,0.891,0.137,5.557,-0.473
0.630,0.052,-0.114,0.889,1.008,6.275,-0.244
0.630,0.040,-0.113,0.870,0.718,4.382,-0.412
0.630,0.044,-0.102,0.856,-0.947,2.214,-0.672
0.640,0.063,-0.100,0.865,-1.786,0.870,-0.962
0.640,0.083,-0.100,0.881,-1.908,0.702,-1.603
0.650,0.081,-0.116,0.888,-1.588,1.435,-1.985
0.650,0.085,-0.101,0.886,-1.313,1.634,-2.458
0.650,0.083,-0.104,0.874,-1.496,1.282,-2.916
0.660,0.086,-0.103,0.874,-1.817,0.519,-3.130
0.660,0.089,-0.104,0.868,-2.061,0.489,-3.191
0.670,0.103,-0.103,0.873,-1.939,1.160,-3.145
0.670,0.096,-0.103,0.876,-2.168,1.481,-3.359
0.670,0.106,-0.107,0.867,-2.168,2.321,-3.664
0.680,0.116,-0.107,0.871,-2.580,2.840,-4.107
0.680,0.114,-0.113,0.873,-3.084,3.389,-4.733
0.690,0.119,-0.110,0.875,-3.511,3.359,-4.977
0.690,0.110,-0.123,0.881,-3.771,3.389,-5.221
0.690,0.109,-0.117,0.879,-4.656,2.824,-5.405
0.700,0.123,-0.123,0.894,-5.435,2.641,-5.802
0.700,0.146,-0.131,0.898,-5.267,3.450,-5.878
0.710,0.152,-0.130,0.908,-5.237,4.061,-6.305
0.710,0.163,-0.134,0.918,-5.160,4.580,-6.534
0.710,0.183,-0.143,0.915,-4.519,5.511,-6.794
0.720,0.192,-0.140,0.926,-4.214,6.504,-6.977
0.720,0.210,-0.144,0.932,-3.847,7.786,-7.603
0.730,0.228,-0.142,0.939,-3.405,9.450,-7.985
0.730,0.243,-0.145,0.941,-3.038,9.664,-9.130
0.730,0.280,-0.149,0.942,-2.687,10.198,-10.916
0.740,0.293,-0.151,0.939,-2.244,10.443,-13.496
0.740,0.311,-0.149,0.934,-2.412,9.710,-16.489
0.750,0.323,-0.154,0.946,-2.046,8.931,-19.771
0.750,0.334,-0.160,0.959,-1.618,7.649,-23.359
0.750,0.337,-0.167,0.952,-0.687,6.763,-26.840
0.760,0.330,-0.159,0.946,0.092,5.954,-30.137
0.760,0.323,-0.161,0.941,0.733,4.153,-33.191
0.770,0.321,-0.166,0.938,0.962,2.000,-36.336
0.770,0.317,-0.168,0.939,1.588,0.443,-39.298
0.770,0.308,-0.167,0.920,2.000,-0.489,-41.695
0.780,0.303,-0.173,0.926,2.412,-1.023,-43.740
0.780,0.293,-0.176,0.924,2.595,-1.649,-45.695
0.790,0.284,-0.176,0.933,2.550,-2.122,-47.191
0.790,0.287,-0.179,0.921,2.656,-1.527,-48.519
0.790,0.274,-0.189,0.917,3.008,-1.008,-49.267
0.800,0.272,-0.183,0.916,3.344,-0.290,-50.290
0.800,0.270,-0.182,0.905,3.557,0.870,-50.962
0.810,0.275,-0.186,0.909,3.588,1.908,-51.786
0.810,0.271,-0.193,0.909,4.046,2.290,-52.977
0.810,0.275,-0.193,0.902,4.321,3.145,-53.954
0.820,0.275,-0.192,0.898,4.336,3.695,-54.870
0.820,0.272,-0.185,0.874,4.916,4.901,-55.878
0.830,0.267,-0.182,0.869,5.237,6.015,-56.947
0.830,0.272,-0.182,0.875,5.053,6.595,-57.695
0.830,0.275,-0.185,0.865,5.298,6.916,-58.962
0.840,0.278,-0.181,0.856,5.099,7.145,-60.015
0.840,0.278,-0.183,0.842,4.733,6.931,-61.679
0.850,0.279,-0.179,0.839,3.969,6.641,-63.267
0.850,0.278,-0.178,0.833,3.359,6.000,-64.794
0.850,0.290,-0.182,0.823,2.840,5.557,-66.397
0.860,0.297,-0.189,0.820,1.863,4.626,-68.046
0.860,0.300,-0.188,0.823,1.008,3.908,-69.893
0.870,0.300,-0.189,0.825,0.153,2.870,-71.649
0.870,0.320,-0.192,0.838,-1.130,2.565,-73.359
0.870,0.320,-0.190,0.826,-2.443,2.809,-75.313
0.880,0.339,-0.201,0.843,-2.779,3.557,-77.634
0.880,0.347,-0.197,0.839,-3.786,3.939,-80.153
0.890,0.356,-0.202,0.854,-4.458,4.626,-82.855
0.890,0.356,-0.206,0.846,-4.580,5.634,-85.267
0.900,0.353,-0.198,0.856,-5.053,6.290,-87.786
0.900,0.360,-0.204,0.865,-5.481,6.809,-89.893
0.900,0.364,-0.210,0.863,-5.756,8.458,-92.565
0.910,0.361,-0.211,0.866,-6.153,8.870,-95.099
0.910,0.347,-0.220,0.874,-6.107,9.069,-97.481
0.920,0.342,-0.225,0.873,-6.122,9.725,-99.618
0.920,0.322,-0.235,0.874,-5.863,9.924,-101.542
0.920,0.318,-0.239,0.885,-5.939,9.313,-103.450
0.930,0.304,-0.243,0.877,-5.099,8.702,-105.496
0.930,0.297,-0.260,0.879,-4.458,6.840,-107.695
0.940,0.285,-0.251,0.872,-3.939,6.153,-109.267
0.940,0.285,-0.259,0.871,-3.588,6.290,-110.580
0.940,0.269,-0.266,0.870,-3.221,6.489,-111.740
0.950,0.272,-0.272,0.857,-2.931,5.649,-113.221
0.950,0.268,-0.273,0.847,-3.206,4.748,-114.840
0.960,0.269,-0.277,0.840,-4.000,5.069,-116.229
0.960,0.266,-0.279,0.837,-4.168,5.924,-117.634
0.970,0.257,-0.284,0.844,-4.473,5.863,-119.267
0.970,0.242,-0.293,0.838,-4.977,5.267,-120.580
0.970,0.241,-0.297,0.829,-5.878,4.916,-122.076
0.980,0.234,-0.297,0.835,-6.733,4.763,-123.527
0.980,0.219,-0.294,0.813,-7.328,4.626,-124.977
0.990,0.220,-0.304,0.829,-8.473,3.389,-125.985
0.990,0.196,-0.309,0.839,-8.916,2.366,-126.565
0.990,0.197,-0.310,0.855,-8.733,2.015,-126.992
1.000,0.194,-0.313,0.857,-8.718,2.366,-126.962
1.000,0.205,-0.322,0.861,-9.160,3.679,-126.992
1.010,0.198,-0.328,0.865,-9.130,4.947,-126.916
1.010,0.205,-0.337,0.879,-9.008,6.626,-126.809
1.020,0.197,-0.337,0.889,-8.290,8.458,-126.885
1.020,0.199,-0.346,0.905,-7.557,10.489,-126.702
1.020,0.207,-0.358,0.908,-6.702,13.115,-126.580
1.030,0.201,-0.361,0.927,-5.649,15.679,-126.840
1.030,0.208,-0.360,0.929,-4.595,17.893,-127.328
1.040,0.204,-0.368,0.938,-3.298,19.695,-127.863
1.040,0.196,-0.360,0.932,-1.466,21.328,-128.779
1.050,0.190,-0.362,0.927,-0.458,21.893,-129.954
1.050,0.179,-0.360,0.915,0.107,21.008,-131.359
1.050,0.188,-0.356,0.908,0.626,20.000,-133.145
1.060,0.186,-0.353,0.910,1.313,18.702,-135.115
1.060,0.188,-0.354,0.908,1.664,16.626,-137.237
1.070,0.166,-0.345,0.901,1.649,14.412,-139.328
1.070,0.158,-0.343,0.888,1.298,12.702,-141.099
1.070,0.159,-0.341,0.882,0.580,11.863,-142.519
1.080,0.168,-0.344,0.881,0.565,11.328,-144.061
1.080,0.161,-0.338,0.894,0.534,11.145,-145.267
1.090,0.150,-0.331,0.893,-0.015,11.069,-146.321
1.090,0.142,-0.330,0.890,-0.672,11.878,-147.252
1.100,0.139,-0.326,0.888,-0.794,13.298,-148.183
1.100,0.121,-0.322,0.888,-0.229,14.580,-148.824
1.100,0.101,-0.316,0.883,-0.305,15.099,-148.718
1.110,0.094,-0.317,0.894,-0.412,16.489,-147.954
1.110,0.100,-0.323,0.895,-0.046,19.191,-147.359
1.120,0.105,-0.318,0.885,0.260,21.679,-147.038
1.120,0.103,-0.324,0.891,0.672,23.053,-146.626
1.130,0.098,-0.329,0.874,1.252,24.198,-146.336
1.130,0.084,-0.328,0.882,1.496,24.305,-146.366
1.130,0.094,-0.333,0.885,1.786,24.473,-146.611
1.140,0.090,-0.344,0.878,2.183,24.855,-147.267
1.140,0.086,-0.345,0.877,1.985,23.847,-148.244
1.150,0.073,-0.352,0.872,1.466,21.481,-149.664
1.150,0.071,-0.357,0.885,1.221,19.176,-151.053
1.150,0.061,-0.357,0.890,1.069,17.573,-152.565
1.160,0.046,-0.366,0.890,0.794,15.527,-154.061
1.160,0.029,-0.362,0.896,1.130,12.534,-155.328
1.170,0.013,-0.355,0.903,1.084,9.023,-156.031
1.170,0.006,-0.358,0.895,1.130,7.115,-156.611
1.170,0.007,-0.357,0.904,1.084,6.870,-156.366
1.180,0.000,-0.360,0.902,1.359,6.718,-156.443
1.180,-0.016,-0.349,0.909,1.695,6.519,-155.908
1.190,-0.023,-0.354,0.914,2.366,7.038,-155.603
1.190,-0.037,-0.350,0.900,2.824,8.366,-154.122
1.200,-0.038,-0.338,0.898,2.275,10.168,-152.595
1.200,-0.033,-0.340,0.897,1.496,12.611,-151.252
1.200,-0.031,-0.330,0.891,1.527,15.466,-149.588
1.210,-0.044,-0.326,0.899,1.634,18.305,-147.634
1.210,-0.059,-0.322,0.896,1.679,20.931,-145.588
1.220,-0.070,-0.319,0.895,1.863,23.267,-143.634
1.220,-0.077,-0.317,0.887,2.244,24.611,-141.847
1.230,-0.090,-0.320,0.885,3.527,25.603,-140.031
1.230,-0.111,-0.318,0.876,3.847,26.000,-137.573
1.230,-0.115,-0.309,0.865,4.366,26.977,-134.947
1.240,-0.125,-0.305,0.853,4.702,27.542,-132.397
1.240,-0.106,-0.304,0.846,4.611,28.168,-130.321
1.250,-0.098,-0.301,0.833,4.855,29.878,-128.168
1.250,-0.079,-0.302,0.806,3.237,34.290,-126.092
1.260,-0.024,-0.291,0.727,-2.046,46.947,-124.366
1.260,0.036,-0.263,0.656,-13.634,63.313,-120.763
1.260,-0.043,-0.315,0.713,-13.099,63.405,-120.321
1.270,-0.091,-0.331,0.884,-12.855,53.252,-119.679
1.270,-0.022,-0.331,0.865,-10.382,52.733,-119.863
1.280,0.013,-0.338,0.864,-7.954,54.489,-120.565
1.280,0.004,-0.330,0.834,-8.275,53.618,-121.389
1.290,-0.030,-0.323,0.817,-8.840,51.237,-122.168
1.290,-0.029,-0.333,0.834,-8.748,49.160,-122.931
1.290,-0.026,-0.323,0.842,-7.832,48.046,-124.626
1.300,-0.028,-0.327,0.858,-7.496,47.023,-126.382
1.300,-0.048,-0.325,0.860,-6.443,43.634,-128.443
1.310,-0.081,-0.324,0.883,-4.046,37.450,-130.244
1.310,-0.079,-0.319,0.905,-1.710,30.565,-132.473
1.320,-0.086,-0.311,0.901,1.466,24.260,-134.870
1.320,-0.102,-0.309,0.895,3.969,18.916,-136.626
1.320,-0.107,-0.300,0.869,5.053,14.076,-137.863
1.330,-0.126,-0.310,0.876,6.015,10.321,-138.336
1.330,-0.122,-0.302,0.880,7.237,8.885,-138.305
1.340,-0.135,-0.299,0.877,8.198,7.939,-137.649
1.340,-0.135,-0.292,0.874,8.290,7.527,-137.023
1.350,-0.148,-0.296,0.871,8.534,7.481,-136.061
1.350,-0.143,-0.293,0.881,8.656,7.435,-134.580
1.350,-0.142,-0.290,0.871,8.412,8.595,-132.870
1.360,-0.127,-0.290,0.885,8.901,10.687,-131.084
1.360,-0.126,-0.287,0.889,9.466,13.832,-129.176
1.370,-0.127,-0.287,0.875,9.771,16.901,-127.191
1.370,-0.119,-0.277,0.879,9.878,20.885,-125.740
1.380,-0.120,-0.273,0.867,10.015,24.489,-124.275
1.380,-0.122,-0.270,0.872,9.969,27.130,-123.130
1.380,-0.128,-0.269,0.866,10.321,29.374,-122.565
1.390,-0.148,-0.270,0.852,10.763,30.992,-121.924
1.390,-0.153,-0.264,0.855,10.214,30.748,-121.954
1.400,-0.162,-0.265,0.857,9.878,29.252,-122.794
1.400,-0.165,-0.271,0.846,10.229,26.763,-124.031
1.410,-0.189,-0.265,0.855,10.153,22.183,-125.008
1.410,-0.201,-0.260,0.839,9.405,17.588,-126.443
1.410,-0.214,-0.257,0.832,8.672,12.733,-127.374
1.420,-0.227,-0.256,0.843,7.878,7.985,-128.275
1.420,-0.236,-0.253,0.849,7.389,3.924,-128.595
1.430,-0.251,-0.244,0.866,7.099,0.412,-128.351
1.430,-0.265,-0.240,0.863,7.344,-2.214,-126.748
1.430,-0.274,-0.240,0.868,7.008,-3.786,-124.656
1.440,-0.260,-0.233,0.866,6.626,-3.008,-122.321
1.440,-0.259,-0.223,0.872,6.443,-1.053,-119.588
1.450,-0.259,-0.217,0.874,6.076,1.298,-116.489
1.450,-0.254,-0.206,0.879,5.817,4.550,-113.023
1.460,-0.253,-0.195,0.879,5.603,8.031,-109.389
1.460,-0.239,-0.191,0.883,5.557,12.718,-105.802
1.460,-0.237,-0.188,0.880,5.389,17.328,-102.412
1.470,-0.224,-0.188,0.880,5.221,21.344,-99.298
1.470,-0.211,-0.192,0.875,5.328,24.198,-97.145
1.480,-0.204,-0.184,0.875,5.344,25.893,-95.557
1.480,-0.199,-0.182,0.873,5.145,27.450,-94.076
1.490,-0.204,-0.182,0.871,5.359,28.595,-93.176
1.490,-0.212,-0.176,0.860,5.664,27.954,-92.168
1.490,-0.219,-0.182,0.856,5.740,25.924,-91.664
1.500,-0.215,-0.186,0.843,5.542,22.534,-92.214
1.500,-0.204,-0.188,0.842,5.267,18.183,-93.450
1.510,-0.218,-0.201,0.839,5.130,13.557,-94.855
1.510,-0.220,-0.199,0.850,4.351,7.893,-95.893
1.510,-0.233,-0.204,0.875,3.664,2.473,-96.840
1.520,-0.241,-0.213,0.885,3.893,-1.221,-96.931
1.520,-0.256,-0.216,0.903,4.397,-4.351,-96.290
1.530,-0.264,-0.219,0.906,5.359,-7.008,-95.145
1.530,-0.263,-0.219,0.903,6.107,-8.870,-93.618
1.540,-0.260,-0.220,0.896,6.198,-8.840,-91.573
1.540,-0.253,-0.209,0.892,6.458,-7.176,-89.160
1.540,-0.257,-0.207,0.904,7.084,-4.748,-86.351
1.550,-0.269,-0.206,0.906,8.000,-1.328,-83.053
1.550,-0.267,-0.198,0.909,8.611,2.443,-79.588
1.560,-0.269,-0.185,0.879,8.656,6.031,-76.290
1.560,-0.266,-0.184,0.867,8.336,8.550,-73.542
1.560,-0.266,-0.171,0.849,7.939,10.550,-70.916
1.570,-0.271,-0.168,0.833,7.099,12.061,-68.214
1.570,-0.279,-0.169,0.808,6.519,14.031,-65.710
1.580,-0.303,-0.170,0.797,6.092,14.870,-62.977
1.580,-0.325,-0.152,0.761,4.046,13.740,-60.504
1.580,-0.344,-0.150,0.731,1.710,12.489,-58.122
1.590,-0.359,-0.151,0.715,-0.382,10.504,-55.206
1.590,-0.390,-0.149,0.698,-3.344,7.802,-51.695
1.600,-0.413,-0.150,0.694,-6.321,5.588,-47.786
1.600,-0.422,-0.143,0.693,-9.420,3.924,-42.672
1.610,-0.413,-0.144,0.683,-12.870,3.481,-37.359
1.610,-0.375,-0.152,0.708,-16.611,4.931,-32.336
1.610,-0.338,-0.153,0.727,-19.435,8.366,-27.969
1.620,-0.297,-0.164,0.760,-21.389,12.718,-24.046
1.620,-0.262,-0.170,0.783,-23.008,17.878,-21.038
1.630,-0.208,-0.184,0.834,-24.244,22.336,-19.511
1.630,-0.189,-0.189,0.862,-24.244,26.641,-18.748
1.640,-0.161,-0.198,0.889,-23.679,30.412,-18.931
1.640,-0.144,-0.201,0.900,-23.038,33.481,-20.122
1.640,-0.151,-0.194,0.900,-21.649,33.603,-21.603
1.650,-0.143,-0.201,0.918,-20.916,31.695,-23.405
1.650,-0.135,-0.202,0.929,-19.756,28.763,-25.649
1.660,-0.125,-0.207,0.955,-17.496,24.611,-28.626
1.660,-0.128,-0.202,0.964,-14.992,19.649,-31.313
1.670,-0.124,-0.188,0.971,-13.847,15.618,-33.786
1.670,-0.123,-0.187,0.985,-11.847,13.863,-35.817
1.670,-0.127,-0.187,0.986,-9.817,12.641,-37.130
1.680,-0.135,-0.171,1.000,-7.542,11.206,-38.290
1.680,-0.136,-0.167,1.008,-5.252,10.412,-39.924
1.690,-0.137,-0.163,1.000,-3.053,10.779,-41.099
1.690,-0.147,-0.148,0.994,-0.962,11.954,-42.321
1.700,-0.158,-0.141,0.994,1.115,12.061,-43.282
1.700,-0.177,-0.131,0.989,3.435,12.504,-43.817
1.700,-0.203,-0.124,0.975,5.573,12.595,-43.817
1.710,-0.227,-0.111,0.948,7.023,12.321,-43.328
1.710,-0.239,-0.108,0.937,8.763,11.481,-42.626
1.720,-0.270,-0.103,0.920,10.824,9.405,-41.679
1.720,-0.305,-0.101,0.866,11.802,5.618,-40.351
1.730,-0.338,-0.082,0.792,10.153,1.573,-38.443
1.730,-0.341,-0.075,0.768,6.931,-0.885,-36.443
1.730,-0.333,-0.068,0.740,4.061,-2.031,-34.275
1.740,-0.339,-0.069,0.758,1.160,-3.771,-32.000
1.740,-0.345,-0.082,0.777,-0.916,-5.023,-29.725
1.750,-0.336,-0.073,0.799,-3.191,-5.786,-27.985
1.750,-0.336,-0.082,0.799,-4.718,-5.725,-25.893
1.750,-0.338,-0.077,0.820,-6.412,-4.947,-23.679
1.760,-0.349,-0.087,0.808,-7.603,-4.458,-20.809
1.760,-0.344,-0.087,0.832,-8.153,-4.000,-17.573
1.770,-0.337,-0.098,0.859,-8.336,-2.672,-14.611
1.770,-0.338,-0.099,0.864,-7.588,-0.840,-11.588
1.780,-0.337,-0.104,0.871,-7.450,-0.137,-8.321
1.780,-0.331,-0.109,0.883,-7.145,0.595,-5.542
1.780,-0.302,-0.113,0.881,-5.863,1.405,-3.099
1.790,-0.292,-0.110,0.897,-5.481,1.679,-0.565
1.790,-0.278,-0.120,0.898,-5.313,1.374,1.237
1.800,-0.256,-0.126,0.907,-4.763,2.366,2.427
1.800,-0.240,-0.125,0.908,-3.298,3.511,3.679
1.800,-0.230,-0.136,0.923,-1.847,3.771,4.321
1.810,-0.221,-0.138,0.924,-0.626,3.282,5.008
1.810,-0.215,-0.139,0.918,0.733,2.107,5.206
1.820,-0.202,-0.140,0.917,1.908,0.962,5.252
1.820,-0.196,-0.144,0.908,2.534,0.412,5.298
1.820,-0.190,-0.146,0.890,3.450,-0.870,5.313
1.830,-0.193,-0.151,0.882,3.893,-2.534,5.588
1.830,-0.185,-0.148,0.870,3.649,-4.763,5.817
1.840,-0.177,-0.147,0.858,3.359,-5.481,6.321
1.840,-0.179,-0.154,0.841,3.588,-6.321,7.130
1.840,-0.173,-0.146,0.839,2.382,-7.573,8.183
1.850,-0.148,-0.148,0.836,0.595,-8.321,8.992
1.850,-0.108,-0.152,0.854,0.015,-7.191,9.206
1.860,-0.095,-0.148,0.854,-0.305,-5.969,9.527
1.860,-0.095,-0.148,0.854,-0.779,-4.672,9.695
1.860,-0.105,-0.152,0.834,-1.496,-4.153,10.229
1.870,-0.099,-0.131,0.843,-2.336,-4.321,11.145
1.870,-0.092,-0.134,0.837,-3.008,-3.939,11.786
1.880,-0.077,-0.130,0.861,-3.298,-2.580,12.672
1.880,-0.076,-0.132,0.867,-2.992,-1.084,13.786
1.890,-0.071,-0.133,0.866,-2.672,-0.489,14.824
1.890,-0.061,-0.132,0.871,-2.305,0.519,15.466
1.890,-0.041,-0.126,0.853,-1.908,1.328,15.847
1.900,-0.005,-0.127,0.857,-2.748,1.450,15.435
1.900,0.011,-0.129,0.875,-2.504,2.489,14.336
1.910,0.027,-0.125,0.889,-1.298,2.992,13.069
1.910,0.029,-0.124,0.877,-0.611,3.160,11.466
1.910,0.018,-0.127,0.868,-0.412,1.695,9.496
1.920,0.014,-0.123,0.857,-0.061,-0.748,7.817
1.920,0.001,-0.125,0.844,-0.321,-3.969,5.756
1.930,-0.017,-0.119,0.856,-0.626,-6.687,4.168
1.930,-0.025,-0.125,0.832,-0.580,-8.779,3.221
1.930,-0.039,-0.129,0.823,-0.916,-11.649,2.305
1.940,-0.053,-0.127,0.820,-1.908,-14.092,1.649
1.940,-0.064,-0.123,0.794,-3.008,-15.145,1.115
1.950,-0.076,-0.128,0.799,-4.397,-15.863,0.947
1.950,-0.086,-0.122,0.803,-5.649,-17.084,0.931
1.950,-0.113,-0.136,0.803,-6.443,-18.092,1.618
1.960,-0.130,-0.134,0.820,-7.344,-17.832,3.008
1.960,-0.141,-0.139,0.827,-8.046,-16.992,4.916
1.970,-0.141,-0.136,0.827,-8.977,-16.550,6.382
1.970,-0.135,-0.137,0.831,-9.939,-15.389,7.664
1.980,-0.135,-0.141,0.844,-10.534,-13.496,9.115
1.980,-0.147,-0.141,0.845,-10.489,-11.756,10.290
1.980,-0.158,-0.142,0.837,-11.115,-11.237,11.298
1.990,-0.172,-0.136,0.849,-11.038,-10.962,12.015
1.990,-0.186,-0.141,0.844,-10.885,-10.458,13.191
2.000,-0.208,-0.141,0.857,-10.916,-10.611,14.366
2.000,-0.220,-0.138,0.856,-10.153,-10.244,16.015
2.010,-0.233,-0.151,0.859,-9.435,-10.931,17.511
2.010,-0.240,-0.144,0.845,-9.374,-10.931,19.176
2.010,-0.243,-0.144,0.839,-9.389,-10.382,20.580
2.020,-0.253,-0.143,0.838,-9.466,-10.015,22.275
2.020,-0.268,-0.143,0.839,-9.771,-9.160,23.863
2.030,-0.273,-0.142,0.839,-10.031,-7.603,25.405
2.030,-0.291,-0.149,0.842,-10.305,-6.718,26.611
2.040,-0.296,-0.155,0.853,-10.229,-5.939,27.985
2.040,-0.311,-0.151,0.847,-9.832,-4.962,29.206
2.040,-0.333,-0.157,0.850,-9.328,-4.031,31.298
2.050,-0.349,-0.159,0.843,-9.176,-3.847,33.832
2.050,-0.373,-0.167,0.834,-8.626,-3.893,37.053
2.060,-0.374,-0.171,0.828,-8.519,-3.924,40.672
2.060,-0.376,-0.173,0.831,-9.237,-3.832,44.427
2.060,-0.352,-0.181,0.832,-9.328,-2.519,47.924
2.070,-0.322,-0.188,0.841,-9.359,-1.130,50.885
2.070,-0.299,-0.178,0.838,-9.557,1.053,53.618
2.080,-0.274,-0.186,0.822,-10.198,2.565,55.679
2.080,-0.251,-0.177,0.816,-11.145,3.679,57.511
2.090,-0.234,-0.183,0.820,-12.305,4.611,58.794
2.090,-0.212,-0.177,0.820,-12.992,6.275,60.137
2.090,-0.186,-0.179,0.826,-13.740,7.313,60.977
2.100,-0.170,-0.173,0.837,-14.779,6.992,61.115
2.100,-0.163,-0.176,0.835,-15.450,5.786,60.443
2.110,-0.153,-0.175,0.831,-15.634,3.450,59.435
2.110,-0.155,-0.165,0.823,-16.198,0.580,58.443
2.110,-0.153,-0.169,0.828,-16.626,-2.061,57.359
2.120,-0.165,-0.158,0.825,-16.901,-4.656,56.092
2.120,-0.179,-0.153,0.821,-17.145,-8.214,54.870
2.130,-0.197,-0.151,0.807,-17.221,-12.473,53.893
2.130,-0.202,-0.148,0.822,-17.328,-17.389,52.366
2.140,-0.201,-0.148,0.818,-17.023,-21.695,50.840
2.140,-0.216,-0.145,0.807,-17.038,-25.206,49.786
2.140,-0.237,-0.148,0.812,-17.008,-26.901,49.817
2.150,-0.258,-0.148,0.802,-17.420,-28.092,50.336
2.150,-0.260,-0.160,0.795,-17.664,-28.855,51.405
2.160,-0.261,-0.155,0.802,-17.878,-27.573,52.962
2.160,-0.275,-0.164,0.804,-17.954,-25.374,54.962
2.170,-0.293,-0.173,0.799,-18.015,-23.206,57.511
2.170,-0.303,-0.172,0.803,-18.336,-21.298,60.672
2.170,-0.311,-0.181,0.800,-19.191,-19.298,64.595
2.180,-0.300,-0.186,0.808,-19.771,-16.656,68.046
2.180,-0.295,-0.195,0.806,-19.924,-13.740,71.664
2.190,-0.278,-0.197,0.825,-20.580,-11.939,74.580
2.190,-0.261,-0.205,0.826,-20.656,-9.191,76.977
2.200,-0.247,-0.214,0.844,-20.641,-6.565,79.282
2.200,-0.244,-0.214,0.839,-20.244,-4.000,81.817
2.200,-0.236,-0.224,0.855,-19.939,-1.313,84.076
2.210,-0.227,-0.221,0.851,-19.649,0.641,85.985
2.210,-0.211,-0.224,0.846,-19.084,2.244,87.374
2.220,-0.193,-0.233,0.846,-19.267,3.282,87.847
2.220,-0.178,-0.231,0.841,-19.069,3.389,87.191
2.230,-0.166,-0.240,0.842,-19.557,2.427,85.969
2.230,-0.156,-0.237,0.849,-19.664,1.023,84.046
2.230,-0.134,-0.239,0.847,-20.092,-1.282,81.374
2.240,-0.135,-0.242,0.848,-20.595,-2.992,79.053
2.240,-0.152,-0.238,0.852,-21.221,-4.718,76.870
2.250,-0.165,-0.249,0.852,-20.550,-5.634,74.779
2.250,-0.178,-0.252,0.856,-20.092,-8.305,72.947
2.260,-0.184,-0.267,0.871,-20.122,-11.328,71.023
2.260,-0.195,-0.263,0.853,-20.702,-11.084,69.466
2.260,-0.200,-0.256,0.842,-23.802,-7.573,70.275
2.270,-0.243,-0.262,0.851,-23.527,-7.573,71.527
2.270,-0.292,-0.284,0.894,-22.092,-11.939,72.870
2.280,-0.312,-0.280,0.899,-20.427,-14.947,75.511
2.280,-0.310,-0.283,0.885,-19.786,-15.160,78.718
2.290,-0.317,-0.288,0.895,-18.916,-15.267,81.802
2.290,-0.325,-0.295,0.876,-18.702,-14.748,86.382
2.290,-0.317,-0.295,0.890,-18.763,-13.053,90.809
2.300,-0.303,-0.298,0.897,-18.351,-10.366,95.115
2.300,-0.295,-0.309,0.902,-17.573,-7.847,98.702
2.310,-0.292,-0.312,0.911,-17.267,-5.954,101.695
2.310,-0.278,-0.320,0.922,-16.473,-4.382,104.137
2.320,-0.271,-0.328,0.919,-15.374,-4.046,105.985
2.320,-0.273,-0.331,0.926,-14.061,-4.855,107.649
2.320,-0.274,-0.333,0.915,-12.366,-6.244,108.962
2.330,-0.280,-0.342,0.915,-10.916,-8.397,110.076
2.330,-0.279,-0.346,0.915,-9.145,-11.710,110.382
2.340,-0.272,-0.344,0.923,-8.947,-16.534,110.885
2.340,-0.272,-0.343,0.918,-9.618,-19.771,111.710
2.350,-0.285,-0.345,0.904,-9.206,-22.550,112.626
2.350,-0.292,-0.349,0.910,-8.672,-26.855,113.237
2.350,-0.299,-0.351,0.917,-7.282,-30.397,113.802
2.360,-0.307,-0.356,0.910,-5.710,-32.198,114.870
2.360,-0.311,-0.358,0.891,-4.153,-33.221,116.137
2.370,-0.336,-0.359,0.872,-3.053,-34.519,118.015
2.370,-0.355,-0.361,0.871,-2.015,-35.924,120.702
2.380,-0.354,-0.362,0.865,-1.084,-36.031,123.649
2.380,-0.359,-0.362,0.850,-0.702,-35.954,126.931
2.390,-0.359,-0.361,0.828,-1.389,-36.122,130.092
2.390,-0.356,-0.365,0.836,-2.122,-36.336,133.374
2.390,-0.359,-0.381,0.839,-2.855,-36.351,136.458
2.400,-0.354,-0.384,0.827,-3.557,-36.107,139.649
2.400,-0.345,-0.397,0.826,-3.969,-35.878,143.145
2.410,-0.352,-0.408,0.835,-4.687,-35.389,146.687
2.410,-0.333,-0.416,0.842,-4.351,-34.718,150.061
2.420,-0.301,-0.421,0.857,-4.870,-34.550,152.901
2.420,-0.278,-0.427,0.873,-4.656,-34.534,155.099
2.420,-0.254,-0.431,0.885,-3.969,-34.031,156.840
2.430,-0.241,-0.435,0.886,-3.527,-33.206,158.412
2.430,-0.234,-0.439,0.889,-3.115,-32.031,160.061
2.440,-0.228,-0.446,0.896,-2.458,-32.611,161.756
2.440,-0.221,-0.445,0.891,-1.649,-33.237,163.420
2.450,-0.200,-0.447,0.897,-0.595,-33.221,164.809
2.450,-0.200,-0.451,0.879,0.565,-32.718,166.076
2.450,-0.190,-0.460,0.875,0.992,-33.817,166.718
2.460,-0.183,-0.459,0.887,1.298,-34.183,167.252
2.460,-0.175,-0.469,0.893,2.229,-34.046,167.817
2.470,-0.182,-0.471,0.884,3.130,-33.511,169.084
2.470,-0.183,-0.476,0.882,3.740,-33.084,170.321
2.480,-0.179,-0.472,0.879,4.092,-33.359,171.466
2.480,-0.180,-0.482,0.866,4.168,-33.649,172.443
2.480,-0.183,-0.493,0.868,4.458,-33.802,174.565
2.490,-0.168,-0.501,0.875,4.718,-32.672,177.237
2.490,-0.155,-0.500,0.871,4.687,-31.206,180.244
2.500,-0.113,-0.502,0.865,3.939,-29.191,182.687
2.500,-0.064,-0.499,0.868,2.931,-27.344,184.092
2.510,-0.022,-0.496,0.862,1.924,-24.687,184.229
2.510,0.017,-0.488,0.866,1.145,-21.985,183.527
2.510,0.035,-0.492,0.877,0.443,-19.267,181.954
2.520,0.044,-0.477,0.860,-0.137,-17.725,179.969
2.520,0.040,-0.477,0.858,-0.626,-17.053,177.618
2.530,0.028,-0.473,0.868,-0.931,-17.664,174.779
2.530,0.001,-0.473,0.868,-0.855,-19.985,172.336
2.540,-0.028,-0.474,0.852,-0.443,-24.458,170.137
2.540,-0.068,-0.465,0.868,-0.412,-30.412,167.786
2.540,-0.080,-0.469,0.866,0.275,-35.298,165.802
2.550,-0.101,-0.467,0.865,1.466,-39.573,164.763
2.550,-0.136,-0.469,0.857,2.931,-44.244,164.580
2.560,-0.173,-0.478,0.847,3.985,-48.412,165.588
2.560,-0.181,-0.481,0.852,4.611,-51.664,167.069
2.570,-0.167,-0.491,0.832,5.267,-53.008,168.763
2.570,-0.157,-0.491,0.817,5.221,-53.267,170.473
2.570,-0.156,-0.499,0.804,5.145,-52.855,173.053
2.580,-0.147,-0.501,0.810,4.580,-51.618,177.130
2.580,-0.118,-0.504,0.800,3.710,-48.412,181.389
2.590,-0.073,-0.507,0.797,2.290,-43.756,184.779
2.590,-0.008,-0.508,0.791,0.458,-38.885,187.115
2.600,0.027,-0.507,0.811,-0.794,-33.710,188.733
2.600,0.062,-0.515,0.813,-1.954,-29.160,190.183
2.600,0.105,-0.510,0.831,-3.634,-25.298,190.947
2.610,0.133,-0.506,0.838,-4.443,-21.420,190.733
2.610,0.164,-0.499,0.835,-5.160,-18.901,189.847
2.620,0.182,-0.492,0.845,-5.496,-18.015,187.786
2.620,0.194,-0.490,0.849,-5.603,-18.260,185.511
2.620,0.196,-0.483,0.848,-5.695,-20.321,182.458
2.630,0.196,-0.482,0.849,-5.511,-22.763,179.221
2.630,0.187,-0.480,0.851,-4.672,-26.107,175.466
2.640,0.187,-0.476,0.836,-4.489,-30.244,171.847
2.640,0.176,-0.471,0.841,-4.122,-35.328,168.321
2.650,0.181,-0.466,0.835,-4.015,-39.817,165.389
2.650,0.179,-0.464,0.842,-3.710,-43.557,162.397
2.650,0.178,-0.451,0.832,-4.046,-46.977,159.969
2.660,0.185,-0.453,0.829,-4.412,-49.252,158.015
2.660,0.198,-0.451,0.819,-4.672,-49.985,156.718
2.670,0.218,-0.447,0.818,-5.496,-49.481,155.435
2.670,0.226,-0.448,0.826,-6.534,-47.573,155.115
2.680,0.246,-0.449,0.838,-6.916,-44.504,154.947
2.680,0.282,-0.434,0.843,-7.557,-40.321,154.672
2.680,0.296,-0.425,0.843,-8.122,-35.847,154.321
2.690,0.315,-0.413,0.849,-9.099,-30.992,153.511
2.690,0.311,-0.406,0.844,-10.305,-29.939,152.382
2.700,0.304,-0.392,0.842,-12.595,-28.931,151.023
2.700,0.331,-0.392,0.858,-12.733,-25.053,149.420
2.710,0.332,-0.388,0.868,-12.748,-22.870,146.427
2.710,0.349,-0.385,0.884,-11.191,-16.000,143.954
2.710,0.356,-0.385,0.887,-9.634,-8.458,141.099
2.720,0.332,-0.392,0.891,-7.313,-4.580,138.550
2.720,0.305,-0.389,0.884,-6.000,-4.840,136.000
2.730,0.301,-0.385,0.870,-5.725,-5.496,133.099
2.730,0.304,-0.381,0.862,-6.443,-7.160,130.031
2.740,0.321,-0.385,0.869,-7.145,-9.069,126.031
2.740,0.335,-0.380,0.881,-6.992,-11.634,121.908
2.740,0.361,-0.376,0.881,-8.122,-12.061,118.137
2.750,0.488,-0.343,0.903,-11.679,10.366,117.710
2.750,0.396,-0.415,0.909,-8.229,11.267,110.672
2.760,0.325,-0.362,0.913,-9.420,0.260,106.550
2.760,0.255,-0.370,0.915,-7.267,-18.458,103.099
2.760,0.301,-0.357,0.948,-7.771,-25.542,100.382
2.770,0.351,-0.363,0.909,-5.115,-23.603,96.550
2.770,0.347,-0.360,0.917,-2.962,-28.351,94.580
2.780,0.323,-0.349,0.910,-1.450,-39.695,89.740
2.780,0.337,-0.337,0.877,-1.115,-44.733,87.038
2.790,0.371,-0.329,0.864,-2.366,-44.015,85.130
2.790,0.436,-0.323,0.864,-2.916,-31.405,83.527
2.790,0.459,-0.329,0.905,-0.107,-20.092,81.389
2.800,0.382,-0.336,0.921,4.015,-19.863,78.092
2.800,0.354,-0.312,0.905,3.847,-22.779,75.832
2.810,0.328,-0.300,0.847,2.260,-23.038,74.626
2.810,0.341,-0.284,0.832,0.489,-18.901,74.260
2.810,0.313,-0.292,0.830,-0.565,-16.305,73.863
2.820,0.305,-0.291,0.840,-0.595,-17.588,72.824
2.820,0.301,-0.295,0.846,-0.885,-18.550,72.153
2.830,0.330,-0.291,0.852,-0.611,-16.305,71.969
2.830,0.356,-0.285,0.849,-1.115,-12.901,71.603
2.840,0.372,-0.285,0.851,-1.115,-9.847,70.809
2.840,0.395,-0.274,0.843,-1.160,-8.427,68.779
2.840,0.418,-0.270,0.841,-1.588,-8.397,65.817
2.850,0.436,-0.263,0.861,-1.221,-7.985,62.046
2.850,0.430,-0.244,0.869,-0.672,-8.061,58.748
2.860,0.435,-0.233,0.870,-0.855,-7.725,55.252
2.860,0.424,-0.226,0.863,-0.901,-7.206,51.939
2.860,0.430,-0.214,0.847,-0.870,-7.008,48.870
2.870,0.408,-0.214,0.839,-1.573,-7.863,45.084
2.870,0.414,-0.210,0.842,-2.534,-6.519,41.664
2.880,0.394,-0.207,0.827,-2.519,-5.618,38.366
2.880,0.368,-0.204,0.835,-3.496,-6.092,35.252
2.880,0.346,-0.199,0.825,-4.137,-8.565,32.015
2.890,0.331,-0.204,0.820,-4.550,-11.038,28.473
2.890,0.316,-0.193,0.816,-5.542,-11.267,25.298
2.900,0.286,-0.198,0.807,-6.137,-12.092,22.382
2.900,0.260,-0.195,0.830,-6.656,-14.076,20.000
2.910,0.245,-0.190,0.821,-7.252,-15.252,17.695
2.910,0.221,-0.192,0.814,-7.573,-15.389,16.198
2.910,0.200,-0.196,0.817,-8.519,-14.504,15.710
2.920,0.164,-0.195,0.826,-8.718,-13.237,15.756
2.920,0.136,-0.193,0.824,-9.008,-13.282,16.427
2.930,0.122,-0.190,0.842,-10.183,-13.771,17.405
2.930,0.132,-0.207,0.868,-10.794,-11.405,18.779
2.930,0.145,-0.204,0.869,-10.718,-7.099,20.580
2.940,0.135,-0.203,0.885,-10.260,-3.542,22.534
2.940,0.149,-0.213,0.910,-9.939,-0.824,23.969
2.950,0.157,-0.205,0.902,-9.740,3.115,25.496
2.950,0.176,-0.207,0.908,-9.115,6.702,26.550
2.950,0.199,-0.203,0.919,-8.198,9.374,27.252
2.960,0.198,-0.198,0.923,-7.405,11.221,26.870
2.960,0.219,-0.196,0.927,-6.412,12.122,26.000
2.970,0.221,-0.195,0.917,-5.740,12.595,24.473
2.970,0.217,-0.193,0.916,-5.221,11.939,22.473
2.980,0.225,-0.174,0.910,-4.305,11.008,20.489
2.980,0.212,-0.173,0.906,-3.389,9.313,18.122
2.980,0.210,-0.167,0.883,-3.099,6.931,16.061
2.990,0.201,-0.162,0.887,-3.099,5.420,13.649
2.990,0.193,-0.166,0.876,-2.809,2.947,11.618
3.000,0.191,-0.157,0.881,-2.779,0.718,8.977
3.000,0.189,-0.160,0.861,-2.504,-1.679,7.023
3.000,0.172,-0.155,0.859,-3.420,-4.000,4.870
3.010,0.177,-0.151,0.853,-4.489,-5.069,3.191
3.010,0.163,-0.156,0.873,-4.885,-5.130,1.710
3.020,0.153,-0.159,0.886,-4.611,-5.313,0.748
3.020,0.144,-0.162,0.872,-4.718,-5.969,0.183
3.020,0.130,-0.160,0.881,-4.901,-6.031,-0.168
3.030,0.115,-0.160,0.870,-5.481,-5.313,-0.061
3.030,0.116,-0.156,0.875,-6.336,-4.962,0.137
3.040,0.107,-0.156,0.892,-6.198,-3.878,0.122
3.040,0.100,-0.156,0.888,-5.771,-3.511,0.382
3.040,0.101,-0.153,0.897,-6.244,-3.817,0.748
3.050,0.109,-0.156,0.907,-7.023,-3.023,0.809
3.050,0.113,-0.153,0.912,-6.656,-1.389,0.885
3.060,0.110,-0.157,0.925,-5.634,-0.168,1.389
3.060,0.110,-0.155,0.927,-5.053,0.916,1.908
3.060,0.104,-0.156,0.931,-4.244,2.168,2.229
3.070,0.109,-0.157,0.920,-3.206,3.878,2.443
3.070,0.110,-0.151,0.926,-2.321,5.099,2.427
3.070,0.111,-0.159,0.926,-1.542,6.076,2.458
3.080,0.111,-0.153,0.916,-1.221,6.443,1.985
3.080,0.093,-0.155,0.902,-1.191,6.214,1.557
3.090,0.092,-0.152,0.910,-0.931,4.885,0.702
3.090,0.093,-0.157,0.900,-1.099,2.916,-0.351
3.090,0.086,-0.152,0.897,-1.328,1.069,-1.344
3.100,0.080,-0.148,0.897,-1.740,0.168,-2.183
3.100,0.078,-0.155,0.888,-1.893,-0.901,-2.947
3.110,0.072,-0.156,0.893,-1.924,-1.527,-3.588
3.110,0.068,-0.156,0.899,-1.771,-2.702,-4.076
3.110,0.061,-0.155,0.892,-2.015,-3.740,-4.565
3.120,0.063,-0.165,0.896,-2.061,-3.863,-4.733
3.120,0.051,-0.156,0.895,-2.015,-3.588,-4.672
3.130,0.058,-0.156,0.905,-1.786,-2.931,-4.168
3.130,0.055,-0.158,0.915,-1.542,-2.229,-4.122
3.140,0.064,-0.158,0.915,-1.130,-0.824,-3.740
3.140,0.052,-0.154,0.900,-1.023,-0.061,-3.420
3.140,0.045,-0.152,0.912,-0.931,1.038,-3.008
3.150,0.040,-0.155,0.900,-0.824,1.573,-2.718
3.150,0.040,-0.151,0.904,-0.809,1.588,-2.565
3.160,0.039,-0.150,0.890,-0.901,1.557,-2.260
3.160,0.040,-0.147,0.901,-0.244,1.756,-2.137
3.160,0.028,-0.148,0.897,0.168,1.695,-2.061
3.170,0.026,-0.152,0.904,0.427,0.992,-2.183
3.170,0.026,-0.146,0.897,0.779,-0.305,-2.122
3.170,0.032,-0.147,0.895,0.885,-1.038,-2.473
3.180,0.031,-0.149,0.894,0.916,-1.740,-2.641
3.180,0.030,-0.156,0.891,0.977,-2.290,-2.779
3.190,0.032,-0.154,0.896,0.992,-2.656,-3.008
3.190,0.029,-0.166,0.896,1.328,-3.206,-2.947
3.190,0.031,-0.166,0.900,1.130,-3.832,-2.702
3.200,0.030,-0.161,0.888,0.748,-3.756,-2.565
3.200,0.027,-0.162,0.888,0.595,-3.328,-2.031
3.210,0.035,-0.162,0.884,0.702,-2.366,-1.282
3.210,0.029,-0.160,0.883,0.534,-1.817,-0.809
3.210,0.031,-0.167,0.893,0.718,-1.359,-0.321
3.220,0.043,-0.167,0.875,0.656,-1.160,-0.427
3.220,0.048,-0.161,0.874,0.443,-1.206,-0.702
3.230,0.057,-0.157,0.889,0.107,-1.191,-1.069
3.230,0.051,-0.161,0.875,0.137,-0.824,-1.145
3.230,0.052,-0.162,0.881,0.321,-0.931,-1.618
3.240,0.050,-0.158,0.868,0.229,-0.992,-1.740
3.240,0.046,-0.154,0.872,0.550,-1.237,-1.863
3.250,0.039,-0.156,0.872,0.198,-1.267,-1.969
3.250,0.041,-0.164,0.861,0.046,-1.939,-1.939
3.250,0.035,-0.158,0.859,-0.153,-2.061,-1.969
3.260,0.034,-0.159,0.872,-0.092,-2.427,-1.954
3.260,0.033,-0.164,0.866,0.092,-2.580,-1.847
3.270,0.032,-0.158,0.866,-0.580,-2.794,-1.466
3.270,0.027,-0.156,0.868,-1.008,-3.252,-1.313
3.280,0.047,-0.160,0.886,-1.008,-2.168,-0.992
3.280,0.045,-0.160,0.889,-0.611,-1.298,-0.748
3.280,0.040,-0.164,0.882,-0.641,-1.038,-0.519
3.290,0.031,-0.160,0.875,-0.687,-1.573,-0.153
3.290,0.036,-0.160,0.880,-0.977,-1.634,0.076
3.300,0.044,-0.164,0.884,-0.824,-1.252,0.153
3.300,0.045,-0.157,0.888,-0.565,-0.718,0.748
3.300,0.051,-0.158,0.875,-0.229,-0.015,0.779
3.310,0.051,-0.160,0.865,-0.214,0.489,1.267
3.310,0.053,-0.161,0.869,-0.351,0.336,1.282
3.320,0.055,-0.163,0.863,-0.855,-0.153,1.206
3.320,0.065,-0.162,0.865,-1.267,1.450,1.160
3.320,0.070,-0.156,0.869,-1.374,4.168,1.786
3.330,0.066,-0.168,0.868,-1.786,6.305,2.168
3.330,0.053,-0.168,0.886,-1.710,5.618,1.969
3.330,0.047,-0.165,0.890,-1.389,4.412,1.863
3.340,0.053,-0.166,0.871,-1.847,3.389,2.061
3.340,0.050,-0.164,0.874,-2.214,2.519,1.710
3.350,0.051,-0.158,0.891,-2.137,1.252,1.191
3.350,0.060,-0.163,0.895,-1.496,-0.046,0.351
3.350,0.068,-0.171,0.893,-0.977,-0.794,-0.656
3.360,0.063,-0.174,0.882,-0.763,-0.855,-1.053
3.360,0.060,-0.167,0.879,-0.977,-0.977,-1.282
3.370,0.052,-0.170,0.888,-0.534,-0.977,-1.450
3.370,0.042,-0.173,0.892,0.260,-0.656,-1.221
3.370,0.043,-0.166,0.898,0.687,-0.840,-1.038
3.380,0.043,-0.168,0.881,0.611,-0.427,-0.824
3.380,0.046,-0.155,0.881,0.137,-0.290,-0.534
3.390,0.048,-0.154,0.871,0.366,0.321,-0.336
3.390,0.051,-0.153,0.866,-0.336,1.359,0.046
3.390,0.056,-0.147,0.865,-0.733,1.969,0.550
3.400,0.055,-0.153,0.868,-1.069,3.511,0.702
3.400,0.049,-0.156,0.872,-1.359,4.443,0.992
3.410,0.052,-0.159,0.859,-1.832,4.992,1.160
3.410,0.046,-0.162,0.859,-1.893,5.420,1.313
3.410,0.044,-0.153,0.861,-2.214,4.687,1.481
3.420,0.044,-0.158,0.864,-2.962,3.985,1.267
3.420,0.054,-0.155,0.872,-3.191,2.992,1.084
3.430,0.053,-0.156,0.878,-3.176,2.855,1.099
3.430,0.049,-0.154,0.877,-3.084,2.840,0.779
3.430,0.054,-0.156,0.887,-2.855,2.901,0.977
3.440,0.043,-0.161,0.877,-2.702,2.656,0.443
3.440,0.041,-0.156,0.872,-2.763,1.481,0.198
3.450,0.046,-0.157,0.878,-3.405,0.626,-0.137
3.450,0.048,-0.167,0.876,-3.282,0.534,-0.412
3.450,0.043,-0.163,0.890,-3.176,0.214,-0.565
3.460,0.037,-0.167,0.898,-3.176,0.412,-0.397
3.460,0.031,-0.170,0.898,-2.885,0.794,-0.336
3.470,0.047,-0.170,0.891,-2.809,1.374,-0.061
3.470,0.035,-0.165,0.890,-2.901,1.939,0.198
3.470,0.040,-0.170,0.897,-2.824,2.214,0.351
3.480,0.034,-0.167,0.896,-2.824,2.305,0.580
3.480,0.033,-0.166,0.903,-2.550,2.641,1.008
3.480,0.032,-0.164,0.900,-2.595,2.702,1.099
3.490,0.035,-0.164,0.897,-2.550,3.084,1.496
3.490,0.034,-0.160,0.912,-2.122,3.573,1.618
3.500,0.041,-0.163,0.904,-1.832,4.015,1.725
3.500,0.044,-0.152,0.910,-1.679,4.061,1.557
3.500,0.031,-0.160,0.892,-1.618,4.260,1.847
3.510,0.040,-0.158,0.886,-1.695,4.519,2.015
3.510,0.040,-0.152,0.881,-2.092,4.641,1.802
3.520,0.035,-0.154,0.899,-2.412,4.550,1.679
3.520,0.036,-0.150,0.886,-2.565,4.397,1.557
3.520,0.035,-0.157,0.890,-2.534,4.779,1.557
3.530,0.039,-0.157,0.885,-2.733,5.221,1.542
3.530,0.043,-0.148,0.878,-2.992,5.954,1.252
3.540,0.042,-0.160,0.888,-2.916,6.336,0.962
3.540,0.033,-0.153,0.884,-3.008,5.176,0.718
3.540,0.035,-0.149,0.881,-3.145,4.901,0.015
3.550,0.033,-0.156,0.881,-2.840,4.763,-0.275
3.550,0.028,-0.152,0.871,-3.206,3.679,-0.550
3.560,0.030,-0.144,0.860,-3.863,2.382,-1.359
3.560,0.033,-0.154,0.869,-4.229,0.992,-2.061
3.560,0.037,-0.147,0.874,-4.626,0.504,-2.443
3.570,0.037,-0.145,0.873,-4.718,0.260,-2.748
3.570,0.030,-0.145,0.878,-4.443,0.473,-2.656
3.580,0.024,-0.144,0.863,-4.427,0.565,-2.656
3.580,0.023,-0.151,0.863,-5.038,-0.107,-2.351
3.580,0.018,-0.145,0.848,-5.557,-0.931,-2.229
3.590,0.025,-0.142,0.853,-6.489,-2.031,-1.847
3.590,0.034,-0.155,0.877,-6.870,-1.832,-1.435
3.600,0.035,-0.154,0.888,-6.840,-1.298,-1.023
3.600,0.031,-0.164,0.892,-6.901,-0.702,-0.443
3.600,0.032,-0.167,0.899,-6.336,0.061,0.260
3.610,0.030,-0.165,0.897,-6.031,-0.031,0.733
3.610,0.031,-0.170,0.899,-5.511,-0.641,1.160
3.620,0.044,-0.173,0.910,-4.962,-0.733,1.511
3.620,0.048,-0.177,0.920,-4.168,0.046,1.771
3.620,0.049,-0.178,0.930,-2.885,0.992,2.015
3.630,0.053,-0.176,0.931,-1.832,1.802,2.137
3.630,0.058,-0.174,0.927,-0.977,2.168,2.321
3.640,0.057,-0.174,0.922,-0.260,2.748,2.122
3.640,0.060,-0.169,0.911,0.229,2.412,2.061
3.640,0.056,-0.169,0.912,0.519,2.382,2.183
3.650,0.049,-0.170,0.902,1.069,2.626,2.229
3.650,0.058,-0.160,0.898,1.038,2.962,2.214
3.650,0.058,-0.158,0.896,0.931,2.992,2.107
3.660,0.051,-0.152,0.894,0.519,2.702,1.878
3.660,0.064,-0.158,0.884,0.412,3.008,1.863
3.670,0.061,-0.159,0.880,-0.122,3.450,1.435
3.670,0.056,-0.161,0.868,-0.336,3.237,0.840
3.670,0.065,-0.162,0.865,-0.901,2.153,0.092
3.680,0.066,-0.159,0.881,-1.786,1.191,-0.901
3.680,0.062,-0.156,0.877,-2.076,0.763,-1.206
3.690,0.056,-0.160,0.893,-2.382,0.366,-1.588
3.690,0.048,-0.159,0.886,-2.275,0.137,-1.588
3.690,0.040,-0.171,0.898,-2.260,-0.565,-1.893
3.700,0.051,-0.162,0.895,-1.969,-0.870,-2.046
3.700,0.043,-0.161,0.892,-1.847,-0.809,-2.183
3.710,0.033,-0.163,0.893,-1.649,-0.580,-2.015
3.710,0.027,-0.166,0.889,-1.374,-0.779,-1.649
3.710,0.023,-0.175,0.889,-1.084,-0.748,-1.481
3.720,0.018,-0.165,0.886,-1.115,-0.458,-0.855
3.720,0.025,-0.165,0.890,-1.405,-0.916,-0.733
3.730,0.016,-0.166,0.886,-1.618,-1.344,-0.779
3.730,0.031,-0.159,0.886,-1.664,-1.664,-0.931
3.730,0.037,-0.163,0.893,-1.344,-1.115,-1.053
3.740,0.035,-0.159,0.889,-1.328,-0.947,-1.008
3.740,0.034,-0.164,0.883,-1.008,-1.145,-1.221
3.750,0.041,-0.162,0.876,-1.130,-1.634,-1.603
3.750,0.043,-0.161,0.874,-1.634,-2.336,-2.061
3.750,0.045,-0.164,0.889,-1.176,-2.137,-2.641
3.760,0.039,-0.163,0.884,-0.901,-2.153,-2.809
3.760,0.033,-0.167,0.889,-1.115,-3.053,-3.221
3.770,0.030,-0.167,0.896,-1.115,-3.115,-3.237
3.770,0.025,-0.170,0.893,-0.962,-3.023,-3.053
3.780,0.022,-0.173,0.896,-0.565,-2.672,-2.687
3.780,0.017,-0.167,0.890,-0.550,-2.626,-2.290
3.780,0.026,-0.170,0.901,-0.244,-1.740,-1.893
3.790,0.029,-0.167,0.899,-0.076,-0.641,-1.206
3.790,0.028,-0.171,0.890,0.534,0.137,-0.824
3.800,0.023,-0.166,0.893,0.626,-0.229,-0.687
3.800,0.024,-0.164,0.887,0.962,-0.336,-0.656
3.800,0.032,-0.161,0.883,1.374,-0.702,-0.534
3.810,0.035,-0.159,0.878,1.267,-1.389,-0.702
3.810,0.034,-0.153,0.879,1.649,-2.794,-1.160
3.820,0.050,-0.159,0.886,1.802,-4.641,-1.756
3.820,0.046,-0.167,0.884,1.756,-6.519,-2.412
3.820,0.050,-0.160,0.881,2.504,-7.756,-3.008
3.830,0.048,-0.157,0.880,2.840,-8.458,-3.145
3.830,0.048,-0.151,0.874,2.427,-8.366,-3.130
3.840,0.052,-0.150,0.850,0.885,-6.733,-2.809
3.840,0.057,-0.151,0.848,-0.305,-5.435,-2.489
3.840,0.065,-0.154,0.867,-1.511,-4.107,-2.305
3.850,0.073,-0.157,0.881,-2.153,-0.397,-1.847
3.850,0.076,-0.162,0.890,-2.336,3.954,-1.282
3.860,0.058,-0.158,0.892,-2.092,5.954,-1.084
3.860,0.033,-0.157,0.893,-1.969,4.336,-1.069
3.860,0.024,-0.152,0.865,-3.115,2.153,-1.038
3.870,0.037,-0.155,0.877,-4.519,1.130,-0.748
3.870,0.041,-0.157,0.888,-4.244,1.053,-1.221
3.880,0.044,-0.162,0.916,-2.931,0.473,-1.649
3.880,0.040,-0.165,0.911,-2.153,-0.214,-1.802
3.880,0.043,-0.163,0.913,-1.481,0.076,-1.847
3.890,0.043,-0.156,0.908,-0.595,0.641,-1.649
3.890,0.029,-0.158,0.901,0.183,0.947,-1.328
3.900,0.022,-0.159,0.895,0.748,-0.183,-1.008
3.900,0.026,-0.155,0.887,1.176,-0.687,-0.580
3.900,0.022,-0.150,0.889,1.176,-0.519,-0.153
3.910,0.032,-0.157,0.875,1.008,-0.443,-0.122
3.910,0.040,-0.152,0.887,0.412,-0.214,-0.031
3.920,0.049,-0.150,0.877,-0.183,0.580,-0.015
3.920,0.049,-0.152,0.881,-0.550,1.328,0.031
3.920,0.048,-0.153,0.878,-1.328,1.954,0.046
3.930,0.051,-0.158,0.894,-1.649,2.718,0.183
3.930,0.052,-0.156,0.896,-1.389,2.992,0.107
3.940,0.057,-0.152,0.889,-1.511,3.160,-0.244
3.940,0.048,-0.157,0.903,-1.298,3.023,-0.427
3.940,0.045,-0.158,0.901,-1.145,2.702,-0.580
3.950,0.046,-0.160,0.897,-0.504,2.260,-0.779
3.950,0.049,-0.167,0.908,0.046,1.847,-0.962
3.950,0.037,-0.164,0.899,0.275,1.267,-1.053
3.960,0.035,-0.159,0.895,0.504,0.672,-1.252
3.960,0.034,-0.161,0.901,0.702,0.229,-1.008
3.970,0.029,-0.156,0.896,0.885,-0.214,-1.160
3.970,0.022,-0.156,0.896,0.779,-1.359,-1.191
3.970,0.029,-0.152,0.888,-0.061,-2.534,-1.298
3.980,0.032,-0.150,0.886,-0.153,-2.412,-1.298
3.980,0.042,-0.154,0.886,-0.198,-1.313,-1.405
3.990,0.031,-0.150,0.887,-0.626,-1.237,-1.405
3.990,0.031,-0.153,0.884,-0.809,-1.130,-1.344
4.000,0.029,-0.146,0.868,-0.794,-0.656,-1.237
4.000,0.032,-0.150,0.880,-0.947,-0.122,-0.809
4.000,0.023,-0.150,0.875,-1.023,0.519,-0.183
4.010,0.021,-0.156,0.877,-0.809,0.962,0.595
4.010,0.021,-0.148,0.884,-0.321,1.298,1.084
4.020,0.015,-0.147,0.870,0.076,1.267,1.344
4.020,0.025,-0.150,0.870,-0.137,0.794,1.756
4.020,0.030,-0.147,0.869,-0.962,0.015,1.405
4.030,0.037,-0.156,0.877,-0.947,0.046,1.221
4.030,0.041,-0.153,0.878,-0.870,0.290,1.206
4.030,0.039,-0.151,0.885,-1.023,0.885,1.267
4.040,0.035,-0.150,0.884,-1.191,1.267,1.466
4.040,0.042,-0.153,0.871,-1.176,1.756,1.756
4.050,0.044,-0.154,0.871,-1.099,2.153,1.802
4.050,0.046,-0.160,0.864,-1.328,2.809,1.740
4.050,0.045,-0.156,0.866,-1.817,2.427,1.389
4.060,0.030,-0.162,0.869,-2.458,1.969,1.176
4.060,0.023,-0.166,0.868,-2.672,0.137,0.947
4.070,0.031,-0.160,0.871,-3.313,-1.466,0.733
4.070,0.042,-0.159,0.887,-3.557,-2.015,0.550
4.070,0.050,-0.163,0.906,-3.496,-2.229,0.427
4.080,0.047,-0.166,0.912,-2.733,-1.649,0.260
4.080,0.044,-0.167,0.913,-1.786,-0.962,0.412
4.090,0.046,-0.166,0.908,-1.298,-0.473,0.794
