Time,acce_x,acce_y,acce_z,gyro_x,gyro_y,gyro_z
0.000010,0.03,0.07,1.06,-1.10,2.70,1.83
0.000020,0.03,0.06,1.06,-0.76,1.41,0.71
0.000030,0.04,0.07,1.06,-0.24,-0.36,0.19
0.000050,0.05,0.07,1.07,0.02,-2.38,0.16
0.000060,0.06,0.08,1.07,-0.47,-3.12,1.25
0.000070,0.06,0.06,1.07,-0.29,-0.16,1.33
0.000080,0.04,0.07,1.07,-0.48,-1.28,1.18
0.000100,0.05,0.07,1.09,-1.53,-0.03,1.26
0.000110,0.05,0.07,1.08,-0.87,1.73,1.19
0.000120,0.04,0.06,1.07,-0.34,-2.40,0.99
0.000140,0.04,0.07,1.09,0.36,-1.44,0.79
0.000150,0.05,0.07,1.07,-0.56,-4.11,0.29
0.000160,0.05,0.07,1.07,-0.60,-1.64,-0.10
0.000180,0.05,0.08,1.06,-0.89,-0.35,0.15
0.000190,0.06,0.08,1.06,-0.81,0.35,0.11
0.000200,0.05,0.08,1.07,-0.45,3.65,0.56
0.000220,0.03,0.08,1.07,-0.57,0.11,0.28
0.000230,0.05,0.08,1.07,-0.53,0.32,0.06
0.000240,0.03,0.08,1.06,0.29,1.34,0.17
0.000260,0.05,0.07,1.05,0.21,0.56,0.05
0.000270,0.04,0.08,1.06,0.35,0.54,-0.08
0.000280,0.04,0.08,1.06,0.41,-1.42,0.15
0.000300,0.05,0.07,1.06,0.44,-2.11,0.20
0.000310,0.03,0.08,1.07,0.11,-5.00,0.41
0.000320,0.04,0.07,1.08,0.19,1.15,-0.20
0.000330,0.02,0.07,1.07,0.26,-0.81,-1.79
0.000350,0.03,0.07,1.06,1.88,-3.05,-2.51
0.000360,0.05,0.08,1.07,2.18,-3.65,-2.29
0.000370,0.05,0.08,1.08,2.49,-3.09,-1.91
0.000390,0.07,0.09,1.09,2.04,-0.62,-0.90
0.000400,0.06,0.10,1.10,0.95,0.62,-0.37
0.000410,0.05,0.10,1.08,0.67,-0.08,-0.60
0.000430,0.06,0.10,1.08,0.82,-1.34,-0.19
0.000440,0.05,0.09,1.09,0.36,-2.72,0.08
0.000450,0.05,0.09,1.09,-0.56,-0.28,0.25
0.000470,0.05,0.09,1.09,-2.09,0.03,0.98
0.000480,0.05,0.08,1.09,-1.75,2.85,1.67
0.000490,0.02,0.08,1.08,-2.84,2.12,1.44
0.000510,0.02,0.08,1.07,-1.99,2.21,0.95
0.000520,0.02,0.06,1.05,0.95,3.29,-0.34
0.000530,-0.01,0.08,1.09,-0.18,1.40,-1.83
0.000540,0.00,0.09,1.08,0.50,1.53,-2.96
0.000560,0.02,0.09,1.09,-1.15,3.53,-2.78
0.000570,0.01,0.09,1.08,-2.49,3.52,-2.30
0.000580,0.01,0.09,1.10,-3.28,1.79,-1.85
0.000600,0.00,0.08,1.10,-2.73,3.76,-2.49
0.000610,-0.03,0.09,1.09,-3.14,0.67,-4.22
0.000620,-0.01,0.09,1.08,-3.26,2.11,-5.82
0.000640,-0.01,0.08,1.07,-3.47,1.26,-6.30
0.000650,-0.01,0.08,1.07,-2.65,1.15,-6.29
0.000660,-0.03,0.08,1.09,-2.01,4.30,-6.13
0.000680,-0.04,0.08,1.09,-2.92,2.27,-7.36
0.000690,-0.04,0.08,1.10,-3.44,2.34,-8.16
0.000700,-0.05,0.07,1.08,-4.44,-0.22,-9.93
0.000720,-0.04,0.07,1.08,-4.09,0.38,-11.04
0.000730,-0.05,0.08,1.09,-3.59,3.11,-12.74
0.000740,-0.05,0.08,1.08,-4.52,0.34,-13.62
0.000760,-0.05,0.08,1.09,-3.82,-1.47,-13.84
0.000770,-0.04,0.09,1.07,-3.14,-3.03,-15.11
0.000780,-0.03,0.09,1.07,-2.78,-2.62,-15.73
0.000800,-0.04,0.10,1.09,-5.46,-3.53,-15.92
0.000810,-0.05,0.10,1.10,-6.55,1.68,-16.54
0.000830,-0.04,0.08,1.08,-7.24,1.19,-18.10
0.000840,-0.05,0.08,1.07,-6.46,2.71,-19.53
0.000850,-0.06,0.08,1.07,-6.00,0.49,-21.27
0.000870,-0.05,0.08,1.07,-4.98,-0.44,-22.14
0.000880,-0.06,0.08,1.08,-4.49,4.02,-22.91
0.000890,-0.07,0.08,1.07,-5.93,3.63,-24.73
0.000910,-0.08,0.08,1.08,-5.50,1.53,-26.44
0.000920,-0.07,0.08,1.07,-5.86,-0.83,-28.02
0.000930,-0.06,0.08,1.06,-5.57,-0.34,-29.07
0.000950,-0.07,0.08,1.06,-5.66,-3.01,-30.46
0.000960,-0.05,0.07,1.06,-4.71,-1.08,-30.98
0.000970,-0.06,0.07,1.05,-4.52,-2.85,-32.82
0.000990,-0.05,0.08,1.05,-3.33,0.27,-34.08
0.001000,-0.04,0.08,1.06,-3.24,-0.53,-35.45
0.001010,-0.03,0.09,1.06,-4.08,-0.73,-36.08
0.001030,-0.03,0.09,1.05,-4.89,1.87,-36.19
0.001040,-0.02,0.10,1.04,-6.02,5.02,-37.59
0.001050,-0.02,0.10,1.03,-5.70,7.60,-38.70
0.001070,-0.03,0.09,1.04,-5.38,5.31,-40.09
0.001080,-0.03,0.07,1.04,-3.79,4.37,-40.60
0.001100,-0.05,0.07,1.06,-3.79,2.45,-42.29
0.001110,-0.06,0.07,1.07,-3.85,1.87,-44.29
0.001120,-0.06,0.09,1.08,-5.50,4.41,-45.50
0.001140,-0.05,0.08,1.06,-5.08,4.26,-45.31
0.001150,-0.06,0.08,1.06,-4.01,2.27,-46.02
0.001160,-0.06,0.08,1.04,-3.34,2.05,-46.24
0.001180,-0.07,0.06,1.06,-2.54,2.62,-46.62
0.001190,-0.11,0.06,1.09,-1.89,1.28,-49.02
0.001200,-0.12,0.07,1.08,-1.85,-2.09,-53.53
0.001220,-0.09,0.08,1.09,-2.36,-5.76,-56.53
0.001230,-0.06,0.09,1.09,-2.37,-5.56,-57.83
0.001240,-0.05,0.09,1.09,-2.44,-4.59,-57.05
0.001260,-0.04,0.08,1.11,-1.91,-2.79,-55.02
0.001270,-0.05,0.09,1.10,-1.00,-0.98,-54.73
0.001280,-0.07,0.08,1.10,-0.98,-1.97,-55.83
0.001300,-0.09,0.08,1.13,-1.54,-4.36,-58.89
0.001310,-0.04,0.08,1.14,-4.56,-0.56,-59.76
0.001320,-0.08,0.11,1.12,-7.50,0.86,-61.81
0.001340,-0.07,0.10,1.11,-5.76,4.20,-61.92
0.001350,-0.08,0.09,1.10,-6.70,5.21,-60.93
0.001370,-0.09,0.08,1.07,-7.56,4.05,-62.36
0.001380,-0.09,0.06,1.06,-5.30,4.28,-64.11
0.001390,-0.11,0.06,1.03,-2.62,2.50,-66.04
0.001410,-0.11,0.06,1.02,-0.13,1.05,-68.50
0.001420,-0.12,0.08,1.04,-0.64,5.31,-72.35
0.001430,-0.14,0.07,1.07,-0.73,7.62,-76.08
0.001450,-0.15,0.08,1.11,-1.18,2.96,-77.28
0.001460,-0.11,0.09,1.10,-1.01,0.92,-76.82
0.001470,-0.14,0.08,1.10,-0.98,-2.15,-77.85
0.001490,-0.12,0.10,1.08,-1.73,-4.92,-79.66
0.001500,-0.12,0.11,1.08,-2.35,-6.54,-81.78
0.001510,-0.11,0.10,1.04,-1.53,-6.82,-83.86
0.001530,-0.08,0.09,1.02,1.15,-7.14,-84.09
0.001540,-0.05,0.08,1.04,-2.42,6.34,-82.01
0.001550,-0.07,0.07,1.04,5.62,-7.99,-82.25
0.001570,-0.11,0.09,1.05,3.55,-7.44,-80.08
0.001580,-0.16,0.06,1.06,4.86,-3.99,-79.89
0.001590,-0.20,0.08,1.02,4.72,-6.11,-83.24
0.001610,-0.23,0.09,1.05,7.65,-4.27,-87.94
0.001620,-0.24,0.09,1.11,8.45,0.82,-95.29
0.001630,-0.30,0.14,1.04,2.33,1.42,-106.40
0.001650,-0.22,0.11,1.04,8.27,-6.10,-109.85
0.001660,-0.18,0.13,1.04,14.14,-12.07,-108.10
0.001680,-0.16,0.15,1.02,17.34,-19.24,-106.94
0.001690,-0.14,0.16,1.04,18.51,-22.41,-106.05
0.001700,-0.14,0.19,1.04,16.71,-23.74,-106.73
0.001720,-0.07,0.17,1.05,16.24,-14.15,-111.27
0.001730,-0.07,0.23,0.99,11.70,-17.63,-113.99
0.001740,0.04,0.23,1.02,13.24,-14.96,-111.10
0.001760,0.11,0.22,1.06,5.95,10.30,-104.39
0.001770,0.07,0.21,1.08,8.66,-8.28,-101.45
0.001780,0.07,0.22,1.07,6.69,-9.30,-98.08
0.001800,0.05,0.18,1.08,6.65,-7.63,-93.31
0.001810,0.01,0.17,1.07,5.56,-10.83,-91.45
0.001820,-0.03,0.15,1.04,7.11,-7.83,-90.34
0.001840,-0.05,0.13,1.05,9.63,-12.98,-91.50
0.001850,-0.04,0.17,1.10,7.43,-18.33,-91.69
0.001860,0.07,0.14,1.14,2.44,8.72,-90.02
0.001880,-0.02,0.17,1.01,-1.02,-14.01,-91.79
0.001890,0.03,0.16,1.03,8.19,-22.60,-89.11
0.001910,0.09,0.17,1.03,9.31,-18.02,-85.38
0.001920,0.10,0.16,1.02,9.05,-16.33,-82.78
0.001930,0.11,0.15,1.06,8.16,-16.02,-79.40
0.001950,0.03,0.18,1.07,2.72,5.66,-75.06
0.001960,0.11,0.15,1.08,5.66,-15.43,-72.43
0.001970,0.18,0.19,1.10,1.89,-12.98,-68.48
0.001990,0.19,0.17,1.08,-0.02,-7.60,-65.50
0.002000,0.20,0.16,1.05,-3.02,-4.18,-58.42
0.002010,0.16,0.14,1.04,-3.05,-4.42,-55.20
0.002030,0.16,0.14,1.08,-4.17,-3.96,-52.56
0.002040,0.11,0.12,1.10,-6.96,-7.24,-52.26
0.002050,0.09,0.10,1.06,-6.61,-7.92,-52.73
0.002070,0.09,0.09,1.05,-6.17,-11.80,-54.49
0.002080,0.12,0.10,1.02,-5.98,-10.62,-54.49
0.002090,0.26,0.06,1.11,-7.09,19.02,-49.32
0.002110,0.10,0.08,1.02,-1.65,-16.43,-47.24
0.002120,0.06,0.13,1.04,-1.76,-30.00,-42.52
0.002130,0.17,0.09,1.06,-7.02,2.74,-38.79
0.002150,0.09,0.05,1.00,-4.91,-4.69,-44.26
0.002160,0.13,0.08,1.00,-3.63,-7.16,-46.50
0.002170,0.12,0.06,0.91,-5.15,7.36,-43.42
0.002190,0.04,0.03,0.99,-2.10,-4.68,-44.82
0.002200,0.02,0.03,1.03,5.54,-20.77,-43.57
0.002210,0.06,0.02,0.99,5.03,-16.02,-46.13
0.002230,0.03,0.08,1.03,5.26,-21.92,-53.48
0.002240,0.06,0.11,1.07,1.95,-22.63,-60.50
0.002260,0.14,0.16,1.00,0.11,-28.18,-65.96
0.002270,0.28,0.16,0.99,-2.34,-22.73,-69.66
0.002280,0.40,0.13,0.97,-0.52,-9.04,-67.07
0.002300,0.38,0.15,1.05,2.22,-0.16,-58.56
0.002310,0.31,0.12,1.12,-2.39,-1.05,-52.95
0.002320,0.27,0.11,1.17,-5.09,-3.70,-51.35
0.002340,0.22,0.10,1.20,-17.93,6.24,-53.31
0.002350,0.21,0.07,1.18,-15.32,1.75,-55.02
0.002360,0.23,0.06,1.19,-14.98,18.50,-50.23
0.002380,0.12,0.03,1.08,-17.33,3.03,-53.74
0.002390,0.11,0.00,1.07,-12.18,-2.63,-57.31
0.002400,0.17,-0.01,1.10,-10.64,0.69,-54.78
0.002420,0.16,-0.01,1.05,-5.34,1.23,-50.21
0.002430,0.11,0.03,1.03,-4.71,-12.57,-47.19
0.002440,0.16,0.02,1.07,-0.77,4.56,-45.70
0.002460,0.15,-0.00,1.08,-4.09,13.75,-47.72
0.002470,0.16,-0.01,1.12,-3.71,8.76,-43.86
0.002480,0.18,-0.01,1.14,-0.56,0.00,-35.34
0.002500,0.20,0.01,1.09,0.13,0.30,-25.16
0.002510,0.13,0.01,1.06,-0.15,-1.23,-18.73
0.002520,0.03,0.01,1.09,-2.39,-1.76,-20.53
0.002540,0.04,-0.03,1.11,-2.78,-1.75,-26.79
0.002550,0.10,-0.02,1.09,-1.57,-5.38,-29.66
0.002560,0.17,0.00,1.07,-2.04,-6.15,-27.20
0.002580,0.20,0.01,1.08,-3.47,-5.36,-17.91
0.002590,0.21,0.02,1.07,-5.11,-3.19,-7.10
0.002610,0.16,0.01,1.02,-5.53,-0.02,-0.79
0.002620,0.11,-0.01,1.00,-2.82,-0.16,-0.17
0.002630,0.10,-0.02,1.01,2.98,-4.77,0.02
0.002650,0.08,0.01,1.04,4.76,-5.80,-0.51
0.002660,0.11,0.02,1.10,3.76,-3.24,-2.48
0.002670,0.17,0.04,1.13,1.08,-6.38,-1.66
0.002690,0.24,0.05,1.11,-1.05,-0.69,3.54
0.002700,0.27,0.03,1.08,-1.51,-0.42,11.22
0.002710,0.24,0.03,1.07,-0.01,-0.74,18.27
0.002730,0.18,0.04,1.05,1.58,1.76,22.70
0.002740,0.17,0.02,1.05,5.20,-1.62,26.10
0.002750,0.15,0.04,1.12,4.60,0.59,29.66
0.002760,0.12,0.06,1.14,0.40,0.11,30.26
0.002780,0.11,0.05,1.12,-1.81,0.80,29.43
0.002790,0.14,0.05,1.10,-0.95,-1.23,29.50
0.002800,0.17,0.05,1.09,-1.50,-2.62,31.35
0.002820,0.19,0.05,1.05,-1.91,1.26,35.02
0.002830,0.17,0.05,1.05,-0.69,-1.82,39.79
0.002840,0.15,0.05,1.05,-1.87,4.70,41.95
0.002860,0.12,0.04,1.06,-3.33,5.36,40.24
0.002870,0.11,0.04,1.06,-2.54,3.21,39.21
0.002880,0.13,0.05,1.07,-1.13,-3.08,39.68
0.002900,0.14,0.06,1.06,0.06,-6.95,41.77
0.002910,0.15,0.07,1.06,0.20,-5.18,44.78
0.002920,0.15,0.08,1.06,-0.60,-3.95,48.24
0.002940,0.13,0.08,1.03,-0.27,2.28,51.60
0.002950,0.11,0.08,1.01,0.11,2.50,52.19
0.002960,0.12,0.08,1.02,1.89,4.94,52.65
0.002980,0.10,0.08,1.04,2.50,3.40,53.84
0.002990,0.08,0.09,1.05,3.36,0.70,56.24
0.003000,0.09,0.09,1.09,2.45,2.05,58.21
0.003020,0.05,0.09,1.08,-0.07,4.95,58.02
0.003030,0.05,0.07,1.07,-0.77,4.27,56.13
0.003040,0.06,0.08,1.08,-0.31,3.40,55.52
0.003060,0.07,0.08,1.04,0.15,4.01,56.84
0.003070,0.07,0.08,1.04,0.43,1.76,58.88
0.003080,0.07,0.09,1.04,-0.37,-0.15,60.73
0.003100,0.06,0.08,1.02,-0.37,2.79,62.13
0.003110,0.06,0.07,1.00,1.18,5.74,61.56
0.003120,0.05,0.09,1.04,3.10,4.54,60.93
0.003140,0.04,0.09,1.08,4.60,3.18,60.47
0.003150,0.04,0.09,1.09,5.01,0.06,61.16
0.003160,0.03,0.08,1.12,4.89,-0.25,60.74
0.003180,0.03,0.08,1.15,4.25,-2.06,60.60
0.003190,0.03,0.10,1.16,1.22,-1.98,61.74
0.003200,0.02,0.11,1.14,-2.59,-0.40,63.02
0.003220,-0.01,0.10,1.11,-5.53,-2.02,63.22
0.003230,0.01,0.09,1.06,-4.24,0.28,61.05
0.003240,-0.00,0.10,1.05,-2.35,1.52,59.95
0.003260,0.03,0.09,1.03,-0.95,-0.34,60.15
0.003270,0.02,0.09,1.06,1.63,-0.52,60.78
0.003280,0.02,0.11,1.09,1.91,-2.50,61.57
0.003300,0.02,0.10,1.08,2.93,0.17,60.65
0.003310,0.03,0.10,1.10,3.31,-4.48,59.58
0.003320,0.06,0.13,1.10,1.66,-6.34,62.01
0.003340,0.09,0.12,1.10,-0.64,-3.62,63.39
0.003350,0.11,0.12,1.12,-2.18,-1.51,67.15
0.003360,0.09,0.14,1.13,-5.14,3.33,70.19
0.003380,0.09,0.12,1.12,-7.19,3.89,71.14
0.003390,0.08,0.12,1.07,-8.72,4.63,73.44
0.003400,0.07,0.10,1.01,-7.96,7.67,76.43
0.003420,0.04,0.08,1.00,-4.58,7.42,77.30
0.003430,0.00,0.09,0.99,0.02,5.97,77.31
0.003440,-0.00,0.09,1.04,3.17,3.14,74.98
0.003460,0.02,0.11,1.07,5.24,2.07,72.37
0.003470,0.06,0.12,1.10,4.92,-1.50,71.64
0.003480,0.07,0.14,1.10,3.18,0.39,73.92
0.003490,0.07,0.13,1.07,1.02,-2.54,77.12
0.003510,0.07,0.13,1.04,-0.57,-2.24,79.24
0.003520,0.07,0.12,0.99,0.85,1.18,81.53
0.003530,0.08,0.10,0.96,4.46,7.05,82.82
0.003550,0.06,0.10,0.96,9.95,9.18,82.00
0.003560,0.06,0.10,0.98,15.15,4.88,80.60
0.003570,0.05,0.15,1.07,15.22,-1.38,77.63
0.003590,0.07,0.17,1.11,12.40,-1.95,72.71
0.003600,0.14,0.18,1.10,9.91,5.50,71.18
0.003610,0.13,0.20,1.14,6.39,3.34,72.02
0.003630,0.13,0.21,1.15,0.35,6.24,75.52
0.003640,0.11,0.19,1.10,-4.92,7.74,78.76
0.003650,0.07,0.17,1.06,-6.02,7.52,79.76
0.003670,0.04,0.17,1.05,-6.67,8.79,81.23
0.003680,0.00,0.16,1.04,-6.56,11.91,79.95
0.003690,-0.01,0.14,1.03,-4.56,15.61,81.08
0.003710,-0.06,0.12,1.01,-2.80,15.59,79.89
0.003720,-0.09,0.09,1.02,0.40,15.69,76.94
0.003730,-0.07,0.09,1.04,3.98,8.30,72.59
0.003750,-0.05,0.12,1.08,4.44,1.90,69.59
0.003760,-0.00,0.13,1.08,4.60,-0.76,68.75
0.003770,0.03,0.16,1.07,3.35,3.69,69.46
0.003790,0.03,0.16,1.06,3.36,1.64,70.49
0.003800,0.02,0.16,1.05,3.56,2.13,73.23
0.003810,0.04,0.15,1.03,3.86,0.48,74.53
0.003830,0.05,0.17,1.06,4.51,2.91,77.18
0.003840,0.06,0.17,1.08,3.87,11.80,78.57
0.003850,0.02,0.17,1.10,2.67,12.22,77.93
0.003870,0.02,0.18,1.10,0.71,10.85,76.83
0.003880,0.02,0.17,1.07,-1.15,11.70,76.11
0.003890,0.02,0.17,1.07,-0.68,16.76,75.91
0.003910,-0.01,0.17,1.07,-2.03,17.76,76.27
0.003920,-0.04,0.17,1.06,-4.47,21.79,75.58
0.003930,-0.05,0.15,1.07,-6.19,23.11,74.16
0.003950,-0.09,0.15,1.09,-7.04,23.53,71.91
0.003960,-0.11,0.13,1.06,-6.24,20.13,68.14
0.003970,-0.09,0.13,1.04,-2.69,16.08,65.17
0.003990,-0.09,0.14,1.04,-2.15,11.00,64.09
0.004000,-0.06,0.15,1.06,-1.85,10.03,64.41
0.004010,-0.06,0.17,1.11,-3.85,14.26,65.60
0.004030,-0.09,0.18,1.14,-9.18,13.19,67.11
0.004040,-0.11,0.15,1.09,-11.35,15.30,66.15
0.004050,-0.12,0.13,1.05,-9.90,16.93,65.50
0.004070,-0.14,0.12,1.03,-7.28,15.75,63.00
0.004080,-0.13,0.12,1.02,-4.24,12.18,60.81
0.004100,-0.13,0.13,1.05,-1.21,8.31,58.87
0.004110,-0.10,0.15,1.08,-2.56,8.27,58.26
0.004120,-0.10,0.16,1.10,-6.12,9.82,56.73
0.004140,-0.10,0.17,1.11,-8.89,13.39,55.49
0.004150,-0.13,0.16,1.09,-9.00,7.98,55.76
0.004160,-0.09,0.14,1.07,-10.14,14.07,55.08
0.004180,-0.10,0.11,1.04,-10.18,12.14,53.76
0.004190,-0.09,0.13,1.05,-8.66,10.76,54.49
0.004200,-0.10,0.13,1.09,-8.02,12.66,56.06
0.004220,-0.13,0.12,1.10,-9.37,8.40,55.66
0.004230,-0.14,0.12,1.08,-11.68,9.16,53.53
0.004240,-0.15,0.09,1.04,-9.16,7.46,53.76
0.004260,-0.15,0.09,1.03,-7.28,3.57,53.05
0.004270,-0.14,0.11,1.04,-6.81,1.21,51.11
0.004280,-0.11,0.12,1.05,-5.07,-2.12,50.10
0.004300,-0.08,0.15,1.06,-5.84,-3.70,50.22
0.004310,-0.04,0.16,1.07,-7.66,-3.18,52.07
0.004320,-0.03,0.16,1.08,-10.11,0.23,54.00
0.004340,-0.02,0.16,1.10,-14.50,5.84,56.84
0.004350,-0.05,0.15,1.11,-19.02,10.77,56.69
0.004360,-0.07,0.14,1.08,-19.85,19.57,62.50
0.004380,-0.13,0.06,1.10,-15.63,11.98,59.60
0.004390,-0.16,0.06,0.93,-10.46,3.19,57.84
0.004400,-0.11,0.07,1.02,-10.87,11.61,54.95
0.004420,-0.17,0.06,1.01,-6.37,-3.40,52.64
0.004430,-0.13,0.08,1.04,-4.00,0.23,48.54
0.004440,-0.10,0.08,1.06,-4.58,3.02,47.73
0.004460,-0.08,0.11,1.05,-4.89,1.63,47.13
0.004470,-0.08,0.11,1.04,-4.98,-0.39,47.89
0.004480,-0.09,0.12,1.05,-3.89,2.95,48.75
0.004500,-0.09,0.12,1.06,-5.46,2.13,49.65
0.004510,-0.12,0.12,1.04,-7.24,0.69,49.05
0.004520,-0.12,0.13,1.05,-7.01,3.11,48.17
0.004540,-0.15,0.13,1.09,-7.29,8.34,45.95
0.004550,-0.16,0.12,1.08,-9.17,7.47,44.24
0.004570,-0.17,0.11,1.05,-8.73,4.02,41.67
0.004580,-0.16,0.10,1.03,-6.82,-1.51,39.20
0.004590,-0.17,0.09,1.03,-5.22,-6.10,37.89
0.004610,-0.15,0.07,1.03,-3.69,-6.85,36.78
0.004620,-0.19,0.09,1.06,-4.55,-6.51,34.58
0.004630,-0.18,0.07,1.04,-5.41,-7.20,31.12
0.004650,-0.17,0.07,1.02,-3.89,-7.72,28.92
0.004660,-0.16,0.08,1.02,-2.61,-7.68,27.35
0.004670,-0.16,0.08,1.02,-1.16,-5.04,25.89
0.004690,-0.16,0.07,1.04,-0.92,-8.65,24.76
0.004700,-0.15,0.07,1.05,-1.36,-9.65,22.95
0.004710,-0.14,0.08,1.08,-2.18,-7.34,18.96
0.004730,-0.12,0.07,1.08,-3.50,-5.89,20.05
0.004740,-0.12,0.08,1.07,-3.79,-6.56,18.44
0.004750,-0.11,0.07,1.06,-2.36,-8.34,17.58
0.004770,-0.11,0.07,1.05,-1.36,-10.83,16.73
0.004780,-0.10,0.07,1.04,-0.56,-7.10,15.82
0.004790,-0.11,0.07,1.05,-0.17,-4.86,14.10
0.004810,-0.10,0.07,1.08,-0.15,-2.47,13.07
0.004820,-0.09,0.06,1.09,-0.30,-1.35,12.14
0.004830,-0.08,0.06,1.07,0.12,-1.27,11.06
0.004850,-0.07,0.06,1.07,0.56,-2.39,10.85
0.004860,-0.06,0.08,1.08,3.23,-1.72,11.27
0.004870,-0.06,0.07,1.07,-1.09,0.15,11.31
0.004890,-0.06,0.07,1.06,-0.83,-0.88,11.61
0.004900,-0.07,0.07,1.05,0.94,-2.56,11.49
0.004910,-0.08,0.07,1.07,0.95,-3.45,10.60
0.004930,-0.08,0.06,1.07,0.97,1.52,8.48
0.004940,-0.09,0.06,1.07,-0.50,-2.10,6.46
0.004950,-0.08,0.05,1.04,1.12,-2.72,5.63
0.004970,-0.09,0.06,1.02,0.78,-5.21,4.02
0.004980,-0.08,0.06,1.02,0.79,-7.14,2.44
0.004990,-0.06,0.06,1.03,2.43,-5.69,1.31
0.005010,-0.04,0.07,1.04,3.80,-0.18,-0.01
0.005020,-0.04,0.07,1.05,3.05,1.82,-0.19
0.005030,-0.05,0.07,1.05,2.06,1.96,-0.84
0.005050,-0.05,0.07,1.06,0.95,-1.61,-2.04
0.005060,-0.04,0.07,1.05,0.76,-3.11,-2.50
0.005070,-0.01,0.06,1.05,0.92,-0.73,-2.38
0.005090,0.01,0.04,1.02,1.52,4.27,-0.38
0.005100,-0.01,0.02,1.02,2.97,7.38,2.61
0.005110,-0.07,0.03,1.07,5.38,10.76,3.78
0.005130,-0.13,0.05,1.11,5.37,10.54,0.24
0.005140,-0.14,0.06,1.12,4.50,6.38,-4.55
0.005150,-0.12,0.08,1.14,1.42,1.82,-9.07
0.005170,-0.07,0.08,1.09,-0.23,-7.31,-11.40
0.005180,-0.03,0.08,1.07,2.47,-0.04,-12.06
0.005190,-0.01,0.09,1.07,1.66,-0.06,-9.94
0.005210,-0.01,0.09,1.06,1.79,2.20,-8.36
0.005220,-0.04,0.07,1.06,2.95,3.23,-7.52
0.005230,-0.09,0.06,1.08,4.19,0.65,-8.71
0.005250,-0.09,0.08,1.09,2.84,-6.47,-10.46
0.005260,-0.09,0.09,1.09,1.36,-3.60,-12.41
0.005270,-0.06,0.08,1.07,1.92,-2.29,-13.11
0.005290,-0.08,0.08,1.07,1.58,-7.96,-14.31
0.005300,-0.07,0.09,1.07,1.74,-10.54,-15.76
0.005310,-0.05,0.09,1.06,2.05,-14.60,-16.15
0.005330,-0.04,0.10,1.05,2.11,-15.05,-16.15
0.005340,-0.03,0.09,1.04,3.40,-12.18,-16.79
0.005360,-0.01,0.10,1.03,3.49,-16.20,-16.34
0.005370,-0.00,0.10,1.03,4.33,-13.11,-15.69
0.005380,0.00,0.10,1.03,4.78,-14.89,-14.52
0.005400,0.01,0.10,1.04,5.05,-10.46,-13.73
0.005410,-0.00,0.11,1.06,4.18,-7.95,-13.42
0.005420,0.00,0.10,1.07,2.87,-8.30,-13.27
0.005440,-0.02,0.12,1.07,2.28,-11.28,-13.91
0.005450,-0.01,0.12,1.07,1.55,-14.34,-14.63
0.005460,-0.00,0.12,1.05,0.86,-15.32,-15.31
0.005480,0.00,0.12,1.05,1.73,-11.73,-15.65
0.005490,0.02,0.11,1.05,1.84,-7.88,-15.20
0.005500,0.00,0.10,1.05,1.21,-8.69,-12.90
0.005520,-0.00,0.09,1.05,1.18,-2.30,-11.22
0.005530,-0.03,0.08,1.04,0.09,-3.20,-9.89
0.005540,-0.04,0.07,1.06,0.61,-3.66,-7.92
0.005560,-0.04,0.06,1.07,0.49,-1.00,-6.89
0.005570,-0.05,0.05,1.06,1.42,-2.18,-6.55
0.005580,-0.04,0.05,1.06,1.36,-3.16,-5.37
0.005600,-0.04,0.06,1.07,0.23,-2.41,-4.47
0.005610,-0.07,0.05,1.06,0.51,-0.37,-5.50
0.005620,-0.07,0.06,1.07,0.15,4.05,-7.85
0.005640,-0.09,0.03,1.10,-1.69,2.89,-9.65
0.005650,-0.07,0.01,1.06,-0.84,5.44,-12.60
0.005660,-0.04,0.00,1.03,1.19,4.32,-12.74
0.005680,-0.03,0.01,1.03,4.03,6.97,-10.55
0.005690,-0.08,0.02,1.05,1.93,-2.93,-7.36
0.005700,-0.05,0.01,1.09,2.02,6.40,-6.36
0.005720,-0.08,0.01,1.07,2.14,11.50,-6.87
0.005730,-0.08,0.02,1.07,1.77,10.48,-6.00
0.005740,-0.07,0.02,1.10,2.19,11.92,-5.51
0.005760,-0.06,0.03,1.10,2.08,11.27,-5.11
0.005770,-0.05,0.03,1.08,2.30,8.21,-2.92
0.005780,-0.05,0.03,1.07,3.70,0.79,-0.95
0.005800,-0.04,0.04,1.09,5.76,-7.75,2.05
0.005810,-0.03,0.06,1.08,7.12,-10.19,5.48
0.005820,0.01,0.07,1.09,6.64,-2.70,10.32
0.005840,-0.02,0.07,1.17,3.39,3.89,14.31
0.005850,-0.04,0.04,1.22,-1.31,11.98,16.06
0.005860,-0.07,0.03,1.18,-5.27,11.08,16.20
0.005880,-0.05,0.03,1.14,-7.66,9.64,16.05
0.005890,-0.08,0.08,1.08,-8.82,6.98,16.34
0.005900,-0.15,0.16,1.05,-5.43,5.53,12.90
0.005920,-0.19,0.14,1.05,-1.59,-6.14,4.62
0.005930,-0.11,0.08,1.03,2.24,-21.79,1.35
0.005940,0.01,0.05,0.99,5.76,-22.92,5.44
0.005960,0.05,0.06,0.96,9.30,-26.04,11.34
0.005970,0.06,0.12,0.99,10.50,-26.63,17.89
0.005980,0.02,0.19,1.02,9.81,0.36,19.93
0.006000,-0.04,0.24,1.04,10.35,-11.76,15.13
0.006010,-0.10,0.32,1.05,12.17,-20.40,4.21
0.006020,-0.01,0.32,1.03,11.56,-24.81,-6.59
0.006040,0.12,0.31,0.98,12.37,-24.03,-10.01
0.006050,0.26,0.29,1.00,11.82,-13.36,-4.02
0.006070,0.29,0.29,1.09,7.22,5.62,9.11
0.006080,0.18,0.27,1.19,-1.37,18.98,19.31
0.006090,0.06,0.22,1.23,-8.48,27.07,24.32
0.006100,-0.07,0.19,1.22,-12.41,26.47,22.69
0.006120,-0.15,0.17,1.17,-13.73,23.27,15.54
0.006130,-0.17,0.15,1.09,-12.03,12.77,8.54
0.006150,-0.16,0.14,1.05,-5.61,2.08,1.55
0.006160,-0.16,0.17,1.06,-2.33,-8.07,-3.05
0.006170,-0.10,0.19,1.07,0.56,-10.89,-7.63
0.006190,-0.04,0.20,1.08,-0.66,-12.43,-8.67
0.006200,-0.00,0.19,1.10,0.44,0.23,-6.60
0.006210,-0.04,0.18,1.08,-2.13,-1.85,-4.55
0.006230,-0.06,0.15,1.04,-3.08,1.40,-4.21
0.006240,-0.09,0.14,1.02,-3.06,-0.78,-5.89
0.006250,-0.10,0.11,1.00,-1.20,-1.30,-8.10
0.006270,-0.13,0.11,0.98,1.93,-7.23,-12.31
0.006280,-0.10,0.13,1.00,5.90,-11.45,-16.38
0.006290,-0.07,0.14,1.02,9.05,-16.90,-19.61
0.006310,-0.02,0.17,1.04,8.95,-21.17,-20.37
0.006320,0.01,0.19,1.06,5.79,-20.56,-21.06
0.006330,0.04,0.20,1.06,3.37,-21.49,-21.98
0.006350,0.05,0.22,1.07,1.63,-23.90,-22.53
0.006360,0.09,0.23,1.08,-0.43,-19.74,-22.44
0.006370,0.07,0.24,1.09,-3.63,-13.83,-22.45
0.006390,0.05,0.24,1.06,-6.08,-6.82,-24.05
0.006400,0.02,0.25,1.05,-9.36,-4.52,-24.94
0.006410,0.01,0.22,1.03,-11.25,0.53,-26.42
0.006430,-0.04,0.20,1.02,-10.30,-2.15,-30.15
0.006440,-0.02,0.17,0.99,-4.89,-6.67,-29.87
0.006460,-0.04,0.19,1.01,-1.74,-13.89,-33.21
0.006470,-0.02,0.20,0.99,1.31,-19.03,-35.99
0.006480,0.05,0.21,0.98,2.56,-22.54,-35.26
0.006500,0.07,0.19,1.01,4.19,-18.73,-31.91
0.006510,0.07,0.19,1.04,6.73,-15.98,-30.29
0.006520,0.07,0.19,1.06,8.34,-8.02,-28.48
0.006540,0.04,0.17,1.07,8.12,-6.21,-28.05
0.006550,0.03,0.17,1.10,6.66,-9.56,-29.44
0.006560,0.02,0.19,1.12,6.66,-10.08,-32.18
0.006580,0.02,0.20,1.14,2.85,-16.28,-34.24
0.006590,0.05,0.21,1.10,1.05,-14.97,-35.90
0.006600,0.10,0.21,1.08,1.96,-11.10,-35.19
0.006620,0.13,0.22,1.08,2.45,-8.03,-31.53
0.006630,0.12,0.21,1.08,2.40,-6.87,-27.43
0.006640,0.12,0.20,1.07,1.92,-3.18,-24.92
0.006660,0.10,0.19,1.09,0.65,-5.21,-22.95
0.006670,0.08,0.18,1.08,-0.33,-7.60,-21.24
0.006680,0.07,0.19,1.08,-0.15,-8.67,-20.64
