Time,acce_x,acce_y,acce_z,gyro_x,gyro_y, gyro_z
0.000,0.267,-0.110,0.873,-1.435,2.458,2.290
0.000,0.268,-0.105,0.877,-1.237,2.595,2.336
0.010,0.269,-0.106,0.876,-0.885,2.183,2.351
0.010,0.272,-0.111,0.875,-0.794,1.740,2.229
0.010,0.280,-0.108,0.880,-0.718,0.962,2.061
0.020,0.285,-0.106,0.885,-0.702,-0.153,1.573
0.020,0.288,-0.106,0.888,-0.626,-0.840,1.130
0.020,0.295,-0.110,0.885,-0.305,-1.786,0.947
0.030,0.285,-0.104,0.889,-0.275,-2.275,0.672
0.030,0.289,-0.106,0.881,0.137,-3.145,0.504
0.030,0.297,-0.110,0.877,0.122,-3.466,0.473
0.040,0.295,-0.112,0.872,0.137,-3.450,0.168
0.040,0.298,-0.117,0.880,0.519,-2.901,0.000
0.040,0.302,-0.110,0.878,0.489,-2.275,-0.046
0.050,0.304,-0.116,0.874,0.656,-1.832,-0.183
0.050,0.307,-0.111,0.872,0.427,-1.115,-0.443
0.050,0.304,-0.103,0.862,0.550,-0.504,-0.611
0.060,0.297,-0.104,0.862,0.305,0.046,-0.794
0.060,0.296,-0.094,0.856,0.336,0.656,-0.855
0.070,0.283,-0.098,0.864,0.153,0.244,-1.191
0.070,0.278,-0.095,0.858,-0.031,-0.733,-1.389
0.070,0.284,-0.095,0.864,0.015,-1.176,-1.282
0.080,0.295,-0.085,0.867,0.015,-0.702,-1.466
0.080,0.290,-0.094,0.876,0.031,-0.641,-1.588
0.090,0.283,-0.086,0.867,0.107,-0.580,-1.664
0.090,0.280,-0.093,0.872,0.351,-1.008,-1.679
0.090,0.281,-0.094,0.864,0.290,-1.130,-1.649
0.100,0.277,-0.091,0.858,0.412,-1.084,-1.466
0.100,0.271,-0.094,0.860,0.397,-1.023,-1.420
0.110,0.268,-0.091,0.859,0.107,-1.359,-1.405
0.110,0.272,-0.097,0.852,-0.153,-1.008,-1.084
0.110,0.274,-0.094,0.871,-0.489,-0.427,-1.084
0.120,0.276,-0.095,0.852,-0.412,0.305,-0.885
0.120,0.271,-0.099,0.855,-0.656,0.962,-0.611
0.130,0.271,-0.098,0.867,-0.672,1.130,-0.351
0.130,0.276,-0.102,0.860,-0.489,1.664,-0.153
0.130,0.269,-0.107,0.863,-0.611,2.076,-0.107
0.140,0.267,-0.101,0.857,-0.840,2.046,-0.015
0.140,0.282,-0.101,0.868,-0.855,1.893,0.305
0.150,0.278,-0.099,0.865,-1.053,1.573,0.046
0.150,0.278,-0.100,0.878,-0.840,1.557,-0.031
0.150,0.281,-0.099,0.873,-0.687,1.618,-0.198
0.160,0.283,-0.104,0.876,-0.443,1.344,-0.137
0.160,0.283,-0.100,0.882,-0.260,1.069,-0.443
0.170,0.282,-0.103,0.876,0.046,1.115,-0.565
0.170,0.273,-0.103,0.890,0.427,0.321,-1.084
0.170,0.269,-0.104,0.887,0.748,-1.389,-1.420
0.180,0.277,-0.103,0.873,0.840,-2.611,-1.649
0.180,0.280,-0.102,0.882,0.550,-3.634,-1.847
0.190,0.276,-0.103,0.881,0.595,-3.756,-2.076
0.190,0.271,-0.100,0.875,0.718,-3.771,-1.954
0.190,0.269,-0.099,0.868,0.763,-3.450,-1.908
0.200,0.266,-0.101,0.866,0.977,-2.809,-1.832
0.200,0.261,-0.104,0.855,0.733,-2.534,-1.389
0.210,0.266,-0.102,0.851,0.595,-1.893,-1.130
0.210,0.263,-0.103,0.847,0.031,-1.313,-0.672
0.210,0.267,-0.096,0.852,-0.260,-1.038,-0.321
0.220,0.264,-0.095,0.848,-0.687,-0.305,0.275
0.220,0.267,-0.097,0.857,-0.748,0.183,0.580
0.230,0.274,-0.095,0.863,-1.206,0.626,0.687
0.230,0.276,-0.093,0.864,-1.038,0.855,0.779
0.230,0.282,-0.087,0.869,-0.748,1.740,0.855
0.240,0.285,-0.087,0.873,-0.305,2.397,0.733
0.240,0.275,-0.095,0.866,0.046,2.168,0.901
0.250,0.270,-0.100,0.868,0.382,1.618,0.748
0.250,0.277,-0.091,0.861,0.992,1.450,0.718
0.250,0.280,-0.089,0.871,1.023,0.840,0.702
0.260,0.283,-0.088,0.856,1.008,0.580,0.504
0.260,0.289,-0.086,0.850,1.115,0.473,0.275
0.260,0.288,-0.080,0.853,0.885,0.015,-0.046
0.270,0.282,-0.083,0.850,0.763,0.031,-0.031
0.270,0.274,-0.083,0.844,0.366,0.015,-0.198
0.280,0.280,-0.074,0.841,0.305,0.076,-0.229
0.280,0.275,-0.080,0.836,0.229,0.336,-0.275
0.280,0.276,-0.077,0.835,-0.168,0.351,-0.046
0.290,0.272,-0.079,0.829,-0.763,0.290,0.229
0.290,0.281,-0.083,0.834,-1.130,0.901,0.366
0.300,0.279,-0.084,0.843,-1.618,1.267,0.305
0.300,0.279,-0.084,0.838,-1.573,0.840,0.321
0.300,0.274,-0.083,0.839,-1.817,-0.076,0.351
0.310,0.285,-0.085,0.837,-1.985,-0.473,-0.031
0.310,0.276,-0.083,0.833,-1.985,-0.931,-0.137
0.320,0.276,-0.091,0.838,-1.878,-1.420,-0.260
0.320,0.271,-0.087,0.830,-1.939,-2.183,-0.244
0.320,0.269,-0.086,0.822,-2.031,-2.183,-0.031
0.330,0.272,-0.080,0.821,-2.305,-2.443,0.015
0.330,0.267,-0.088,0.826,-2.519,-2.565,0.061
0.340,0.275,-0.081,0.823,-2.840,-2.870,0.092
0.340,0.276,-0.086,0.817,-3.206,-2.855,0.275
0.340,0.272,-0.077,0.820,-3.802,-2.977,0.351
0.350,0.275,-0.078,0.804,-4.397,-2.870,0.473
0.350,0.283,-0.077,0.812,-4.748,-2.550,0.427
0.360,0.295,-0.077,0.814,-4.885,-2.443,0.061
0.360,0.292,-0.071,0.807,-5.450,-2.092,0.061
0.360,0.288,-0.078,0.811,-5.725,-1.847,-0.015
0.370,0.285,-0.072,0.801,-5.771,-2.305,-0.076
0.370,0.285,-0.072,0.796,-6.229,-2.473,0.061
0.380,0.279,-0.071,0.793,-6.580,-2.046,0.366
0.380,0.281,-0.077,0.792,-6.489,-1.985,0.305
0.380,0.289,-0.072,0.796,-6.977,-1.863,0.489
0.390,0.298,-0.082,0.799,-7.389,-1.130,0.443
0.390,0.290,-0.083,0.799,-7.267,-0.550,0.489
0.400,0.293,-0.076,0.796,-7.359,-0.473,0.321
0.400,0.283,-0.082,0.795,-8.031,-0.580,0.473
0.400,0.290,-0.083,0.790,-8.550,-0.168,0.595
0.410,0.296,-0.080,0.798,-9.237,0.718,0.809
0.410,0.298,-0.076,0.806,-9.634,1.145,0.779
0.420,0.302,-0.076,0.794,-10.183,1.496,0.641
0.420,0.296,-0.081,0.799,-10.702,1.649,0.824
0.420,0.306,-0.076,0.800,-11.145,1.908,0.656
0.430,0.292,-0.082,0.808,-11.557,2.061,0.458
0.430,0.296,-0.076,0.810,-11.389,2.076,0.290
0.440,0.283,-0.072,0.804,-11.664,1.771,0.076
0.440,0.286,-0.078,0.810,-12.046,1.313,-0.015
0.440,0.289,-0.080,0.803,-12.229,1.160,-0.229
0.450,0.291,-0.079,0.806,-12.733,0.702,-0.595
0.450,0.286,-0.084,0.805,-13.145,0.260,-1.023
0.460,0.285,-0.094,0.788,-13.481,-0.244,-1.450
0.460,0.278,-0.097,0.808,-14.183,-1.389,-2.198
0.460,0.277,-0.106,0.792,-15.237,-2.916,-2.885
0.470,0.272,-0.112,0.809,-16.046,-5.145,-3.542
0.470,0.266,-0.115,0.819,-16.916,-6.687,-3.740
0.480,0.271,-0.121,0.834,-17.664,-7.863,-3.771
0.480,0.270,-0.122,0.837,-18.458,-8.870,-3.756
0.490,0.272,-0.136,0.853,-18.901,-8.672,-3.573
0.490,0.280,-0.137,0.869,-18.763,-7.649,-3.374
0.490,0.286,-0.136,0.879,-18.641,-6.580,-3.282
0.500,0.288,-0.143,0.902,-18.275,-5.130,-2.916
0.500,0.284,-0.142,0.909,-17.344,-3.863,-2.687
0.510,0.277,-0.146,0.918,-16.458,-2.855,-2.290
0.510,0.274,-0.145,0.932,-15.023,-1.466,-1.893
0.510,0.279,-0.150,0.937,-14.122,-0.336,-1.450
0.520,0.267,-0.148,0.930,-12.763,0.229,-0.992
0.520,0.268,-0.150,0.924,-12.198,0.489,-0.779
0.530,0.273,-0.148,0.935,-11.466,0.076,-0.748
0.530,0.278,-0.144,0.928,-11.008,0.794,-0.443
0.530,0.271,-0.140,0.922,-10.214,1.298,-0.290
0.540,0.266,-0.140,0.910,-10.031,0.260,-0.168
0.540,0.270,-0.143,0.908,-9.710,-0.168,-0.351
0.550,0.272,-0.142,0.909,-9.374,-0.076,0.061
0.550,0.284,-0.141,0.900,-9.267,0.137,-0.214
0.560,0.271,-0.141,0.888,-9.008,-0.198,-0.198
0.560,0.277,-0.143,0.887,-9.145,-0.076,-0.458
0.560,0.274,-0.137,0.884,-9.069,0.458,-0.397
0.570,0.271,-0.134,0.886,-8.901,0.916,-0.519
0.570,0.267,-0.141,0.876,-8.412,0.321,-0.397
0.580,0.255,-0.129,0.870,-8.366,-0.366,-0.076
0.580,0.251,-0.143,0.868,-8.412,-0.565,0.351
0.580,0.267,-0.132,0.859,-8.626,-0.489,0.473
0.590,0.268,-0.141,0.863,-8.641,-0.076,0.458
0.590,0.274,-0.139,0.869,-8.641,0.595,0.779
0.600,0.268,-0.138,0.859,-8.992,0.626,0.947
0.600,0.277,-0.143,0.852,-9.023,0.321,1.206
0.600,0.270,-0.135,0.850,-9.466,0.031,1.405
0.610,0.285,-0.143,0.848,-9.893,-0.305,1.359
0.610,0.279,-0.145,0.862,-10.076,-0.550,1.450
0.610,0.286,-0.137,0.859,-9.847,-1.038,1.298
0.620,0.293,-0.147,0.866,-9.756,-1.115,0.947
0.620,0.294,-0.136,0.869,-9.771,-0.443,0.611
0.630,0.293,-0.145,0.872,-9.420,-0.137,0.702
0.630,0.296,-0.144,0.860,-8.931,-0.260,0.641
0.630,0.283,-0.147,0.854,-8.351,-0.183,0.504
0.640,0.285,-0.145,0.857,-8.382,-0.595,0.397
0.640,0.288,-0.146,0.848,-8.305,-0.809,0.427
0.650,0.296,-0.139,0.839,-8.763,-0.641,0.290
0.650,0.284,-0.135,0.844,-9.527,-0.427,0.290
0.650,0.281,-0.136,0.842,-9.954,-0.595,0.229
0.660,0.277,-0.147,0.857,-10.840,-0.916,0.198
0.660,0.270,-0.151,0.854,-11.374,-1.450,0.504
0.670,0.268,-0.153,0.855,-11.573,-1.893,0.977
0.670,0.272,-0.149,0.868,-11.527,-1.939,1.237
0.680,0.275,-0.156,0.883,-11.405,-1.817,1.802
0.680,0.285,-0.157,0.884,-11.313,-1.084,2.168
0.680,0.290,-0.160,0.898,-10.855,-0.321,2.168
0.690,0.297,-0.160,0.895,-10.290,-0.183,2.275
0.690,0.292,-0.159,0.894,-10.000,-0.122,2.198
0.700,0.289,-0.161,0.892,-9.618,-0.672,2.061
0.700,0.284,-0.164,0.891,-9.298,-1.069,2.168
0.700,0.296,-0.163,0.895,-9.069,-1.344,2.183
0.710,0.306,-0.164,0.885,-8.809,-1.939,2.260
0.710,0.292,-0.160,0.881,-8.687,-3.496,2.366
0.720,0.312,-0.159,0.878,-8.565,-4.260,2.260
0.720,0.334,-0.160,0.898,-8.763,-3.145,2.046
0.720,0.344,-0.168,0.913,-8.809,-1.695,1.817
0.730,0.349,-0.167,0.902,-8.763,-1.084,1.313
0.730,0.351,-0.167,0.916,-8.458,-0.351,0.702
0.740,0.359,-0.169,0.920,-8.015,0.794,0.061
0.740,0.353,-0.173,0.933,-7.313,0.977,-0.534
0.740,0.350,-0.171,0.941,-6.489,1.527,-1.237
0.750,0.347,-0.174,0.940,-5.573,1.221,-1.740
0.750,0.346,-0.169,0.947,-4.794,1.466,-2.275
0.760,0.338,-0.168,0.939,-3.786,1.649,-2.519
0.760,0.338,-0.168,0.926,-3.221,1.603,-2.901
0.760,0.326,-0.170,0.921,-2.840,1.740,-3.313
0.770,0.332,-0.170,0.920,-2.351,2.198,-3.359
0.770,0.325,-0.167,0.914,-1.954,2.733,-3.557
0.780,0.314,-0.167,0.907,-1.771,3.176,-3.832
0.780,0.297,-0.165,0.902,-1.481,3.344,-3.496
0.780,0.291,-0.161,0.898,-1.435,3.664,-3.374
0.790,0.284,-0.158,0.890,-1.557,3.740,-3.099
0.790,0.287,-0.170,0.886,-1.756,4.137,-2.916
0.800,0.283,-0.162,0.895,-1.939,4.779,-2.809
0.800,0.282,-0.171,0.897,-1.969,5.298,-2.840
0.800,0.274,-0.170,0.898,-1.679,5.160,-2.595
0.810,0.258,-0.169,0.915,-1.328,4.122,-2.458
0.810,0.258,-0.176,0.920,-0.947,3.328,-2.198
0.820,0.271,-0.169,0.920,-0.458,3.374,-1.847
0.820,0.260,-0.177,0.922,0.153,3.099,-1.679
0.820,0.259,-0.179,0.911,0.489,2.321,-1.420
0.830,0.258,-0.169,0.906,0.779,1.832,-1.313
0.830,0.260,-0.171,0.906,0.809,1.618,-1.145
0.830,0.262,-0.177,0.895,0.901,1.313,-0.824
0.840,0.252,-0.175,0.893,0.855,0.870,-0.824
0.840,0.259,-0.171,0.887,1.008,0.229,-0.382
0.850,0.256,-0.173,0.886,1.099,-0.168,-0.244
0.850,0.259,-0.169,0.885,0.947,-0.656,-0.198
0.850,0.257,-0.167,0.874,1.023,-0.885,0.076
0.860,0.260,-0.170,0.858,1.069,-1.695,-0.153
0.860,0.266,-0.170,0.872,0.779,-2.580,-0.260
0.870,0.271,-0.171,0.869,0.290,-2.580,-0.427
0.870,0.277,-0.163,0.873,0.229,-2.931,-0.275
0.870,0.277,-0.165,0.876,0.473,-2.992,-0.397
0.880,0.277,-0.172,0.876,0.702,-3.176,-0.519
0.880,0.280,-0.170,0.873,0.901,-3.756,-0.672
0.890,0.283,-0.167,0.878,1.069,-3.939,-0.779
0.890,0.284,-0.171,0.877,1.282,-3.817,-0.901
0.890,0.287,-0.171,0.885,1.618,-3.221,-1.160
0.900,0.282,-0.168,0.890,1.817,-2.947,-1.267
0.900,0.283,-0.169,0.885,2.061,-3.145,-1.206
0.910,0.281,-0.165,0.875,2.351,-3.191,-1.221
0.910,0.286,-0.171,0.865,2.473,-2.931,-1.206
0.910,0.283,-0.160,0.866,2.840,-2.275,-0.992
0.920,0.282,-0.161,0.864,2.992,-1.450,-0.947
0.920,0.278,-0.160,0.871,3.282,-1.160,-0.962
0.930,0.275,-0.166,0.858,3.542,-1.145,-0.519
0.930,0.266,-0.161,0.854,3.328,-1.893,-0.275
0.930,0.270,-0.157,0.851,3.191,-2.504,0.061
0.940,0.288,-0.153,0.863,3.359,-1.649,0.275
0.940,0.291,-0.155,0.865,3.557,-0.412,0.427
0.950,0.293,-0.152,0.862,3.878,0.000,0.412
0.950,0.297,-0.157,0.857,4.061,0.580,0.473
0.950,0.291,-0.152,0.860,4.260,1.252,0.687
0.960,0.301,-0.148,0.856,4.718,2.092,0.427
0.960,0.289,-0.141,0.857,4.824,2.885,0.534
0.970,0.285,-0.141,0.849,4.977,3.038,0.550
0.970,0.290,-0.139,0.848,4.794,2.748,0.580
0.970,0.285,-0.138,0.843,4.672,2.107,0.473
0.980,0.284,-0.137,0.833,4.061,2.137,0.458
0.980,0.291,-0.132,0.824,3.664,2.214,0.229
0.980,0.285,-0.129,0.818,2.794,2.031,0.092
0.990,0.284,-0.131,0.822,2.443,1.435,0.061
0.990,0.284,-0.128,0.815,1.802,0.809,-0.260
1.000,0.279,-0.119,0.810,1.450,0.809,-0.260
1.000,0.275,-0.133,0.813,0.901,0.427,-0.397
1.000,0.285,-0.128,0.813,0.611,0.000,-0.443
1.010,0.274,-0.132,0.820,0.122,0.031,-0.229
1.010,0.276,-0.132,0.827,0.031,-0.427,-0.183
1.020,0.270,-0.136,0.829,-0.336,-0.824,-0.061
1.020,0.271,-0.127,0.831,-0.733,-1.206,0.229
1.020,0.289,-0.128,0.831,-1.206,-0.687,0.489
1.030,0.286,-0.124,0.828,-1.389,0.107,0.885
1.030,0.288,-0.128,0.828,-1.756,0.611,0.992
1.040,0.293,-0.127,0.839,-1.832,1.511,1.038
1.040,0.298,-0.129,0.833,-2.092,2.901,1.038
1.040,0.295,-0.123,0.841,-2.214,3.420,0.962
1.050,0.291,-0.131,0.840,-2.061,3.542,0.641
1.050,0.294,-0.129,0.840,-2.229,3.573,0.656
1.050,0.303,-0.127,0.835,-2.076,3.267,0.489
1.060,0.304,-0.128,0.839,-2.198,3.191,-0.061
1.060,0.301,-0.129,0.841,-2.015,3.115,-0.580
1.070,0.296,-0.132,0.835,-1.847,2.931,-1.130
1.070,0.293,-0.129,0.836,-1.802,1.924,-1.725
1.070,0.282,-0.133,0.836,-1.649,1.084,-2.092
1.080,0.275,-0.146,0.837,-1.618,0.061,-2.244
1.080,0.264,-0.143,0.841,-1.603,-0.611,-2.275
1.090,0.265,-0.145,0.841,-1.466,-1.588,-2.214
1.090,0.259,-0.144,0.832,-1.695,-2.031,-2.214
1.090,0.256,-0.138,0.840,-1.588,-2.214,-1.878
1.100,0.250,-0.136,0.836,-1.725,-2.748,-1.511
1.100,0.249,-0.138,0.825,-1.893,-2.824,-1.038
1.110,0.261,-0.133,0.827,-2.458,-2.427,-0.733
1.110,0.263,-0.136,0.821,-2.733,-2.366,-0.305
1.120,0.262,-0.141,0.825,-3.084,-1.740,0.092
1.120,0.270,-0.134,0.818,-3.695,-1.267,0.137
1.120,0.272,-0.133,0.821,-3.725,-0.931,0.382
1.130,0.264,-0.138,0.818,-4.366,-0.992,0.580
1.130,0.264,-0.134,0.814,-4.870,-1.191,0.763
1.140,0.262,-0.129,0.810,-5.145,-1.023,0.641
1.140,0.266,-0.127,0.813,-5.221,-1.115,0.519
1.140,0.263,-0.136,0.812,-5.130,-1.603,0.687
1.150,0.256,-0.132,0.811,-5.252,-2.183,0.321
1.150,0.258,-0.127,0.794,-5.481,-2.672,0.168
1.160,0.258,-0.130,0.787,-5.710,-2.672,0.260
1.160,0.250,-0.124,0.783,-5.832,-3.038,0.122
1.160,0.245,-0.129,0.779,-6.092,-3.267,-0.015
1.170,0.241,-0.129,0.768,-6.504,-3.008,0.229
1.170,0.237,-0.129,0.759,-6.870,-3.008,0.382
1.180,0.236,-0.133,0.747,-7.160,-3.115,0.656
1.180,0.226,-0.130,0.740,-7.649,-3.466,1.099
1.180,0.225,-0.133,0.741,-8.153,-3.634,1.435
1.190,0.225,-0.133,0.743,-8.687,-3.282,1.954
1.190,0.225,-0.135,0.721,-9.450,-3.481,2.504
1.200,0.225,-0.135,0.715,-10.107,-3.695,3.115
1.200,0.225,-0.138,0.698,-11.160,-2.885,3.725
1.200,0.235,-0.135,0.691,-11.878,-2.550,4.031
1.210,0.233,-0.141,0.684,-12.595,-1.725,4.397
1.210,0.229,-0.140,0.663,-13.359,-1.588,4.809
1.220,0.224,-0.140,0.649,-14.229,-2.229,5.023
1.220,0.224,-0.135,0.625,-15.618,-2.534,5.099
1.220,0.221,-0.134,0.625,-16.321,-2.611,5.038
1.230,0.216,-0.143,0.609,-17.389,-2.977,4.885
1.230,0.213,-0.137,0.591,-18.427,-4.183,4.718
1.240,0.207,-0.132,0.582,-19.771,-5.481,4.733
1.240,0.201,-0.134,0.553,-20.794,-6.947,4.473
1.240,0.191,-0.127,0.544,-21.924,-8.718,4.702
1.250,0.190,-0.129,0.526,-23.267,-10.305,4.870
1.250,0.188,-0.122,0.508,-24.992,-11.069,5.405
1.260,0.191,-0.120,0.501,-26.916,-12.000,5.786
1.260,0.192,-0.114,0.482,-28.824,-12.672,6.168
1.260,0.198,-0.110,0.468,-31.069,-13.542,6.748
1.270,0.186,-0.102,0.451,-33.496,-14.122,7.420
1.270,0.192,-0.096,0.444,-36.168,-15.176,8.321
1.280,0.193,-0.099,0.441,-38.718,-16.092,8.794
1.280,0.200,-0.100,0.420,-41.359,-17.191,9.435
1.290,0.197,-0.096,0.422,-44.427,-18.427,10.061
1.290,0.197,-0.091,0.412,-47.130,-19.985,10.626
1.290,0.208,-0.093,0.396,-50.046,-21.695,10.809
1.300,0.205,-0.094,0.389,-52.519,-23.527,10.977
1.300,0.209,-0.101,0.379,-55.328,-25.893,11.115
1.310,0.223,-0.107,0.372,-58.092,-27.634,11.359
1.310,0.214,-0.112,0.367,-60.443,-29.634,11.313
1.320,0.224,-0.121,0.353,-63.359,-31.924,11.985
1.320,0.218,-0.123,0.342,-66.366,-33.191,13.420
1.320,0.237,-0.128,0.332,-69.939,-33.496,15.313
1.330,0.255,-0.135,0.331,-73.954,-33.328,17.344
1.330,0.289,-0.143,0.336,-78.183,-32.000,19.053
1.340,0.345,-0.158,0.351,-82.092,-28.962,20.107
1.340,0.379,-0.169,0.362,-85.603,-25.130,20.733
1.350,0.397,-0.175,0.368,-88.809,-20.763,20.977
1.350,0.425,-0.192,0.394,-91.817,-16.504,20.611
1.350,0.427,-0.201,0.418,-94.092,-14.076,19.985
1.360,0.436,-0.213,0.416,-95.725,-11.985,18.748
1.360,0.426,-0.229,0.425,-96.992,-10.641,17.298
1.370,0.417,-0.242,0.430,-97.969,-10.550,15.954
1.370,0.405,-0.256,0.428,-98.916,-11.145,14.763
1.380,0.387,-0.266,0.419,-100.046,-12.260,13.695
1.380,0.377,-0.277,0.417,-101.237,-13.740,12.504
1.380,0.359,-0.290,0.398,-102.550,-16.015,11.695
1.390,0.338,-0.299,0.396,-103.908,-17.954,11.237
1.390,0.320,-0.314,0.383,-105.771,-19.557,11.969
1.400,0.287,-0.331,0.379,-107.817,-21.099,13.573
1.400,0.292,-0.342,0.371,-110.550,-21.878,15.664
1.410,0.305,-0.355,0.380,-113.359,-20.656,17.725
1.410,0.309,-0.379,0.381,-116.000,-17.618,20.519
1.410,0.290,-0.402,0.389,-118.718,-13.466,24.656
1.420,0.296,-0.429,0.405,-121.985,-7.420,29.985
1.420,0.313,-0.455,0.418,-125.038,1.481,35.618
1.430,0.345,-0.479,0.446,-127.771,12.366,41.557
1.430,0.373,-0.503,0.473,-130.473,25.939,47.313
1.440,0.405,-0.516,0.498,-132.916,41.099,52.260
1.440,0.430,-0.532,0.515,-135.206,57.771,56.534
1.440,0.453,-0.553,0.539,-137.237,74.550,60.122
1.450,0.453,-0.563,0.545,-138.137,90.427,62.901
1.450,0.456,-0.577,0.557,-139.145,105.206,64.901
1.460,0.462,-0.598,0.571,-139.389,118.595,64.382
1.460,0.462,-0.604,0.575,-138.962,126.061,60.947
1.470,0.452,-0.611,0.584,-137.817,126.137,55.527
1.470,0.420,-0.627,0.588,-136.397,119.237,48.473
1.470,0.398,-0.640,0.573,-134.427,106.519,40.107
1.480,0.367,-0.645,0.566,-132.992,91.298,31.939
1.480,0.346,-0.659,0.552,-132.198,72.336,23.435
1.490,0.339,-0.671,0.527,-131.023,53.985,14.550
1.490,0.319,-0.685,0.519,-129.939,34.779,6.351
1.500,0.316,-0.707,0.491,-129.145,17.878,-0.382
1.500,0.306,-0.715,0.474,-129.878,3.374,-6.351
1.500,0.285,-0.723,0.444,-131.817,-8.565,-10.977
1.510,0.271,-0.743,0.410,-135.527,-17.588,-13.771
1.510,0.256,-0.754,0.392,-140.061,-21.695,-15.267
1.520,0.229,-0.785,0.399,-144.641,-20.748,-14.840
1.520,0.214,-0.807,0.385,-149.511,-15.802,-13.145
1.530,0.164,-0.838,0.390,-153.786,-9.481,-9.954
1.530,0.131,-0.866,0.402,-157.481,-1.435,-5.328
1.530,0.069,-0.909,0.421,-160.290,6.626,0.763
1.540,0.041,-0.929,0.416,-162.718,14.550,8.244
1.540,0.045,-0.951,0.413,-166.305,23.527,16.611
1.550,0.078,-0.954,0.433,-170.611,35.069,25.282
1.550,0.152,-0.986,0.460,-174.550,47.191,31.603
1.560,0.209,-1.006,0.522,-176.916,57.511,35.878
1.560,0.260,-1.016,0.561,-177.908,65.908,38.137
1.560,0.296,-1.043,0.599,-178.290,73.023,39.115
1.570,0.341,-1.058,0.637,-177.527,78.305,38.565
1.570,0.386,-1.071,0.652,-176.321,82.092,36.244
1.580,0.424,-1.080,0.683,-174.351,83.160,31.405
1.580,0.448,-1.094,0.715,-170.855,80.305,24.321
1.590,0.456,-1.099,0.730,-166.595,73.649,16.214
1.590,0.450,-1.108,0.731,-161.847,62.321,6.931
1.590,0.450,-1.101,0.738,-156.656,50.351,-2.336
1.600,0.438,-1.101,0.709,-152.122,39.481,-11.359
1.600,0.411,-1.095,0.701,-147.924,26.947,-19.450
1.610,0.365,-1.091,0.688,-142.840,14.031,-26.534
1.610,0.326,-1.091,0.651,-138.107,0.550,-32.504
1.620,0.305,-1.076,0.596,-135.924,-9.740,-36.992
1.620,0.281,-1.079,0.563,-134.672,-16.015,-39.573
1.620,0.255,-1.081,0.533,-134.015,-19.450,-40.901
1.630,0.206,-1.085,0.496,-134.015,-21.786,-40.443
1.630,0.185,-1.087,0.465,-134.992,-21.008,-38.870
1.640,0.156,-1.093,0.432,-137.237,-16.214,-35.756
1.640,0.133,-1.098,0.411,-139.893,-9.725,-31.710
1.650,0.103,-1.112,0.408,-142.092,-3.603,-27.328
1.650,0.068,-1.121,0.428,-143.389,0.885,-22.626
1.650,0.061,-1.136,0.421,-144.275,5.435,-17.725
1.660,0.061,-1.144,0.421,-144.626,10.198,-13.466
1.660,0.069,-1.158,0.430,-143.985,14.733,-9.359
1.670,0.091,-1.154,0.449,-143.740,17.908,-6.351
1.670,0.112,-1.162,0.440,-142.794,21.008,-4.321
1.680,0.124,-1.165,0.443,-141.069,22.672,-3.481
1.680,0.135,-1.171,0.438,-139.237,21.847,-3.420
1.680,0.145,-1.171,0.441,-137.771,19.863,-4.550
1.690,0.146,-1.169,0.439,-136.458,17.603,-5.496
1.690,0.159,-1.168,0.426,-135.191,14.626,-7.099
1.700,0.153,-1.175,0.413,-134.351,10.733,-9.115
1.700,0.145,-1.176,0.375,-134.229,4.931,-11.252
1.710,0.148,-1.180,0.373,-135.008,-0.595,-12.809
1.710,0.149,-1.192,0.357,-135.878,-4.611,-14.427
1.710,0.137,-1.195,0.356,-136.855,-7.679,-14.977
1.720,0.122,-1.204,0.365,-137.756,-10.412,-15.023
1.720,0.108,-1.211,0.372,-138.092,-12.015,-14.504
1.730,0.090,-1.215,0.381,-138.611,-12.336,-12.489
1.730,0.087,-1.233,0.395,-138.534,-9.069,-9.084
1.740,0.082,-1.239,0.416,-137.573,-2.336,-5.237
1.740,0.089,-1.234,0.434,-136.534,6.046,-0.916
1.740,0.079,-1.242,0.445,-135.008,14.687,3.511
1.750,0.068,-1.247,0.464,-132.672,23.115,7.893
1.750,0.079,-1.245,0.475,-129.634,29.099,11.298
1.760,0.089,-1.241,0.490,-126.107,31.115,12.290
1.760,0.117,-1.242,0.488,-122.061,29.450,11.542
1.770,0.135,-1.240,0.486,-118.336,24.641,8.458
1.770,0.162,-1.235,0.507,-112.702,15.405,3.802
1.770,0.155,-1.237,0.510,-105.908,0.321,-1.695
1.780,0.149,-1.240,0.481,-99.664,-17.710,-8.290
1.780,0.112,-1.225,0.405,-96.366,-42.901,-13.420
1.790,0.085,-1.206,0.373,-95.328,-75.221,-16.366
1.790,0.115,-1.156,0.350,-94.809,-97.511,-21.023
1.800,0.206,-1.194,0.360,-89.420,-100.809,-25.863
1.800,0.161,-1.190,0.333,-86.092,-109.466,-28.641
1.800,0.136,-1.171,0.278,-85.420,-118.443,-29.160
1.810,0.130,-1.162,0.239,-85.802,-122.702,-28.031
1.810,0.141,-1.157,0.210,-86.733,-120.275,-26.229
1.820,0.147,-1.145,0.178,-89.160,-113.008,-23.084
1.820,0.157,-1.133,0.172,-91.908,-103.038,-19.176
1.830,0.154,-1.126,0.172,-94.534,-91.542,-14.962
1.830,0.159,-1.133,0.160,-96.458,-80.046,-10.565
1.840,0.162,-1.125,0.161,-98.214,-69.985,-6.061
1.840,0.172,-1.128,0.171,-99.176,-60.534,-2.794
1.840,0.187,-1.120,0.170,-100.031,-51.924,0.595
1.850,0.197,-1.123,0.182,-99.099,-44.351,3.771
1.850,0.202,-1.119,0.190,-97.145,-38.076,5.786
1.860,0.206,-1.117,0.170,-95.359,-32.641,7.527
1.860,0.200,-1.113,0.172,-93.863,-30.611,9.069
1.860,0.208,-1.106,0.162,-92.198,-30.137,9.878
1.870,0.243,-1.107,0.151,-89.771,-24.870,9.603
1.870,0.275,-1.108,0.146,-86.443,-17.985,8.168
1.880,0.269,-1.100,0.125,-84.046,-13.740,7.176
1.880,0.251,-1.089,0.091,-83.053,-11.802,5.679
1.890,0.204,-1.092,0.072,-80.885,-18.229,5.496
1.890,0.230,-1.124,0.064,-79.267,-17.588,3.023
1.890,0.256,-1.067,-0.017,-82.992,-15.695,2.214
1.900,0.201,-1.061,-0.009,-86.977,-17.969,1.405
1.900,0.190,-1.078,-0.002,-87.710,-22.244,0.733
1.910,0.188,-1.073,-0.006,-89.115,-25.679,-0.183
1.910,0.190,-1.077,-0.024,-90.153,-30.183,-0.626
1.920,0.186,-1.076,-0.048,-92.198,-33.740,-0.550
1.920,0.183,-1.079,-0.059,-93.206,-35.847,0.183
1.920,0.191,-1.068,-0.043,-94.046,-37.969,1.160
1.930,0.202,-1.062,-0.050,-94.412,-36.092,2.412
1.930,0.227,-1.072,-0.061,-94.641,-33.939,3.710
1.940,0.235,-1.075,-0.046,-94.550,-32.260,4.580
1.940,0.236,-1.078,-0.040,-94.672,-29.863,6.198
1.950,0.275,-1.081,-0.044,-94.000,-24.031,6.168
1.950,0.296,-1.089,-0.014,-93.145,-17.725,6.504
1.950,0.279,-1.096,-0.003,-90.977,-14.840,6.305
1.960,0.272,-1.098,0.012,-87.847,-10.565,6.473
1.960,0.265,-1.110,0.026,-85.221,-8.733,6.733
1.970,0.237,-1.114,0.029,-82.229,-10.336,6.794
1.970,0.233,-1.120,0.037,-79.206,-12.351,6.977
1.970,0.226,-1.128,0.049,-75.908,-14.901,7.298
1.980,0.231,-1.117,0.055,-73.206,-16.351,7.496
1.980,0.240,-1.118,0.049,-70.397,-17.649,7.786
1.990,0.257,-1.127,0.044,-67.191,-18.168,7.267
1.990,0.264,-1.119,0.036,-64.321,-19.679,6.443
2.000,0.278,-1.120,0.017,-61.328,-20.198,5.313
2.000,0.270,-1.120,-0.010,-58.763,-20.153,4.611
2.000,0.258,-1.109,-0.018,-56.916,-20.656,4.153
2.010,0.262,-1.104,-0.039,-55.160,-21.069,3.802
2.010,0.249,-1.099,-0.061,-53.725,-21.695,3.359
2.020,0.230,-1.105,-0.091,-53.115,-23.206,3.542
2.020,0.222,-1.094,-0.106,-53.832,-24.244,4.076
2.020,0.227,-1.092,-0.129,-54.779,-24.137,4.702
2.030,0.228,-1.087,-0.147,-55.756,-22.519,5.786
2.030,0.225,-1.087,-0.138,-56.733,-20.092,7.282
2.040,0.227,-1.086,-0.151,-57.450,-17.710,8.550
2.040,0.230,-1.091,-0.132,-57.725,-14.794,9.832
2.050,0.223,-1.092,-0.126,-57.603,-12.351,11.099
2.050,0.220,-1.096,-0.115,-56.992,-9.221,12.336
2.050,0.223,-1.088,-0.110,-56.198,-6.275,13.344
2.060,0.234,-1.092,-0.101,-54.748,-3.588,14.198
2.060,0.230,-1.089,-0.093,-53.267,-2.153,14.427
2.070,0.241,-1.084,-0.095,-51.893,-0.580,14.809
2.070,0.244,-1.084,-0.110,-50.702,0.809,14.611
2.080,0.250,-1.088,-0.099,-49.023,1.710,13.618
2.080,0.246,-1.089,-0.100,-47.298,0.534,12.198
2.080,0.244,-1.087,-0.111,-45.924,-2.992,10.061
2.090,0.238,-1.082,-0.121,-44.824,-7.969,7.481
2.090,0.246,-1.079,-0.136,-43.802,-13.053,5.328
2.100,0.236,-1.082,-0.139,-43.191,-19.099,2.641
2.100,0.235,-1.080,-0.147,-42.824,-26.015,0.183
2.110,0.236,-1.083,-0.151,-42.473,-31.817,-2.244
2.110,0.237,-1.089,-0.157,-42.153,-37.099,-4.366
2.110,0.235,-1.093,-0.154,-41.893,-40.763,-5.832
2.120,0.245,-1.096,-0.155,-41.740,-42.321,-6.473
2.120,0.232,-1.091,-0.153,-41.237,-42.748,-6.519
2.130,0.226,-1.094,-0.146,-40.885,-41.618,-5.588
2.130,0.230,-1.100,-0.148,-40.122,-38.412,-4.290
2.140,0.228,-1.100,-0.146,-39.664,-33.542,-2.412
2.140,0.218,-1.092,-0.147,-39.130,-28.366,-0.427
2.140,0.225,-1.095,-0.132,-37.908,-21.908,1.832
2.150,0.220,-1.088,-0.121,-36.137,-15.771,4.092
2.150,0.217,-1.090,-0.108,-34.595,-11.053,5.878
2.160,0.221,-1.087,-0.101,-32.672,-6.366,7.771
2.160,0.221,-1.083,-0.098,-30.641,-2.504,8.916
2.170,0.215,-1.085,-0.103,-28.061,-0.260,9.389
2.170,0.203,-1.078,-0.126,-25.924,0.504,10.076
2.170,0.186,-1.078,-0.143,-24.855,-0.031,10.611
2.180,0.189,-1.071,-0.172,-24.229,-2.031,10.672
2.180,0.202,-1.068,-0.188,-23.740,-3.313,10.198
2.190,0.210,-1.074,-0.184,-23.328,-4.870,9.160
2.190,0.219,-1.073,-0.183,-22.534,-7.145,7.893
2.190,0.220,-1.079,-0.187,-22.122,-9.389,6.489
2.200,0.217,-1.073,-0.190,-21.878,-11.893,4.947
2.200,0.221,-1.077,-0.198,-21.588,-13.908,3.221
2.210,0.231,-1.079,-0.192,-21.374,-15.511,1.542
2.210,0.224,-1.070,-0.209,-20.809,-17.817,0.015
2.220,0.229,-1.068,-0.203,-19.893,-20.366,-1.649
2.220,0.233,-1.060,-0.194,-18.947,-22.641,-3.420
2.220,0.237,-1.052,-0.210,-17.802,-25.450,-4.977
2.230,0.230,-1.048,-0.208,-16.443,-27.893,-6.183
2.230,0.233,-1.037,-0.235,-15.527,-29.924,-6.870
2.240,0.233,-1.037,-0.221,-14.565,-30.244,-7.359
2.240,0.245,-1.035,-0.227,-13.450,-29.664,-7.679
2.250,0.260,-1.029,-0.228,-11.924,-27.771,-7.939
2.250,0.244,-1.031,-0.240,-10.824,-26.275,-8.183
2.260,0.245,-1.027,-0.259,-10.397,-25.634,-8.244
2.260,0.250,-1.020,-0.262,-10.427,-24.031,-8.458
2.260,0.254,-1.024,-0.270,-10.290,-22.092,-8.412
2.270,0.247,-1.025,-0.271,-10.198,-20.534,-8.565
2.270,0.248,-1.024,-0.273,-9.450,-19.206,-8.626
2.280,0.250,-1.026,-0.261,-9.038,-18.519,-8.809
2.280,0.251,-1.027,-0.266,-8.565,-17.252,-8.733
2.290,0.241,-1.029,-0.273,-7.786,-16.046,-8.687
2.290,0.218,-1.031,-0.283,-7.191,-15.893,-8.198
2.290,0.212,-1.028,-0.314,-7.267,-15.374,-7.191
2.300,0.208,-1.029,-0.326,-8.000,-14.489,-6.214
2.300,0.210,-1.022,-0.330,-8.580,-12.000,-5.099
2.310,0.216,-1.027,-0.311,-8.595,-9.603,-3.786
2.310,0.212,-1.023,-0.304,-8.626,-8.076,-3.298
2.310,0.219,-1.024,-0.294,-7.939,-7.053,-2.565
2.320,0.224,-1.028,-0.291,-6.992,-5.466,-1.969
2.320,0.221,-1.026,-0.296,-6.061,-3.466,-1.481
2.330,0.218,-1.017,-0.311,-5.511,-1.740,-0.885
2.330,0.224,-1.018,-0.312,-4.931,-0.275,0.061
2.340,0.229,-1.018,-0.314,-4.855,1.786,0.519
2.340,0.232,-1.017,-0.324,-3.817,3.771,0.550
2.340,0.231,-1.013,-0.327,-3.053,5.267,0.595
2.350,0.221,-1.007,-0.335,-3.130,6.137,0.840
2.350,0.235,-1.005,-0.352,-3.267,6.885,1.008
2.360,0.227,-1.007,-0.360,-3.481,8.870,0.763
2.360,0.240,-1.004,-0.359,-2.855,11.496,0.534
2.360,0.237,-1.004,-0.364,-3.466,8.504,0.153
2.370,0.203,-1.001,-0.376,-4.519,3.298,-0.427
2.370,0.222,-1.000,-0.358,-4.840,1.008,-1.053
2.380,0.232,-1.001,-0.347,-5.008,-0.260,-2.397
2.380,0.240,-1.002,-0.342,-5.084,-1.450,-3.420
2.380,0.236,-1.008,-0.338,-5.160,-2.427,-3.985
2.390,0.235,-1.012,-0.339,-4.947,-3.756,-4.794
2.390,0.231,-1.019,-0.327,-4.733,-4.046,-5.053
2.400,0.234,-1.027,-0.313,-4.550,-4.397,-5.130
2.400,0.234,-1.028,-0.308,-4.000,-3.542,-5.023
2.410,0.245,-1.031,-0.288,-3.191,-2.183,-4.809
2.410,0.239,-1.040,-0.273,-2.122,-0.412,-4.214
2.410,0.236,-1.040,-0.263,-0.992,1.603,-3.725
2.420,0.240,-1.041,-0.252,-0.031,3.878,-2.855
2.420,0.243,-1.046,-0.245,0.824,5.863,-2.031
2.430,0.252,-1.041,-0.229,2.198,7.954,-2.031
2.430,0.254,-1.051,-0.214,4.229,9.527,-2.473
2.430,0.256,-1.052,-0.206,6.580,9.496,-3.069
2.440,0.253,-1.047,-0.201,8.137,8.763,-3.771
2.440,0.255,-1.056,-0.198,10.015,8.748,-4.519
2.450,0.269,-1.057,-0.183,11.740,9.496,-5.160
2.450,0.288,-1.065,-0.174,13.878,10.733,-6.168
2.450,0.288,-1.077,-0.153,16.183,11.832,-7.237
2.460,0.291,-1.085,-0.138,18.489,11.740,-8.489
2.460,0.293,-1.093,-0.121,19.786,12.550,-9.053
2.470,0.292,-1.105,-0.122,20.901,13.664,-9.267
2.470,0.319,-1.122,-0.090,21.847,16.214,-9.450
2.470,0.347,-1.137,-0.057,22.580,20.092,-10.244
2.480,0.378,-1.157,-0.029,23.908,25.939,-11.206
2.480,0.397,-1.176,0.016,25.023,32.809,-12.260
2.490,0.442,-1.201,0.062,26.611,42.565,-13.725
2.490,0.490,-1.217,0.096,27.969,54.092,-15.771
2.500,0.538,-1.244,0.145,30.183,66.168,-19.130
2.500,0.575,-1.271,0.198,33.252,77.511,-23.435
2.500,0.583,-1.288,0.282,37.908,88.458,-27.863
2.510,0.552,-1.316,0.337,44.122,98.931,-31.710
2.510,0.512,-1.349,0.394,51.634,101.817,-34.885
2.520,0.478,-1.348,0.436,59.710,104.153,-37.588
2.520,0.419,-1.363,0.484,69.664,102.748,-40.626
2.530,0.362,-1.375,0.509,81.328,96.733,-43.374
2.530,0.291,-1.385,0.509,93.893,87.985,-45.191
2.530,0.237,-1.388,0.496,103.420,78.397,-45.038
2.540,0.198,-1.392,0.467,113.481,69.603,-43.038
2.540,0.172,-1.399,0.434,122.198,61.130,-40.122
2.550,0.161,-1.406,0.403,128.947,52.122,-36.763
2.550,0.175,-1.398,0.346,134.275,45.863,-33.511
2.550,0.188,-1.399,0.289,136.931,43.588,-29.008
2.560,0.202,-1.389,0.246,136.443,43.756,-23.405
2.560,0.235,-1.386,0.196,134.458,46.733,-18.382
2.570,0.258,-1.376,0.183,131.634,52.366,-13.328
2.570,0.287,-1.376,0.187,128.626,60.336,-9.344
2.580,0.317,-1.376,0.219,127.618,67.832,-6.153
2.580,0.321,-1.390,0.238,127.924,73.573,-3.527
2.580,0.317,-1.392,0.256,128.290,77.435,-0.870
2.590,0.328,-1.402,0.265,129.466,80.351,-0.534
2.590,0.342,-1.412,0.273,131.924,81.832,-0.733
2.600,0.334,-1.419,0.287,134.992,78.855,-2.351
2.600,0.321,-1.421,0.302,138.244,71.359,-5.221
2.610,0.314,-1.422,0.301,141.053,62.412,-8.366
2.610,0.305,-1.431,0.316,144.840,53.053,-12.061
2.610,0.274,-1.452,0.340,149.863,40.962,-16.000
2.620,0.253,-1.460,0.335,154.412,28.412,-19.664
2.620,0.240,-1.457,0.328,158.275,16.565,-22.931
2.630,0.227,-1.453,0.314,161.649,5.679,-25.634
2.630,0.227,-1.454,0.311,165.069,-2.321,-27.115
2.630,0.225,-1.455,0.311,167.863,-6.031,-27.908
2.640,0.219,-1.457,0.296,171.023,-7.893,-27.511
2.640,0.213,-1.456,0.288,173.817,-8.168,-26.366
2.650,0.219,-1.445,0.281,176.076,-5.985,-23.878
2.650,0.241,-1.451,0.237,177.466,-0.901,-22.901
2.660,0.222,-1.422,0.222,178.931,4.809,-20.534
2.660,0.210,-1.410,0.210,179.893,8.137,-18.336
2.660,0.206,-1.396,0.184,180.504,11.115,-16.031
2.670,0.209,-1.381,0.175,180.534,12.962,-13.954
2.670,0.220,-1.368,0.157,180.504,12.626,-12.458
2.680,0.219,-1.349,0.156,180.534,10.611,-11.893
2.680,0.230,-1.332,0.153,181.267,6.550,-12.153
2.690,0.230,-1.320,0.148,181.344,2.489,-11.939
2.690,0.233,-1.306,0.139,181.374,-1.359,-11.435
2.690,0.247,-1.280,0.124,181.099,-5.206,-11.603
2.700,0.258,-1.248,0.111,180.656,-9.832,-12.733
2.700,0.273,-1.236,0.122,180.290,-14.427,-14.382
2.710,0.281,-1.225,0.105,179.756,-18.977,-15.908
2.710,0.286,-1.210,0.102,177.939,-23.160,-16.779
2.720,0.295,-1.204,0.111,175.893,-26.534,-17.802
2.720,0.324,-1.197,0.128,174.015,-28.718,-18.473
2.720,0.348,-1.180,0.127,172.229,-29.405,-19.695
2.730,0.383,-1.178,0.149,170.397,-28.443,-20.580
2.730,0.391,-1.171,0.157,168.534,-26.015,-21.710
2.740,0.403,-1.163,0.171,167.725,-23.084,-23.435
2.740,0.400,-1.159,0.182,166.763,-20.015,-24.550
2.750,0.395,-1.155,0.178,166.351,-16.977,-25.557
2.750,0.387,-1.149,0.193,166.198,-14.244,-26.595
2.750,0.379,-1.135,0.191,166.366,-11.939,-27.557
2.760,0.379,-1.127,0.199,166.550,-10.779,-28.015
2.760,0.372,-1.123,0.221,166.840,-10.183,-28.076
2.770,0.379,-1.110,0.218,167.069,-9.496,-28.489
2.770,0.388,-1.090,0.236,167.374,-9.145,-29.435
2.780,0.397,-1.086,0.235,168.260,-8.382,-30.351
2.780,0.392,-1.069,0.229,168.427,-7.344,-30.947
2.780,0.384,-1.046,0.213,168.672,-6.885,-31.298
2.790,0.384,-1.027,0.220,167.924,-6.290,-31.237
2.790,0.374,-1.019,0.215,167.053,-5.863,-31.328
2.800,0.370,-1.001,0.220,166.718,-6.198,-31.405
2.800,0.355,-0.997,0.225,166.489,-7.145,-31.802
2.810,0.342,-0.983,0.220,165.679,-7.374,-30.962
2.810,0.336,-0.977,0.222,164.901,-7.008,-29.328
2.810,0.331,-0.978,0.224,163.557,-6.366,-27.374
2.820,0.330,-0.971,0.232,162.641,-5.725,-25.802
2.820,0.350,-0.966,0.231,160.809,-4.962,-24.580
2.830,0.361,-0.961,0.235,158.641,-2.580,-23.511
2.830,0.377,-0.948,0.221,156.183,-0.397,-22.229
2.840,0.386,-0.941,0.240,153.542,1.191,-22.000
2.840,0.397,-0.931,0.256,151.924,2.595,-22.229
2.840,0.396,-0.915,0.275,150.244,4.122,-22.443
2.850,0.398,-0.907,0.277,148.168,4.611,-22.809
2.850,0.403,-0.903,0.302,146.672,4.626,-23.588
2.860,0.395,-0.894,0.312,145.466,4.214,-24.565
2.860,0.374,-0.886,0.343,144.580,3.481,-24.519
2.860,0.367,-0.878,0.361,143.756,2.885,-24.061
2.870,0.364,-0.874,0.362,143.038,2.061,-23.313
2.870,0.359,-0.865,0.389,142.412,0.901,-22.626
2.880,0.365,-0.859,0.400,141.847,0.366,-22.550
2.880,0.369,-0.851,0.408,141.603,0.275,-22.290
2.890,0.354,-0.841,0.417,141.160,0.168,-21.756
2.890,0.346,-0.844,0.420,140.656,0.626,-21.099
2.890,0.363,-0.845,0.431,140.153,2.397,-20.153
2.900,0.364,-0.849,0.443,139.786,5.237,-19.145
2.900,0.359,-0.847,0.449,139.115,7.573,-18.260
2.910,0.347,-0.846,0.445,138.519,10.168,-17.435
2.910,0.340,-0.843,0.462,137.466,12.443,-16.046
2.910,0.334,-0.837,0.466,136.229,14.382,-14.351
2.920,0.326,-0.823,0.475,135.191,16.687,-12.595
2.920,0.323,-0.815,0.488,133.832,19.115,-10.580
2.930,0.326,-0.804,0.500,132.977,20.901,-8.504
2.930,0.330,-0.796,0.511,131.344,21.649,-6.504
2.940,0.356,-0.781,0.513,129.985,23.389,-5.221
2.940,0.376,-0.774,0.530,129.374,25.008,-4.779
2.940,0.387,-0.765,0.545,128.641,25.496,-5.023
2.950,0.382,-0.752,0.557,128.137,24.473,-5.099
2.950,0.382,-0.741,0.572,128.031,22.565,-5.634
2.960,0.377,-0.730,0.579,128.550,18.992,-6.443
2.960,0.381,-0.717,0.576,129.435,15.389,-7.328
2.970,0.381,-0.704,0.580,129.649,12.458,-7.832
2.970,0.383,-0.689,0.588,130.214,10.565,-8.611
2.970,0.390,-0.687,0.603,131.420,8.687,-9.130
2.980,0.397,-0.670,0.594,132.046,8.168,-9.298
2.980,0.411,-0.664,0.585,131.954,8.702,-9.374
2.990,0.419,-0.655,0.591,131.618,10.046,-9.893
2.990,0.419,-0.655,0.580,131.130,11.969,-10.718
2.990,0.406,-0.648,0.589,130.458,13.725,-10.901
3.000,0.397,-0.641,0.581,129.221,15.435,-10.870
3.000,0.374,-0.636,0.581,128.061,16.779,-10.748
3.010,0.363,-0.624,0.574,126.977,17.695,-10.519
3.010,0.346,-0.601,0.573,126.244,18.076,-9.725
3.020,0.326,-0.588,0.562,125.328,18.305,-8.733
3.020,0.323,-0.569,0.550,123.542,17.878,-7.298
3.020,0.317,-0.559,0.543,121.802,17.466,-6.198
3.030,0.323,-0.538,0.530,120.168,17.359,-5.206
3.030,0.326,-0.512,0.543,118.748,16.931,-4.000
3.040,0.319,-0.507,0.543,117.282,16.962,-2.641
3.040,0.337,-0.491,0.540,116.015,17.008,-1.221
3.040,0.352,-0.467,0.539,114.366,17.786,-0.244
3.050,0.357,-0.449,0.552,113.221,18.000,0.153
3.050,0.374,-0.440,0.539,112.061,18.244,0.244
3.060,0.373,-0.417,0.542,110.397,18.321,0.443
3.060,0.378,-0.397,0.540,108.870,18.656,0.611
3.060,0.383,-0.380,0.542,107.679,19.084,0.595
3.070,0.387,-0.359,0.538,106.473,18.916,0.489
3.070,0.387,-0.354,0.542,105.481,17.969,0.672
3.080,0.385,-0.334,0.548,104.473,16.366,0.550
3.080,0.394,-0.324,0.555,103.145,14.916,-0.107
3.090,0.396,-0.314,0.554,102.183,13.863,-0.595
3.090,0.403,-0.308,0.555,101.237,13.313,-1.053
3.090,0.394,-0.304,0.571,99.863,12.107,-1.863
3.100,0.387,-0.298,0.545,99.405,10.580,-2.473
3.100,0.393,-0.289,0.555,98.275,8.962,-3.084
3.110,0.400,-0.287,0.560,95.267,7.603,-4.168
3.110,0.405,-0.281,0.555,95.084,6.412,-5.710
3.110,0.397,-0.279,0.559,93.634,5.115,-7.053
3.120,0.385,-0.270,0.560,92.443,3.832,-8.107
3.120,0.367,-0.259,0.558,90.427,2.198,-8.641
3.130,0.363,-0.254,0.561,88.824,1.084,-8.763
3.130,0.357,-0.241,0.565,87.008,0.855,-8.473
3.130,0.341,-0.231,0.567,85.847,0.962,-8.031
3.140,0.333,-0.220,0.568,84.321,1.206,-7.527
3.140,0.328,-0.209,0.555,83.145,0.656,-6.977
3.150,0.326,-0.204,0.563,81.618,0.763,-6.214
3.150,0.321,-0.188,0.554,80.122,1.267,-5.130
3.150,0.323,-0.171,0.553,78.244,2.229,-3.939
3.160,0.333,-0.164,0.553,76.611,3.252,-2.748
3.160,0.336,-0.158,0.555,74.947,4.809,-1.832
3.170,0.344,-0.148,0.535,72.885,7.023,-1.008
3.170,0.353,-0.131,0.532,70.947,9.115,-0.260
3.170,0.352,-0.130,0.542,68.672,10.855,0.290
3.180,0.355,-0.118,0.534,66.534,13.038,0.809
3.180,0.348,-0.110,0.530,64.244,14.489,1.053
3.190,0.347,-0.100,0.529,61.985,15.313,1.450
3.190,0.332,-0.087,0.521,59.954,15.710,1.588
3.190,0.336,-0.079,0.515,57.603,16.168,1.847
3.200,0.328,-0.076,0.526,55.206,16.412,1.878
3.200,0.329,-0.071,0.519,53.206,15.588,1.618
3.210,0.329,-0.067,0.514,50.794,14.412,1.435
3.210,0.331,-0.056,0.518,48.702,13.588,0.748
3.210,0.326,-0.050,0.522,46.427,12.641,0.122
3.220,0.335,-0.051,0.518,43.969,11.252,-0.901
3.220,0.334,-0.038,0.512,41.282,9.847,-2.198
3.230,0.340,-0.034,0.516,38.718,8.809,-3.267
3.230,0.325,-0.032,0.516,36.656,8.443,-4.519
3.230,0.318,-0.030,0.521,34.397,7.267,-5.298
3.240,0.310,-0.027,0.529,32.321,6.015,-5.649
3.240,0.296,-0.024,0.525,30.168,5.649,-5.725
3.250,0.275,-0.029,0.534,27.817,5.313,-5.023
3.250,0.265,-0.017,0.537,25.466,4.687,-4.061
3.250,0.255,-0.020,0.563,23.542,4.763,-3.084
3.260,0.247,-0.022,0.581,21.939,5.191,-1.756
3.260,0.249,-0.014,0.592,20.962,5.725,-0.443
3.270,0.243,-0.017,0.596,19.878,6.183,1.267
3.270,0.245,-0.026,0.604,19.374,7.344,2.947
3.270,0.247,-0.016,0.619,19.145,8.290,4.244
3.280,0.264,-0.010,0.621,18.580,9.206,5.588
3.280,0.267,-0.013,0.627,18.366,9.802,6.641
3.290,0.273,-0.012,0.629,18.015,10.687,7.511
3.290,0.280,-0.005,0.627,17.924,10.519,7.893
3.290,0.286,0.001,0.620,17.267,9.924,8.107
3.300,0.290,-0.002,0.620,16.947,9.313,8.198
3.300,0.288,-0.006,0.622,16.427,7.863,8.412
3.300,0.302,-0.002,0.622,15.359,6.397,8.443
3.310,0.307,0.001,0.613,13.985,6.015,8.458
3.310,0.318,-0.001,0.613,12.885,5.160,7.954
3.320,0.318,0.007,0.610,11.527,4.183,7.496
3.320,0.327,0.005,0.599,9.756,3.481,6.977
3.320,0.335,0.011,0.603,8.031,3.695,6.611
3.330,0.325,0.006,0.595,6.214,4.076,6.534
3.330,0.311,0.014,0.601,4.397,4.107,6.641
3.340,0.310,0.010,0.608,2.458,3.756,6.870
3.340,0.303,0.008,0.609,1.267,3.618,7.084
3.340,0.307,0.004,0.614,-0.748,2.687,6.855
3.350,0.309,0.012,0.615,-2.366,2.107,6.855
3.350,0.316,0.007,0.632,-4.015,1.313,6.733
3.350,0.318,0.006,0.633,-5.420,0.076,6.427
3.360,0.320,0.003,0.650,-6.947,-1.573,6.061
3.360,0.340,0.001,0.654,-8.412,-2.580,5.191
3.370,0.339,-0.009,0.678,-9.252,-3.939,5.282
3.370,0.350,-0.014,0.685,-10.244,-4.595,4.702
3.370,0.365,-0.015,0.691,-11.115,-5.313,4.107
3.380,0.373,-0.021,0.712,-11.832,-6.382,3.649
3.380,0.370,-0.026,0.725,-12.137,-6.779,3.053
3.390,0.381,-0.030,0.746,-12.534,-5.740,2.840
3.390,0.378,-0.035,0.753,-12.489,-4.519,2.748
3.390,0.376,-0.045,0.765,-11.954,-3.588,2.779
3.400,0.370,-0.042,0.781,-11.557,-3.282,3.160
3.400,0.363,-0.042,0.789,-11.023,-2.702,3.466
3.410,0.366,-0.046,0.785,-10.855,-1.985,3.832
3.410,0.380,-0.046,0.800,-10.580,-1.679,3.481
3.410,0.381,-0.053,0.792,-10.092,-1.740,3.145
3.420,0.382,-0.053,0.798,-10.290,-2.305,2.321
3.420,0.387,-0.058,0.806,-10.122,-2.290,1.557
3.430,0.390,-0.053,0.800,-10.550,-2.763,0.565
3.430,0.380,-0.060,0.808,-10.641,-4.122,-0.290
3.440,0.375,-0.061,0.800,-10.809,-4.397,-0.855
3.440,0.361,-0.062,0.812,-10.473,-4.916,-1.282
3.440,0.346,-0.067,0.814,-9.817,-5.206,-1.328
3.450,0.350,-0.061,0.819,-9.573,-5.511,-1.359
3.450,0.345,-0.064,0.819,-9.359,-5.511,-1.328
3.460,0.327,-0.070,0.812,-9.160,-5.389,-0.824
3.460,0.324,-0.069,0.815,-9.344,-4.992,-0.702
3.460,0.323,-0.064,0.819,-9.527,-4.275,-0.061
3.470,0.322,-0.066,0.818,-9.511,-3.679,0.412
3.470,0.309,-0.070,0.818,-9.664,-4.015,1.008
3.480,0.315,-0.069,0.823,-9.664,-4.305,1.206
3.480,0.324,-0.069,0.825,-9.939,-3.847,1.710
3.480,0.319,-0.062,0.835,-9.802,-3.344,2.092
3.490,0.322,-0.072,0.823,-9.740,-3.160,2.824
3.490,0.325,-0.071,0.817,-10.092,-3.099,3.206
3.500,0.321,-0.067,0.818,-10.641,-3.130,3.328
3.500,0.325,-0.063,0.819,-10.733,-2.901,3.664
3.500,0.329,-0.071,0.825,-10.824,-2.626,3.603
3.510,0.323,-0.070,0.822,-11.145,-3.450,3.863
3.510,0.326,-0.073,0.841,-11.405,-4.168,4.229
3.520,0.326,-0.075,0.830,-12.061,-4.229,4.489
3.520,0.330,-0.072,0.824,-12.534,-4.137,4.855
3.520,0.332,-0.069,0.839,-12.565,-4.214,5.221
3.530,0.341,-0.072,0.838,-13.038,-3.924,5.679
3.530,0.354,-0.076,0.851,-13.282,-2.718,6.092
3.540,0.368,-0.079,0.860,-13.481,-1.496,6.229
3.540,0.380,-0.075,0.858,-13.206,-0.366,6.198
3.540,0.376,-0.077,0.873,-13.099,0.901,6.107
3.550,0.389,-0.080,0.880,-12.443,2.061,5.725
3.550,0.384,-0.077,0.880,-11.954,2.565,5.695
3.560,0.391,-0.088,0.888,-11.298,3.206,5.069
3.560,0.388,-0.083,0.892,-10.672,3.679,4.366
3.560,0.394,-0.088,0.882,-10.031,4.122,3.878
3.570,0.379,-0.084,0.885,-9.344,3.817,3.176
3.570,0.372,-0.087,0.874,-8.779,3.298,2.687
3.580,0.366,-0.085,0.867,-8.397,2.412,2.321
3.580,0.360,-0.086,0.873,-7.969,1.924,2.168
3.580,0.358,-0.088,0.861,-7.527,1.450,2.046
3.590,0.361,-0.086,0.862,-7.298,1.053,2.015
3.590,0.366,-0.083,0.855,-7.374,0.855,1.802
3.600,0.359,-0.088,0.855,-7.237,-0.534,1.710
3.600,0.369,-0.081,0.861,-7.618,-1.740,1.511
3.600,0.378,-0.081,0.857,-8.336,-2.092,1.634
3.610,0.385,-0.083,0.855,-8.519,-1.588,1.267
3.610,0.391,-0.086,0.860,-8.962,-1.176,0.992
3.620,0.394,-0.087,0.865,-9.099,-0.962,0.489
3.620,0.397,-0.090,0.846,-9.527,-0.947,0.183
3.620,0.386,-0.094,0.857,-9.603,-1.221,-0.458
3.630,0.380,-0.091,0.861,-10.031,-2.229,-1.160
3.630,0.379,-0.088,0.863,-10.122,-2.748,-1.908
3.640,0.370,-0.089,0.867,-10.031,-3.084,-2.290
3.640,0.359,-0.092,0.861,-9.908,-4.061,-2.519
3.640,0.355,-0.091,0.873,-9.603,-4.885,-2.870
3.650,0.353,-0.094,0.863,-9.252,-5.191,-3.069
3.650,0.336,-0.094,0.863,-8.550,-5.481,-3.176
3.660,0.337,-0.093,0.874,-7.985,-4.870,-2.931
3.660,0.334,-0.097,0.865,-7.481,-4.427,-2.519
3.670,0.332,-0.100,0.845,-7.053,-3.985,-2.168
3.670,0.330,-0.105,0.868,-6.748,-3.450,-1.878
3.670,0.330,-0.104,0.852,-6.718,-3.466,-1.802
3.680,0.319,-0.100,0.851,-7.053,-3.756,-1.710
3.680,0.326,-0.104,0.847,-7.450,-4.260,-1.786
3.690,0.330,-0.104,0.837,-7.863,-4.092,-1.588
3.690,0.326,-0.103,0.836,-8.382,-4.779,-1.756
3.690,0.319,-0.110,0.852,-8.809,-4.885,-1.771
3.700,0.326,-0.108,0.854,-8.901,-5.389,-2.107
3.700,0.313,-0.116,0.853,-9.221,-6.244,-2.107
3.710,0.317,-0.104,0.850,-9.344,-6.611,-2.153
3.710,0.306,-0.105,0.849,-9.252,-7.145,-1.969
3.710,0.302,-0.103,0.853,-9.328,-8.000,-1.466
3.720,0.292,-0.102,0.852,-9.267,-8.626,-0.931
3.720,0.294,-0.105,0.858,-9.115,-8.962,-0.153
3.730,0.291,-0.105,0.871,-8.962,-8.550,0.580
3.730,0.293,-0.102,0.864,-8.305,-8.015,1.405
3.730,0.295,-0.115,0.857,-7.679,-7.878,1.985
3.740,0.303,-0.113,0.860,-7.664,-7.969,2.718
3.740,0.312,-0.109,0.858,-7.282,-7.221,3.588
3.750,0.334,-0.109,0.870,-7.145,-5.695,4.015
3.750,0.346,-0.113,0.870,-6.748,-3.908,4.595
3.750,0.345,-0.114,0.868,-6.443,-2.947,5.053
3.760,0.347,-0.113,0.867,-6.427,-2.580,5.511
3.760,0.357,-0.116,0.861,-6.473,-1.679,5.573
3.770,0.373,-0.115,0.863,-6.275,-0.718,5.725
3.770,0.376,-0.113,0.865,-6.290,0.305,5.420
3.770,0.392,-0.111,0.876,-6.168,0.733,5.237
3.780,0.394,-0.106,0.869,-6.061,1.405,4.718
3.780,0.389,-0.105,0.861,-6.015,1.786,4.137
3.790,0.391,-0.109,0.874,-5.496,0.992,3.542
3.790,0.393,-0.107,0.865,-5.588,0.565,2.702
3.790,0.387,-0.111,0.876,-5.160,1.084,2.275
3.800,0.387,-0.119,0.877,-4.458,1.374,1.573
3.800,0.378,-0.119,0.867,-3.954,1.160,1.069
3.810,0.387,-0.111,0.875,-3.496,0.840,0.489
3.810,0.375,-0.122,0.864,-3.206,1.359,0.336
3.810,0.370,-0.125,0.857,-2.412,1.924,0.260
3.820,0.364,-0.124,0.868,-1.863,1.573,0.076
3.820,0.368,-0.125,0.874,-1.557,0.794,-0.015
3.830,0.378,-0.128,0.871,-1.084,1.496,0.000
3.830,0.384,-0.125,0.873,-0.626,2.626,0.031
3.830,0.380,-0.125,0.875,0.168,3.252,0.244
3.840,0.379,-0.124,0.875,0.855,3.985,0.183
3.840,0.374,-0.122,0.861,1.405,5.328,0.305
3.840,0.365,-0.117,0.866,1.969,6.595,0.534
3.850,0.363,-0.122,0.860,2.351,6.947,0.794
3.850,0.363,-0.116,0.853,2.779,7.496,0.809
3.860,0.364,-0.115,0.853,3.023,8.809,0.718
3.860,0.367,-0.104,0.832,3.176,9.405,0.519
3.860,0.359,-0.107,0.837,3.405,9.313,0.122
3.870,0.349,-0.101,0.829,3.420,9.267,0.000
3.870,0.355,-0.099,0.824,3.130,8.992,-0.214
3.870,0.349,-0.095,0.816,2.733,8.641,-0.656
3.880,0.332,-0.096,0.810,2.672,7.863,-0.687
3.880,0.324,-0.094,0.807,1.893,7.221,-0.748
3.890,0.329,-0.084,0.794,1.328,6.489,-0.794
3.890,0.325,-0.085,0.807,0.702,6.214,-0.931
3.890,0.323,-0.080,0.794,0.061,5.939,-0.641
3.900,0.318,-0.082,0.801,-0.779,5.756,-0.275
3.900,0.314,-0.074,0.796,-1.740,5.618,0.061
3.910,0.309,-0.080,0.805,-2.336,5.939,0.626
3.910,0.312,-0.083,0.798,-3.221,5.985,0.947
3.910,0.314,-0.086,0.810,-3.634,5.542,1.481
3.920,0.316,-0.079,0.802,-4.229,4.992,1.618
3.920,0.316,-0.093,0.828,-5.038,4.534,1.603
3.930,0.319,-0.087,0.820,-5.237,3.863,1.740
3.930,0.318,-0.080,0.823,-5.695,3.252,1.573
3.930,0.316,-0.084,0.839,-5.939,2.443,1.740
3.940,0.318,-0.085,0.845,-5.908,1.924,1.695
3.940,0.320,-0.086,0.851,-5.511,1.557,1.634
3.950,0.319,-0.097,0.844,-5.267,1.160,1.756
3.950,0.320,-0.086,0.854,-5.008,0.275,1.878
3.950,0.317,-0.099,0.846,-4.748,-0.962,1.725
3.960,0.319,-0.091,0.856,-5.160,-2.244,1.740
3.960,0.325,-0.095,0.858,-5.435,-2.931,2.015
3.970,0.334,-0.102,0.857,-5.496,-2.595,2.153
3.970,0.335,-0.104,0.853,-5.527,-2.718,2.412
3.970,0.333,-0.104,0.867,-5.924,-3.069,2.382
3.980,0.346,-0.110,0.867,-6.046,-2.794,2.198
3.980,0.346,-0.109,0.869,-6.198,-1.817,2.092
3.990,0.350,-0.116,0.868,-6.153,-1.588,2.046
3.990,0.341,-0.114,0.876,-6.229,-1.496,1.740
3.990,0.342,-0.118,0.881,-5.954,-1.985,1.725
4.000,0.342,-0.116,0.877,-5.817,-1.771,1.710
4.000,0.335,-0.119,0.882,-5.420,-1.649,1.756
4.010,0.334,-0.116,0.879,-4.687,-2.260,1.389
4.010,0.325,-0.112,0.882,-4.351,-3.817,1.511
4.010,0.325,-0.109,0.890,-4.061,-4.901,1.420
4.020,0.333,-0.105,0.873,-3.542,-4.687,1.053
4.020,0.343,-0.109,0.873,-3.374,-4.504,0.824
4.030,0.333,-0.112,0.875,-2.870,-4.611,0.687
4.030,0.333,-0.108,0.868,-2.550,-4.672,0.702
4.030,0.319,-0.105,0.861,-2.427,-4.763,0.824
4.040,0.322,-0.101,0.858,-2.443,-4.763,1.481
4.040,0.313,-0.110,0.853,-2.580,-4.611,2.061
4.040,0.328,-0.101,0.855,-2.916,-4.611,2.580
4.050,0.341,-0.098,0.846,-3.374,-3.893,2.779
4.050,0.344,-0.101,0.859,-3.588,-2.534,3.038
4.060,0.338,-0.098,0.846,-3.969,-1.786,3.328
4.060,0.344,-0.101,0.856,-4.366,-1.115,3.420
4.060,0.349,-0.099,0.852,-4.519,0.015,3.695
4.070,0.344,-0.105,0.856,-4.443,0.840,3.924
4.070,0.347,-0.100,0.863,-4.489,0.977,3.863
4.080,0.346,-0.109,0.866,-4.489,1.557,3.893
4.080,0.349,-0.104,0.869,-4.336,1.893,3.969
