Time,acce_x,acce_y,acce_z,gyro_x,gyro_y, gyro_z
0.000,0.254,0.101,0.864,-1.771,1.954,0.931
0.000,0.249,0.101,0.870,-1.786,2.275,0.809
0.010,0.252,0.103,0.864,-1.573,1.893,0.656
0.010,0.239,0.097,0.867,-1.298,1.527,0.550
0.010,0.248,0.095,0.872,-0.962,0.473,0.336
0.020,0.245,0.095,0.868,-0.885,0.061,0.122
0.020,0.243,0.095,0.874,-0.687,0.153,0.183
0.020,0.238,0.093,0.872,-0.290,0.046,0.061
0.030,0.238,0.095,0.876,-0.275,0.244,0.000
0.030,0.230,0.096,0.872,-0.229,0.275,0.183
0.030,0.229,0.095,0.856,-0.366,0.519,0.076
0.040,0.240,0.098,0.866,-0.473,0.626,0.275
0.040,0.242,0.107,0.853,-0.763,1.053,0.275
0.040,0.239,0.097,0.851,-1.405,1.176,0.244
0.050,0.241,0.098,0.857,-1.481,1.618,0.473
0.050,0.222,0.102,0.852,-1.939,2.168,0.489
0.050,0.230,0.101,0.853,-2.580,2.534,0.656
0.060,0.234,0.096,0.855,-2.779,2.443,0.901
0.060,0.223,0.096,0.854,-2.977,2.565,0.794
0.060,0.221,0.102,0.853,-2.840,1.878,0.718
0.070,0.216,0.098,0.861,-3.206,0.718,0.809
0.070,0.224,0.090,0.872,-3.450,0.214,0.885
0.080,0.227,0.091,0.871,-3.084,0.504,0.794
0.080,0.228,0.088,0.875,-2.916,-0.015,0.733
0.080,0.230,0.094,0.873,-2.840,-0.611,0.809
0.090,0.232,0.090,0.881,-2.534,-0.870,0.702
0.090,0.239,0.090,0.878,-2.015,-0.977,0.779
0.090,0.235,0.093,0.893,-1.802,-0.672,0.550
0.100,0.234,0.086,0.879,-1.634,-0.412,0.473
0.100,0.236,0.088,0.894,-1.466,-0.015,0.504
0.110,0.244,0.086,0.889,-1.115,0.794,0.290
0.110,0.243,0.089,0.889,-1.084,1.634,0.336
0.110,0.230,0.093,0.895,-0.687,1.527,0.061
0.120,0.225,0.096,0.888,-0.473,0.748,0.214
0.120,0.229,0.096,0.892,-0.427,0.076,0.031
0.130,0.229,0.092,0.882,-0.412,-0.107,0.092
0.130,0.228,0.089,0.879,-0.336,0.275,0.046
0.130,0.224,0.097,0.879,-0.153,0.565,0.183
0.140,0.221,0.090,0.870,-0.183,0.656,0.336
0.140,0.218,0.095,0.870,-0.153,0.641,0.641
0.140,0.222,0.098,0.873,-0.153,0.687,0.824
0.150,0.222,0.095,0.875,-0.382,0.702,1.206
0.150,0.223,0.090,0.867,-0.702,0.840,1.206
0.160,0.230,0.092,0.863,-0.870,0.824,1.527
0.160,0.233,0.086,0.884,-1.328,1.206,1.496
0.160,0.238,0.087,0.871,-1.313,1.435,1.374
0.170,0.234,0.088,0.875,-0.962,1.450,1.450
0.170,0.231,0.084,0.886,-0.779,1.282,1.313
0.180,0.233,0.083,0.889,-0.489,1.023,1.084
0.180,0.234,0.092,0.878,-0.351,0.901,1.084
0.180,0.236,0.089,0.891,-0.137,1.099,1.099
0.190,0.231,0.088,0.888,0.427,1.069,0.977
0.190,0.237,0.089,0.889,0.931,1.328,1.038
0.190,0.225,0.088,0.888,1.176,1.267,0.992
0.200,0.222,0.098,0.880,1.176,0.992,1.069
0.200,0.221,0.091,0.875,1.374,0.397,1.145
0.210,0.221,0.096,0.870,1.344,0.122,1.221
0.210,0.226,0.094,0.871,1.069,-0.473,1.252
0.210,0.233,0.102,0.865,0.779,-0.061,1.588
0.220,0.238,0.103,0.873,1.115,0.275,1.573
0.220,0.240,0.099,0.871,1.069,0.733,1.298
0.220,0.241,0.098,0.871,0.947,0.366,1.618
0.230,0.236,0.106,0.869,0.794,0.107,1.481
0.230,0.242,0.106,0.865,0.885,1.069,1.252
0.240,0.245,0.103,0.864,0.885,2.015,1.435
0.240,0.234,0.108,0.871,0.687,1.649,1.481
0.240,0.233,0.109,0.854,0.305,1.038,1.542
0.250,0.231,0.109,0.848,0.015,0.748,1.527
0.250,0.233,0.112,0.860,-0.397,0.321,1.405
0.250,0.235,0.104,0.866,-0.351,-0.107,1.405
0.260,0.238,0.107,0.861,-0.611,0.015,1.405
0.260,0.243,0.113,0.860,-0.779,-0.382,1.496
0.270,0.240,0.103,0.867,-0.626,-0.489,1.389
0.270,0.234,0.105,0.870,-0.641,-0.611,1.344
0.270,0.238,0.108,0.863,-0.183,-0.916,1.191
0.280,0.245,0.106,0.857,-0.214,-1.359,0.809
0.280,0.242,0.111,0.868,-0.290,-1.237,0.672
0.290,0.246,0.107,0.857,-0.336,-1.435,0.473
0.290,0.245,0.104,0.854,-0.275,-1.496,0.397
0.290,0.249,0.108,0.875,-0.473,-1.817,0.061
0.300,0.255,0.102,0.865,-0.351,-1.542,0.061
0.300,0.252,0.103,0.879,-0.443,-1.282,-0.153
0.310,0.242,0.101,0.870,-0.412,-0.947,-0.031
0.310,0.253,0.102,0.865,-0.458,-0.458,-0.092
0.310,0.242,0.109,0.878,-0.260,0.336,-0.061
0.320,0.243,0.105,0.870,-0.290,1.145,0.015
0.320,0.241,0.107,0.866,0.137,1.954,0.031
0.320,0.236,0.101,0.864,0.031,2.641,0.244
0.330,0.237,0.097,0.873,0.321,3.023,0.336
0.330,0.233,0.105,0.877,0.550,2.305,0.412
0.340,0.227,0.099,0.868,0.656,1.908,0.183
0.340,0.223,0.101,0.866,0.382,0.748,0.260
0.340,0.232,0.096,0.877,-0.107,0.519,-0.107
0.350,0.234,0.096,0.876,-0.015,1.313,-0.137
0.350,0.229,0.093,0.878,-0.168,1.542,0.000
0.350,0.220,0.093,0.873,-0.153,1.084,0.321
0.360,0.220,0.089,0.883,-0.458,0.534,0.550
0.360,0.224,0.084,0.870,-0.580,-0.092,0.718
0.370,0.228,0.096,0.869,-0.336,-0.260,0.626
0.370,0.239,0.089,0.877,-0.031,0.275,0.565
0.370,0.243,0.089,0.879,-0.076,1.038,0.336
0.380,0.241,0.090,0.882,0.458,1.328,0.076
0.380,0.230,0.089,0.875,0.534,0.641,-0.153
0.390,0.228,0.091,0.885,0.855,-0.840,-0.412
0.390,0.233,0.087,0.882,1.023,-1.176,-0.611
0.390,0.229,0.089,0.887,1.450,-0.702,-0.779
0.400,0.231,0.087,0.888,1.802,-0.031,-0.672
0.400,0.222,0.096,0.882,1.740,0.061,-0.687
0.400,0.225,0.094,0.871,1.817,-0.382,-0.748
0.410,0.215,0.096,0.864,1.893,-0.397,-0.473
0.410,0.225,0.104,0.859,1.893,0.168,-0.107
0.420,0.216,0.100,0.863,1.420,0.595,0.153
0.420,0.222,0.100,0.846,0.840,0.702,0.412
0.420,0.219,0.103,0.849,0.366,0.947,0.656
0.430,0.221,0.098,0.857,0.122,0.992,0.855
0.430,0.230,0.101,0.851,0.015,1.145,1.038
0.440,0.231,0.101,0.846,-0.260,0.366,1.069
0.440,0.232,0.097,0.873,-0.794,-0.519,1.023
0.440,0.239,0.103,0.854,-0.733,0.031,0.885
0.450,0.256,0.101,0.882,-0.809,1.084,0.931
0.450,0.248,0.098,0.870,-0.611,1.374,0.748
0.450,0.238,0.099,0.880,-0.290,0.962,0.763
0.460,0.234,0.101,0.867,-0.336,0.321,0.748
0.460,0.240,0.101,0.877,-0.290,0.366,0.626
0.470,0.244,0.098,0.873,0.137,0.626,0.565
0.470,0.242,0.101,0.875,0.198,0.763,0.534
0.470,0.238,0.099,0.869,0.031,0.595,0.427
0.480,0.244,0.100,0.871,0.275,0.489,0.427
0.480,0.237,0.104,0.864,-0.031,0.534,0.626
0.480,0.239,0.103,0.866,0.061,1.008,0.718
0.490,0.237,0.106,0.859,-0.183,1.160,0.519
0.490,0.243,0.104,0.855,-0.183,0.962,0.733
0.500,0.238,0.105,0.859,-0.534,0.641,0.641
0.500,0.250,0.106,0.853,-0.809,0.656,0.473
0.500,0.246,0.101,0.861,-0.763,1.130,0.260
0.510,0.243,0.102,0.854,-1.069,0.702,0.061
0.510,0.238,0.105,0.853,-1.511,-0.733,0.168
0.520,0.251,0.105,0.861,-1.649,-1.496,-0.107
0.520,0.252,0.104,0.875,-1.557,-1.771,-0.244
0.520,0.253,0.099,0.878,-1.237,-1.527,-0.260
0.530,0.252,0.102,0.875,-1.130,-1.542,-0.504
0.530,0.241,0.098,0.872,-0.931,-2.122,-0.519
0.540,0.249,0.105,0.876,-1.008,-2.550,-0.870
0.540,0.254,0.105,0.870,-1.053,-3.069,-1.069
0.540,0.257,0.105,0.866,-0.809,-2.870,-1.466
0.550,0.251,0.105,0.862,-1.267,-2.427,-1.527
0.550,0.246,0.105,0.867,-0.794,-1.924,-1.496
0.560,0.241,0.097,0.860,-1.130,-1.695,-1.420
0.560,0.238,0.105,0.863,-1.405,-1.237,-1.573
0.560,0.230,0.104,0.858,-1.115,-0.763,-1.344
0.570,0.238,0.098,0.870,-1.328,-0.641,-1.466
0.570,0.227,0.101,0.873,-1.374,-0.916,-1.527
0.570,0.238,0.100,0.875,-1.115,-0.519,-1.542
0.580,0.236,0.098,0.868,-0.885,0.336,-1.359
0.580,0.216,0.105,0.868,-0.779,0.580,-1.435
0.590,0.218,0.097,0.862,-0.626,-0.092,-1.435
0.590,0.218,0.095,0.874,-0.748,-0.229,-1.267
0.590,0.216,0.098,0.866,-0.534,-0.275,-1.145
0.600,0.218,0.104,0.879,-0.427,-0.229,-0.977
0.600,0.207,0.109,0.855,-0.397,-0.351,-0.763
0.610,0.215,0.104,0.871,-0.611,-0.214,-0.626
0.610,0.223,0.104,0.857,-0.641,0.275,-0.672
0.610,0.220,0.100,0.861,-0.626,0.519,-0.458
0.620,0.219,0.103,0.854,-0.824,0.992,-0.366
0.620,0.220,0.104,0.868,-0.824,1.359,-0.443
0.630,0.228,0.105,0.848,-0.809,1.756,-0.198
0.630,0.224,0.109,0.845,-0.779,2.000,-0.137
0.630,0.221,0.104,0.842,-1.053,2.260,0.015
0.640,0.222,0.113,0.854,-0.947,2.519,0.137
0.640,0.220,0.113,0.852,-1.008,2.672,0.046
0.650,0.216,0.112,0.853,-1.298,2.595,0.351
0.650,0.221,0.113,0.843,-1.420,2.015,0.366
0.650,0.215,0.111,0.852,-1.588,1.435,0.427
0.660,0.223,0.112,0.863,-1.908,0.763,0.244
0.660,0.232,0.114,0.854,-1.969,0.702,0.214
0.660,0.229,0.104,0.849,-1.908,0.443,0.397
0.670,0.220,0.105,0.851,-2.260,-0.153,0.366
0.670,0.223,0.110,0.853,-2.672,-0.565,0.336
0.680,0.222,0.111,0.848,-2.580,-0.733,0.397
0.680,0.230,0.110,0.853,-2.992,-0.412,0.321
0.680,0.219,0.110,0.851,-3.145,-0.672,0.519
0.690,0.221,0.112,0.846,-3.282,-0.794,0.611
0.690,0.227,0.117,0.859,-3.496,-0.931,0.595
0.700,0.231,0.112,0.841,-3.756,-0.763,0.779
0.700,0.223,0.112,0.846,-3.634,-0.870,0.748
0.700,0.222,0.112,0.851,-4.000,-1.221,0.794
0.710,0.227,0.114,0.855,-4.061,-0.809,0.947
0.710,0.234,0.107,0.858,-3.832,-0.458,0.977
0.720,0.240,0.112,0.865,-3.496,-0.122,0.885
0.720,0.236,0.108,0.873,-3.282,-0.137,0.931
0.720,0.235,0.105,0.870,-3.038,-0.153,0.763
0.730,0.239,0.103,0.874,-2.824,-0.580,0.840
0.730,0.249,0.109,0.875,-2.641,-0.427,0.260
0.730,0.247,0.106,0.874,-2.550,-0.046,0.260
0.740,0.241,0.111,0.875,-2.504,-0.305,0.168
0.740,0.245,0.108,0.879,-2.504,-0.473,0.107
0.750,0.245,0.113,0.881,-2.305,-0.641,0.061
0.750,0.244,0.114,0.877,-2.489,-0.702,0.137
0.750,0.243,0.112,0.875,-2.351,-0.107,-0.031
0.760,0.252,0.108,0.883,-2.244,0.550,-0.153
0.760,0.249,0.107,0.878,-2.076,0.931,-0.229
0.770,0.251,0.117,0.881,-2.229,1.344,-0.321
0.770,0.247,0.112,0.871,-2.061,1.664,-0.336
0.770,0.240,0.114,0.868,-1.908,2.214,-0.595
0.780,0.239,0.110,0.865,-1.511,2.031,-0.672
0.780,0.237,0.116,0.866,-1.802,1.298,-0.733
0.790,0.237,0.115,0.864,-1.969,1.557,-0.809
0.790,0.243,0.115,0.856,-1.878,2.031,-1.008
0.790,0.236,0.115,0.861,-2.031,1.634,-1.038
0.800,0.232,0.113,0.850,-2.565,1.053,-1.176
0.800,0.227,0.110,0.870,-2.901,0.718,-1.206
0.810,0.227,0.112,0.858,-3.160,0.519,-1.282
0.810,0.224,0.105,0.858,-3.252,0.260,-1.099
0.810,0.216,0.106,0.869,-3.313,-0.473,-1.038
0.820,0.217,0.109,0.886,-3.237,-0.656,-0.580
0.820,0.223,0.099,0.869,-3.450,-0.366,-0.260
0.830,0.224,0.104,0.890,-3.099,0.305,-0.061
0.830,0.228,0.102,0.883,-2.748,0.931,0.076
0.830,0.218,0.103,0.881,-2.321,0.947,0.153
0.840,0.218,0.099,0.882,-2.183,0.366,0.214
0.840,0.225,0.101,0.883,-1.710,0.382,0.321
0.840,0.224,0.104,0.878,-1.939,0.687,0.397
0.850,0.221,0.107,0.878,-1.771,0.412,0.168
0.850,0.219,0.105,0.887,-1.908,0.229,0.076
0.860,0.214,0.101,0.878,-1.725,0.275,0.168
0.860,0.206,0.097,0.880,-1.649,-0.061,0.336
0.860,0.209,0.099,0.875,-1.863,-0.702,0.565
0.870,0.210,0.100,0.868,-1.802,-0.901,0.718
0.870,0.211,0.104,0.881,-1.924,-1.130,0.931
0.880,0.219,0.098,0.871,-1.847,-0.779,1.282
0.880,0.221,0.101,0.881,-1.893,-0.153,1.466
0.880,0.220,0.097,0.862,-2.000,0.076,1.664
0.890,0.218,0.103,0.873,-1.878,0.275,1.756
0.890,0.226,0.099,0.876,-1.969,0.458,1.740
0.890,0.228,0.093,0.874,-2.061,0.427,1.786
0.900,0.240,0.093,0.884,-2.290,1.115,1.588
0.900,0.231,0.094,0.884,-2.061,1.481,1.466
0.910,0.231,0.089,0.878,-2.092,1.695,1.252
0.910,0.230,0.097,0.883,-2.031,1.359,1.221
0.910,0.237,0.098,0.877,-1.863,1.115,1.359
0.920,0.231,0.094,0.893,-1.298,1.282,1.389
0.920,0.230,0.097,0.890,-0.794,1.206,1.267
0.930,0.230,0.094,0.889,-0.702,1.145,1.313
0.930,0.232,0.098,0.888,-0.489,0.962,1.466
0.930,0.228,0.097,0.884,-0.168,1.359,1.160
0.940,0.233,0.093,0.876,0.183,1.618,1.313
0.940,0.228,0.102,0.866,0.031,1.389,1.527
0.940,0.226,0.099,0.868,-0.122,0.519,1.435
0.950,0.232,0.103,0.855,-0.397,-0.168,1.511
0.950,0.234,0.102,0.866,-0.641,-0.550,1.389
0.960,0.232,0.106,0.849,-0.962,-0.397,1.649
0.960,0.238,0.101,0.867,-1.298,-0.824,1.634
0.960,0.244,0.099,0.869,-1.939,-1.115,1.588
0.970,0.260,0.104,0.860,-1.832,-0.366,1.374
0.970,0.252,0.102,0.876,-1.817,0.000,1.130
0.980,0.260,0.098,0.881,-1.878,0.107,0.855
0.980,0.260,0.097,0.896,-1.740,0.137,0.672
0.980,0.262,0.095,0.902,-1.389,0.229,0.611
0.990,0.261,0.099,0.893,-0.687,0.092,0.336
0.990,0.259,0.094,0.893,-0.275,0.198,0.092
0.990,0.256,0.104,0.890,0.015,0.229,0.031
1.000,0.255,0.100,0.887,0.153,-0.046,-0.351
1.000,0.254,0.102,0.885,0.534,-0.260,-0.504
1.010,0.260,0.105,0.891,0.687,-0.244,-0.855
1.010,0.257,0.100,0.869,0.733,0.061,-1.176
1.010,0.251,0.103,0.876,0.885,0.168,-1.481
1.020,0.246,0.107,0.873,1.084,-0.427,-1.649
1.020,0.245,0.108,0.877,0.901,-0.473,-1.710
1.030,0.249,0.106,0.860,0.840,-0.244,-1.740
1.030,0.239,0.109,0.867,0.855,0.015,-1.710
1.030,0.231,0.106,0.853,0.687,-0.397,-1.664
1.040,0.230,0.109,0.858,0.275,-0.641,-1.420
1.040,0.229,0.104,0.851,0.137,-0.397,-1.237
1.040,0.234,0.108,0.854,-0.031,-0.092,-1.084
1.050,0.224,0.110,0.861,-0.366,0.260,-1.115
1.050,0.221,0.113,0.847,-0.229,0.183,-0.992
1.060,0.226,0.110,0.858,-0.901,-0.534,-1.008
1.060,0.227,0.113,0.854,-0.962,-0.580,-0.977
1.060,0.226,0.114,0.862,-0.916,-0.489,-1.008
1.070,0.230,0.108,0.852,-0.794,-0.565,-0.916
1.070,0.225,0.114,0.852,-1.176,-0.382,-0.885
1.080,0.222,0.107,0.850,-1.008,-0.427,-0.916
1.080,0.222,0.112,0.859,-0.656,-0.229,-0.611
1.080,0.218,0.115,0.865,-0.656,-0.198,-0.473
1.090,0.217,0.107,0.848,-0.550,0.015,-0.351
1.090,0.220,0.109,0.847,-0.870,-0.183,-0.229
1.100,0.220,0.113,0.849,-0.672,0.015,-0.275
1.100,0.226,0.108,0.843,-0.580,0.275,-0.107
1.100,0.221,0.114,0.856,-0.977,0.061,-0.076
1.110,0.229,0.110,0.838,-1.191,-0.275,0.137
1.110,0.228,0.113,0.834,-1.282,-0.718,0.244
1.120,0.231,0.111,0.829,-1.450,-1.450,0.122
1.120,0.231,0.106,0.834,-1.908,-1.603,0.015
1.120,0.245,0.109,0.834,-2.153,-1.206,-0.031
1.130,0.248,0.117,0.842,-2.733,-1.099,-0.214
1.130,0.250,0.109,0.842,-3.023,-1.252,-0.336
1.140,0.248,0.103,0.836,-3.252,-1.145,-0.840
1.140,0.246,0.100,0.854,-3.206,-2.015,-1.145
1.140,0.240,0.097,0.856,-3.618,-2.855,-1.313
1.150,0.241,0.098,0.863,-3.664,-3.344,-1.420
1.150,0.248,0.090,0.873,-3.618,-2.824,-1.359
1.160,0.243,0.097,0.882,-3.618,-2.366,-1.481
1.160,0.239,0.096,0.878,-3.634,-2.412,-1.374
1.160,0.234,0.093,0.884,-3.527,-2.107,-1.405
1.170,0.229,0.097,0.879,-3.374,-1.771,-1.344
1.170,0.220,0.094,0.889,-3.099,-1.588,-1.145
1.180,0.232,0.093,0.896,-2.977,-1.237,-1.115
1.180,0.239,0.101,0.901,-2.229,-0.061,-0.901
1.180,0.237,0.094,0.886,-1.618,1.282,-0.992
1.190,0.229,0.094,0.895,-1.237,2.504,-0.794
1.190,0.216,0.093,0.886,-0.992,2.794,-0.641
1.200,0.222,0.095,0.867,-0.794,3.237,-0.458
1.200,0.215,0.103,0.863,-0.809,3.481,-0.519
1.200,0.215,0.102,0.861,-0.733,3.557,-0.824
1.210,0.219,0.102,0.851,-1.023,2.992,-0.687
1.210,0.214,0.108,0.846,-1.603,2.901,-0.580
1.210,0.215,0.107,0.842,-1.939,2.885,-0.366
1.220,0.202,0.107,0.831,-2.183,2.931,-0.366
1.220,0.203,0.106,0.835,-2.443,2.427,-0.046
1.230,0.201,0.109,0.833,-2.489,1.527,-0.031
1.230,0.198,0.111,0.825,-2.321,1.481,0.244
1.230,0.196,0.113,0.825,-2.412,1.389,0.458
1.240,0.189,0.117,0.820,-2.672,1.221,0.611
1.240,0.197,0.121,0.813,-3.084,0.809,0.718
1.250,0.199,0.114,0.812,-3.298,0.672,0.885
1.250,0.204,0.114,0.811,-3.618,0.702,1.221
1.250,0.197,0.121,0.806,-3.710,0.137,1.267
1.260,0.198,0.120,0.804,-4.366,-0.336,1.710
1.260,0.210,0.120,0.802,-4.885,-1.374,1.771
1.260,0.214,0.121,0.791,-5.344,-1.481,1.863
1.270,0.220,0.123,0.783,-5.878,-1.985,1.832
1.270,0.226,0.128,0.789,-6.412,-2.244,1.649
1.280,0.230,0.125,0.788,-7.145,-2.305,1.939
1.280,0.232,0.122,0.790,-7.679,-2.336,1.847
1.280,0.238,0.131,0.777,-8.168,-2.473,2.153
1.290,0.230,0.129,0.772,-9.069,-2.351,2.000
1.290,0.240,0.133,0.764,-10.122,-2.550,2.122
1.300,0.240,0.131,0.769,-10.962,-2.183,2.412
1.300,0.245,0.133,0.777,-11.542,-1.344,2.382
1.300,0.239,0.131,0.774,-12.473,-0.962,2.656
1.310,0.241,0.128,0.761,-13.237,-0.290,2.672
1.310,0.244,0.137,0.760,-14.076,-0.107,2.901
1.320,0.242,0.134,0.755,-14.626,0.916,2.916
1.320,0.240,0.137,0.746,-15.527,1.924,3.115
1.320,0.241,0.135,0.747,-16.321,2.534,3.221
1.330,0.233,0.143,0.743,-17.267,3.374,3.313
1.330,0.233,0.141,0.728,-17.740,4.107,3.725
1.340,0.227,0.140,0.715,-18.901,4.366,3.893
1.340,0.229,0.146,0.717,-19.740,4.824,4.183
1.340,0.229,0.147,0.706,-20.366,5.069,4.229
1.350,0.223,0.146,0.686,-21.435,4.870,3.893
1.350,0.233,0.157,0.678,-22.489,4.947,2.870
1.360,0.219,0.167,0.662,-23.573,3.725,3.939
1.360,0.231,0.152,0.656,-24.046,3.206,3.954
1.360,0.228,0.156,0.632,-25.023,2.824,3.679
1.370,0.217,0.164,0.613,-26.214,1.924,3.420
1.370,0.212,0.157,0.590,-27.053,0.290,3.420
1.370,0.211,0.166,0.562,-28.366,-1.863,3.008
1.380,0.207,0.158,0.545,-29.832,-3.939,2.473
1.380,0.209,0.162,0.516,-31.313,-6.076,2.076
1.390,0.209,0.162,0.503,-33.084,-7.878,1.985
1.390,0.208,0.163,0.475,-34.931,-9.313,1.588
1.390,0.208,0.161,0.443,-37.313,-11.344,1.008
1.400,0.202,0.153,0.425,-39.832,-13.847,0.397
1.400,0.206,0.146,0.399,-42.962,-16.840,-0.718
1.410,0.190,0.129,0.379,-46.504,-20.168,-1.389
1.410,0.174,0.119,0.370,-50.489,-23.313,-1.740
1.420,0.155,0.109,0.365,-54.626,-26.962,-1.969
1.420,0.148,0.107,0.346,-59.130,-30.641,-1.511
1.420,0.145,0.086,0.359,-63.969,-34.809,-1.069
1.430,0.144,0.075,0.362,-68.382,-38.290,-0.687
1.430,0.147,0.065,0.371,-72.824,-41.618,0.031
1.440,0.152,0.054,0.385,-76.977,-44.076,1.099
1.440,0.156,0.038,0.370,-80.687,-45.893,1.725
1.440,0.164,0.028,0.391,-83.679,-46.748,2.855
1.450,0.167,0.019,0.392,-86.427,-46.611,3.847
1.450,0.175,0.007,0.393,-89.282,-45.679,5.221
1.460,0.188,0.003,0.403,-91.847,-44.550,6.275
1.460,0.193,-0.014,0.400,-93.756,-42.748,6.947
1.460,0.219,-0.028,0.399,-95.725,-40.611,8.168
1.470,0.216,-0.030,0.396,-97.786,-37.389,8.962
1.470,0.210,-0.048,0.395,-99.664,-35.603,10.229
1.480,0.207,-0.059,0.399,-101.298,-33.328,11.710
1.480,0.206,-0.062,0.398,-103.038,-32.336,13.374
1.490,0.202,-0.072,0.388,-104.718,-32.580,14.962
1.490,0.220,-0.080,0.382,-107.282,-32.137,16.855
1.490,0.254,-0.091,0.377,-110.031,-31.221,18.366
1.500,0.291,-0.096,0.365,-113.313,-28.931,19.618
1.500,0.330,-0.098,0.362,-117.557,-26.702,20.489
1.510,0.385,-0.106,0.351,-122.290,-24.046,20.366
1.510,0.425,-0.115,0.341,-127.130,-21.542,19.191
1.520,0.463,-0.121,0.340,-132.443,-19.588,17.145
1.520,0.492,-0.138,0.340,-137.634,-18.168,14.809
1.520,0.491,-0.150,0.340,-142.779,-16.977,12.412
1.530,0.486,-0.167,0.345,-147.542,-15.450,10.427
1.530,0.502,-0.172,0.331,-152.214,-14.168,8.198
1.540,0.501,-0.194,0.349,-156.183,-13.588,5.863
1.540,0.500,-0.203,0.347,-159.664,-12.672,3.771
1.550,0.500,-0.221,0.360,-162.672,-12.366,1.573
1.550,0.509,-0.236,0.363,-166.000,-10.290,-0.443
1.560,0.520,-0.250,0.336,-171.023,-5.435,-1.863
1.560,0.480,-0.277,0.380,-172.977,-8.168,-3.359
1.560,0.478,-0.305,0.400,-174.901,-10.015,-4.107
1.570,0.466,-0.332,0.401,-176.977,-10.321,-3.756
1.570,0.465,-0.355,0.435,-179.405,-12.290,-3.008
1.580,0.472,-0.394,0.477,-180.656,-14.321,-2.672
1.580,0.506,-0.421,0.531,-181.817,-16.565,-2.611
1.590,0.552,-0.463,0.588,-181.939,-16.550,-3.481
1.590,0.541,-0.503,0.623,-182.031,-15.466,-4.046
1.590,0.531,-0.514,0.638,-182.122,-14.809,-4.534
1.600,0.532,-0.547,0.687,-181.405,-15.542,-5.588
1.600,0.537,-0.577,0.735,-177.939,-17.496,-8.000
1.610,0.566,-0.590,0.722,-175.237,-13.084,-10.779
1.610,0.576,-0.602,0.691,-174.137,-3.160,-13.496
1.620,0.576,-0.613,0.626,-174.351,7.786,-16.870
1.620,0.528,-0.606,0.645,-173.420,12.763,-19.405
1.620,0.483,-0.637,0.634,-169.374,15.130,-22.229
1.630,0.443,-0.635,0.574,-168.718,19.084,-23.908
1.630,0.400,-0.641,0.506,-170.779,24.870,-24.214
1.640,0.327,-0.646,0.437,-174.809,27.084,-23.573
1.640,0.292,-0.664,0.420,-179.802,26.992,-22.153
1.650,0.266,-0.682,0.383,-185.038,27.771,-20.427
1.650,0.240,-0.716,0.360,-190.641,28.031,-18.641
1.650,0.217,-0.736,0.368,-196.321,26.076,-16.534
1.660,0.204,-0.768,0.390,-201.756,22.321,-14.351
1.660,0.219,-0.801,0.427,-205.664,17.771,-11.710
1.670,0.208,-0.836,0.452,-208.809,12.519,-8.840
1.670,0.186,-0.878,0.506,-210.702,6.519,-4.748
1.680,0.181,-0.913,0.545,-210.809,0.687,-0.901
1.680,0.227,-0.958,0.598,-209.786,-3.328,2.046
1.680,0.287,-0.976,0.646,-208.031,-5.573,3.008
1.690,0.372,-1.010,0.696,-205.466,-4.916,2.702
1.690,0.427,-1.021,0.712,-202.748,-1.802,0.656
1.700,0.482,-1.032,0.749,-198.733,3.863,-2.733
1.700,0.486,-1.046,0.763,-193.847,10.122,-6.824
1.710,0.460,-1.059,0.747,-189.267,16.366,-10.580
1.710,0.433,-1.059,0.720,-184.824,21.664,-13.664
1.710,0.389,-1.067,0.691,-180.443,25.237,-16.290
1.720,0.349,-1.068,0.674,-177.191,27.435,-18.122
1.720,0.328,-1.065,0.634,-174.611,29.115,-19.344
1.730,0.299,-1.069,0.591,-172.504,29.374,-20.198
1.730,0.282,-1.074,0.562,-171.511,27.817,-20.901
1.740,0.267,-1.077,0.527,-171.405,26.214,-21.176
1.740,0.261,-1.078,0.493,-172.779,24.473,-21.069
1.740,0.241,-1.092,0.462,-174.534,21.817,-20.885
1.750,0.217,-1.121,0.478,-175.679,17.664,-20.092
1.750,0.189,-1.135,0.478,-176.015,12.092,-19.481
1.760,0.154,-1.156,0.481,-175.481,5.069,-18.275
1.760,0.125,-1.174,0.492,-174.672,-2.977,-16.565
1.770,0.083,-1.196,0.513,-171.634,-12.733,-12.550
1.770,0.058,-1.226,0.579,-167.405,-21.359,-11.206
1.770,0.108,-1.182,0.464,-169.435,-17.863,-7.206
1.780,0.011,-1.230,0.532,-166.626,-25.649,-3.863
1.780,-0.002,-1.257,0.562,-161.954,-36.244,-0.031
1.790,0.034,-1.244,0.524,-159.527,-36.290,3.924
1.790,0.056,-1.246,0.502,-157.313,-33.954,7.160
1.800,0.062,-1.257,0.520,-154.962,-34.351,10.351
1.800,0.085,-1.252,0.500,-152.855,-33.206,13.084
1.810,0.108,-1.254,0.483,-151.985,-28.290,15.954
1.810,0.129,-1.255,0.449,-151.481,-22.412,18.656
1.810,0.094,-1.268,0.456,-149.145,-23.542,20.427
1.820,0.153,-1.258,0.415,-150.382,-18.092,21.588
1.820,0.154,-1.245,0.348,-153.740,-12.458,23.252
1.830,0.102,-1.271,0.380,-154.076,-15.634,24.061
1.830,0.116,-1.271,0.348,-155.053,-18.137,24.992
1.840,0.138,-1.258,0.320,-158.641,-18.489,25.863
1.840,0.154,-1.259,0.328,-162.031,-22.290,25.618
1.840,0.178,-1.273,0.350,-163.573,-27.420,24.565
1.850,0.209,-1.272,0.365,-164.153,-32.351,22.473
1.850,0.227,-1.277,0.389,-163.832,-37.511,19.985
1.860,0.252,-1.269,0.397,-162.947,-42.885,16.809
1.860,0.265,-1.267,0.418,-161.038,-47.282,13.771
1.870,0.258,-1.281,0.435,-157.649,-52.031,11.115
1.870,0.201,-1.299,0.469,-150.382,-62.687,7.969
1.870,0.244,-1.258,0.421,-148.626,-63.756,7.313
1.880,0.235,-1.240,0.392,-148.901,-64.519,8.015
1.880,0.204,-1.261,0.424,-145.206,-70.000,7.863
1.890,0.234,-1.250,0.383,-142.305,-70.534,8.260
1.890,0.231,-1.243,0.334,-141.740,-68.733,9.847
1.900,0.214,-1.250,0.320,-140.550,-69.374,12.046
1.900,0.220,-1.242,0.292,-139.878,-70.351,14.443
1.900,0.238,-1.229,0.283,-140.519,-69.817,16.885
1.910,0.277,-1.227,0.284,-141.115,-67.038,19.237
1.910,0.315,-1.220,0.284,-141.420,-63.328,21.145
1.920,0.350,-1.218,0.284,-140.519,-58.519,22.076
1.920,0.379,-1.220,0.293,-139.099,-53.725,22.702
1.930,0.385,-1.222,0.311,-136.443,-50.702,22.718
1.930,0.419,-1.218,0.276,-135.130,-44.458,22.076
1.930,0.404,-1.202,0.228,-134.412,-38.748,21.924
1.940,0.369,-1.210,0.239,-131.756,-38.916,21.359
1.940,0.342,-1.192,0.198,-129.878,-40.198,20.885
1.950,0.329,-1.195,0.157,-129.740,-41.603,20.534
1.950,0.311,-1.193,0.136,-128.794,-44.458,20.061
1.960,0.281,-1.200,0.120,-127.069,-48.977,19.832
1.960,0.272,-1.185,0.106,-126.336,-54.504,20.092
1.970,0.269,-1.185,0.096,-125.573,-60.718,20.153
1.970,0.243,-1.186,0.082,-121.313,-70.748,19.893
1.970,0.288,-1.191,0.051,-118.992,-72.916,19.542
1.980,0.285,-1.144,-0.018,-120.901,-76.427,20.794
1.980,0.322,-1.160,-0.032,-123.634,-77.878,21.679
1.990,0.303,-1.170,0.026,-121.084,-77.069,23.130
1.990,0.346,-1.156,-0.018,-120.137,-68.748,25.389
2.000,0.279,-1.154,-0.077,-120.916,-70.000,26.809
2.000,0.240,-1.147,-0.083,-122.885,-78.107,28.794
2.000,0.271,-1.150,-0.084,-124.901,-79.282,31.588
2.010,0.295,-1.147,-0.063,-125.328,-76.504,34.687
2.010,0.338,-1.148,-0.075,-126.076,-72.702,36.015
2.020,0.340,-1.151,-0.079,-125.756,-72.855,36.931
2.020,0.380,-1.152,-0.049,-124.885,-71.450,37.359
2.030,0.463,-1.152,-0.028,-125.725,-55.435,38.443
2.030,0.481,-1.169,0.010,-120.840,-39.115,38.656
2.040,0.403,-1.174,0.003,-115.786,-37.679,37.939
2.040,0.348,-1.160,-0.049,-116.153,-41.115,38.275
2.040,0.418,-1.158,-0.050,-118.351,-32.885,38.748
2.050,0.480,-1.161,0.022,-116.122,-21.893,37.832
2.050,0.434,-1.186,0.041,-110.992,-18.702,35.664
2.060,0.378,-1.166,0.014,-110.397,-21.618,34.534
2.060,0.393,-1.156,-0.013,-110.244,-20.718,33.832
2.070,0.410,-1.163,0.003,-106.931,-19.725,32.076
2.070,0.399,-1.161,0.027,-103.786,-20.779,30.412
2.070,0.404,-1.156,0.015,-101.863,-18.458,29.420
2.080,0.389,-1.157,0.023,-97.573,-17.038,28.244
2.080,0.342,-1.151,-0.004,-93.313,-21.710,26.687
2.090,0.301,-1.145,-0.036,-92.351,-28.168,26.321
2.090,0.331,-1.133,-0.051,-92.641,-25.176,26.672
2.100,0.346,-1.137,-0.035,-89.664,-21.191,26.092
2.100,0.331,-1.142,-0.032,-87.573,-19.649,25.481
2.110,0.317,-1.149,-0.027,-84.702,-19.237,25.008
2.110,0.295,-1.148,-0.035,-81.954,-19.176,24.733
2.110,0.299,-1.145,-0.009,-81.176,-14.489,25.435
2.120,0.311,-1.148,-0.013,-77.038,-10.443,25.527
2.120,0.278,-1.153,-0.001,-73.863,-9.893,25.267
2.130,0.277,-1.152,-0.014,-71.466,-8.733,25.695
2.130,0.297,-1.148,-0.026,-68.168,-5.038,25.466
2.140,0.289,-1.147,-0.021,-65.496,-4.519,24.733
2.140,0.296,-1.142,-0.028,-62.840,-4.321,24.382
2.140,0.302,-1.141,-0.029,-60.061,-3.954,23.405
2.150,0.290,-1.148,-0.027,-56.901,-4.183,22.366
2.150,0.281,-1.141,-0.043,-53.130,-6.183,20.885
2.160,0.277,-1.138,-0.070,-50.779,-9.603,18.611
2.160,0.301,-1.123,-0.075,-49.634,-10.916,16.214
2.170,0.299,-1.124,-0.086,-46.443,-12.473,14.061
2.170,0.276,-1.121,-0.069,-42.412,-17.725,11.695
2.170,0.268,-1.120,-0.092,-39.023,-20.794,10.244
2.180,0.247,-1.106,-0.122,-36.595,-22.397,10.153
2.180,0.235,-1.099,-0.130,-34.840,-23.221,10.672
2.190,0.249,-1.093,-0.137,-32.687,-22.244,10.748
2.190,0.257,-1.092,-0.145,-30.504,-20.580,10.611
2.200,0.271,-1.087,-0.153,-29.282,-16.962,10.687
2.200,0.258,-1.084,-0.149,-25.679,-16.046,11.115
2.200,0.252,-1.073,-0.146,-24.046,-16.534,11.344
2.210,0.286,-1.061,-0.185,-23.481,-11.496,11.786
2.210,0.276,-1.064,-0.204,-21.405,-8.763,11.847
2.220,0.285,-1.063,-0.173,-20.015,-8.229,11.786
2.220,0.295,-1.057,-0.185,-18.824,-5.679,11.710
2.230,0.293,-1.059,-0.203,-16.855,-1.695,11.069
2.230,0.298,-1.052,-0.204,-15.542,-0.702,11.679
2.230,0.294,-1.045,-0.222,-14.565,0.351,11.389
2.240,0.302,-1.045,-0.207,-13.511,1.588,11.206
2.240,0.312,-1.048,-0.209,-12.061,3.191,10.305
2.250,0.320,-1.053,-0.201,-10.366,4.565,9.542
2.250,0.309,-1.041,-0.210,-9.069,5.038,8.840
2.250,0.298,-1.037,-0.220,-7.359,4.809,7.802
2.260,0.289,-1.046,-0.226,-5.542,4.290,6.855
2.260,0.265,-1.032,-0.255,-4.641,3.221,6.748
2.270,0.266,-1.031,-0.274,-4.412,2.107,6.351
2.270,0.261,-1.028,-0.302,-5.023,0.748,5.008
2.270,0.255,-1.013,-0.300,-6.015,-1.069,5.374
2.280,0.268,-1.022,-0.318,-6.733,-1.435,4.580
2.280,0.275,-1.022,-0.303,-7.237,-1.374,3.679
2.290,0.271,-1.024,-0.297,-8.473,-2.305,2.809
2.290,0.271,-1.027,-0.302,-9.023,-3.221,2.092
2.300,0.271,-1.022,-0.299,-9.740,-2.794,1.466
2.300,0.264,-1.016,-0.280,-9.649,-1.542,0.840
2.300,0.251,-1.027,-0.286,-8.718,-1.145,0.489
2.310,0.236,-1.021,-0.292,-8.031,-1.863,0.443
2.310,0.231,-1.024,-0.289,-7.435,-0.580,0.580
2.320,0.240,-1.022,-0.292,-6.427,0.916,0.824
2.320,0.234,-1.022,-0.286,-5.496,1.298,0.916
2.320,0.235,-1.017,-0.289,-4.656,1.557,0.733
2.330,0.235,-1.024,-0.277,-4.489,2.489,0.702
2.330,0.224,-1.017,-0.296,-4.031,3.389,0.779
2.340,0.213,-1.021,-0.306,-3.679,3.756,0.733
2.340,0.200,-1.021,-0.299,-4.214,1.985,0.855
2.340,0.204,-1.021,-0.299,-4.305,2.031,1.176
2.350,0.218,-1.021,-0.298,-4.214,3.130,1.573
2.350,0.223,-1.023,-0.275,-3.618,3.710,1.298
2.360,0.222,-1.031,-0.279,-2.947,3.939,1.282
2.360,0.229,-1.029,-0.257,-1.924,4.962,0.870
2.360,0.221,-1.024,-0.253,-0.504,5.710,0.687
2.370,0.209,-1.032,-0.257,0.321,5.298,0.473
2.370,0.219,-1.027,-0.240,1.267,4.794,0.305
2.380,0.220,-1.026,-0.241,2.443,4.198,-0.244
2.380,0.221,-1.026,-0.243,3.145,4.031,-1.008
2.380,0.206,-1.024,-0.250,4.290,3.634,-1.435
2.390,0.206,-1.029,-0.262,5.252,2.595,-1.908
2.390,0.193,-1.025,-0.264,6.214,1.298,-2.168
2.400,0.185,-1.031,-0.272,6.473,-0.397,-2.244
2.400,0.186,-1.026,-0.276,7.084,-2.198,-2.611
2.400,0.183,-1.026,-0.268,7.740,-3.832,-2.733
2.410,0.190,-1.038,-0.271,8.351,-5.160,-3.099
2.410,0.197,-1.039,-0.277,8.870,-6.702,-3.298
2.420,0.197,-1.035,-0.266,8.718,-7.588,-3.374
2.420,0.205,-1.042,-0.265,8.748,-7.939,-3.328
2.420,0.212,-1.042,-0.264,8.870,-7.511,-3.282
2.430,0.233,-1.047,-0.240,8.656,-6.840,-2.977
2.430,0.250,-1.047,-0.228,8.351,-5.954,-2.947
2.440,0.271,-1.062,-0.218,8.702,-4.244,-3.069
2.440,0.291,-1.062,-0.178,9.603,-2.550,-3.237
2.440,0.313,-1.068,-0.140,11.313,-0.656,-3.679
2.450,0.337,-1.074,-0.110,13.954,2.733,-4.214
2.450,0.362,-1.085,-0.090,16.366,7.756,-4.779
2.460,0.372,-1.081,-0.063,19.389,13.725,-5.328
2.460,0.365,-1.093,-0.050,23.603,19.008,-5.985
2.460,0.348,-1.091,-0.037,28.107,22.076,-6.366
2.470,0.343,-1.091,-0.034,32.061,25.023,-6.580
2.470,0.335,-1.089,-0.032,35.756,28.656,-6.351
2.480,0.331,-1.093,-0.013,39.252,32.779,-5.939
2.480,0.327,-1.096,-0.014,43.053,37.145,-5.282
2.490,0.342,-1.100,-0.003,46.351,43.237,-4.168
2.490,0.342,-1.106,0.002,50.198,50.931,-2.901
2.490,0.344,-1.119,-0.001,52.885,58.397,-1.344
2.500,0.341,-1.127,-0.010,55.374,65.481,0.550
2.500,0.340,-1.137,0.012,57.191,71.466,2.504
2.510,0.352,-1.145,0.009,57.939,77.496,4.550
2.510,0.360,-1.146,0.010,57.511,81.588,6.015
2.510,0.374,-1.147,0.010,56.870,85.557,6.931
2.520,0.381,-1.158,0.036,56.885,87.313,6.870
2.520,0.387,-1.164,0.078,58.656,88.519,6.198
2.530,0.397,-1.185,0.098,60.443,90.733,4.626
2.530,0.417,-1.176,0.110,63.969,97.557,3.511
2.530,0.459,-1.199,0.130,69.954,111.130,1.359
2.540,0.406,-1.212,0.132,75.450,116.366,-1.084
2.540,0.375,-1.215,0.125,78.595,115.542,-3.969
2.550,0.348,-1.228,0.123,83.252,112.351,-7.786
2.550,0.326,-1.252,0.141,88.397,106.962,-11.130
2.550,0.289,-1.262,0.142,92.718,101.420,-13.527
2.560,0.270,-1.265,0.126,95.420,99.496,-14.962
2.560,0.244,-1.284,0.130,97.542,89.924,-16.107
2.570,0.244,-1.289,0.141,99.649,83.237,-17.282
2.570,0.255,-1.308,0.151,101.588,78.290,-18.443
2.580,0.256,-1.330,0.185,104.656,71.359,-19.725
2.580,0.269,-1.343,0.212,106.901,65.954,-21.267
2.580,0.293,-1.366,0.249,109.725,62.458,-22.382
2.590,0.281,-1.366,0.257,113.298,59.740,-23.603
2.590,0.307,-1.387,0.306,118.046,59.924,-25.008
2.600,0.302,-1.398,0.351,125.191,59.221,-25.954
2.600,0.271,-1.409,0.353,131.939,55.328,-26.290
2.610,0.265,-1.407,0.358,138.290,53.130,-26.031
2.610,0.286,-1.397,0.361,144.076,55.832,-25.679
2.610,0.281,-1.398,0.344,151.435,57.298,-26.183
2.620,0.271,-1.398,0.335,159.038,54.824,-27.878
2.620,0.242,-1.401,0.306,166.656,52.046,-30.244
2.630,0.234,-1.407,0.285,173.924,50.061,-32.168
2.630,0.198,-1.417,0.242,179.832,47.603,-33.573
2.640,0.161,-1.419,0.160,182.458,46.168,-34.427
2.640,0.128,-1.400,0.122,182.443,42.595,-33.603
2.640,0.074,-1.417,0.150,184.763,30.580,-32.473
2.650,-0.037,-1.404,0.074,177.924,3.893,-31.756
2.650,-0.020,-1.424,0.085,182.412,-13.863,-29.527
2.660,0.140,-1.412,0.139,183.725,-11.237,-27.939
2.660,0.214,-1.404,0.105,181.893,-5.695,-26.489
2.670,0.210,-1.402,0.073,178.672,-6.992,-25.267
2.670,0.212,-1.409,0.082,175.145,-13.924,-24.260
2.670,0.266,-1.394,0.115,172.351,-16.122,-24.214
2.680,0.330,-1.401,0.156,170.779,-12.595,-24.336
2.680,0.378,-1.388,0.195,169.420,-7.573,-25.084
2.690,0.376,-1.395,0.206,169.771,-3.664,-26.641
2.690,0.366,-1.380,0.243,170.901,3.450,-27.023
2.700,0.356,-1.370,0.278,172.550,12.290,-26.748
2.700,0.313,-1.379,0.288,175.847,20.626,-26.153
2.700,0.280,-1.365,0.308,180.168,29.313,-24.565
2.710,0.214,-1.371,0.327,184.641,38.214,-22.611
2.710,0.166,-1.362,0.298,190.840,40.107,-20.962
2.720,0.147,-1.342,0.269,195.053,37.053,-20.321
2.720,0.129,-1.324,0.226,195.725,30.763,-18.947
2.730,0.132,-1.306,0.189,194.443,23.588,-17.847
2.730,0.150,-1.294,0.195,193.985,15.573,-17.511
2.730,0.174,-1.298,0.205,193.878,7.053,-17.557
2.740,0.193,-1.285,0.204,191.969,-1.099,-17.160
2.740,0.225,-1.278,0.216,190.015,-8.107,-17.313
2.750,0.265,-1.278,0.245,188.931,-13.939,-17.511
2.750,0.312,-1.269,0.271,188.382,-18.366,-18.000
2.760,0.356,-1.269,0.292,188.229,-20.275,-18.977
2.760,0.403,-1.273,0.311,189.160,-22.336,-21.267
2.760,0.430,-1.258,0.309,189.466,-23.634,-24.809
2.770,0.459,-1.242,0.318,190.107,-22.290,-27.863
2.770,0.449,-1.220,0.319,190.260,-19.435,-30.183
2.780,0.440,-1.199,0.323,190.443,-17.634,-32.382
2.780,0.423,-1.185,0.322,191.481,-17.298,-34.580
2.790,0.391,-1.180,0.336,192.840,-17.710,-35.374
2.790,0.363,-1.167,0.333,192.885,-18.977,-34.427
2.790,0.339,-1.147,0.331,192.000,-20.427,-33.511
2.800,0.341,-1.141,0.339,192.321,-22.183,-32.641
2.800,0.362,-1.130,0.365,193.282,-22.824,-32.321
2.810,0.384,-1.124,0.363,193.649,-21.053,-31.847
2.810,0.399,-1.119,0.364,193.603,-17.832,-31.878
2.820,0.408,-1.112,0.373,193.557,-15.023,-32.458
2.820,0.420,-1.107,0.366,193.069,-12.504,-33.221
2.820,0.421,-1.098,0.366,192.076,-8.885,-33.756
2.830,0.412,-1.083,0.366,191.069,-3.008,-33.588
2.830,0.400,-1.078,0.359,189.847,1.908,-33.069
2.840,0.374,-1.070,0.367,188.672,5.206,-32.443
2.840,0.365,-1.046,0.360,187.237,7.405,-30.855
2.850,0.348,-1.033,0.363,185.603,9.496,-28.962
2.850,0.349,-1.023,0.379,183.878,10.733,-27.389
2.850,0.356,-1.012,0.409,183.069,11.634,-25.832
2.860,0.345,-1.009,0.448,183.725,11.664,-24.183
2.860,0.345,-0.999,0.469,184.275,10.931,-21.573
2.870,0.403,-0.988,0.472,183.466,11.557,-20.107
2.870,0.464,-0.976,0.492,182.870,12.947,-20.229
2.880,0.522,-0.969,0.514,182.931,16.473,-21.511
2.880,0.556,-0.962,0.530,182.916,21.069,-23.863
2.880,0.566,-0.941,0.537,183.053,25.282,-26.733
2.890,0.568,-0.932,0.534,183.435,27.588,-30.015
2.890,0.541,-0.925,0.542,184.107,29.832,-33.511
2.900,0.497,-0.909,0.523,184.015,30.748,-36.229
2.900,0.458,-0.894,0.520,184.183,30.855,-38.534
2.900,0.422,-0.879,0.520,184.122,28.458,-40.870
2.910,0.407,-0.859,0.521,183.756,26.641,-42.855
2.910,0.406,-0.845,0.543,184.153,27.725,-44.382
2.920,0.384,-0.840,0.551,184.458,29.985,-44.244
2.920,0.349,-0.827,0.554,184.214,31.466,-43.527
2.930,0.334,-0.818,0.549,183.298,33.267,-42.153
2.930,0.329,-0.818,0.575,183.725,35.725,-40.489
2.930,0.337,-0.802,0.581,184.305,38.885,-38.885
2.940,0.350,-0.781,0.589,184.748,43.786,-37.695
2.940,0.367,-0.778,0.578,184.779,48.931,-36.748
2.950,0.356,-0.758,0.565,184.779,53.389,-36.137
2.950,0.354,-0.748,0.552,184.626,56.092,-35.771
2.960,0.337,-0.733,0.541,184.092,57.863,-36.168
2.960,0.307,-0.711,0.517,182.702,57.130,-36.122
2.960,0.290,-0.685,0.517,181.298,54.000,-36.168
2.970,0.268,-0.672,0.500,180.061,50.550,-35.527
2.970,0.241,-0.653,0.510,178.504,45.786,-34.336
2.980,0.213,-0.634,0.496,176.763,38.855,-32.519
2.980,0.196,-0.614,0.511,174.305,31.160,-30.504
2.990,0.216,-0.594,0.519,172.489,24.855,-29.069
2.990,0.250,-0.573,0.521,170.626,20.733,-27.481
2.990,0.268,-0.559,0.528,168.733,17.908,-27.069
3.000,0.296,-0.544,0.525,166.885,15.664,-27.405
3.000,0.309,-0.519,0.531,164.748,13.481,-27.969
3.010,0.307,-0.509,0.533,162.794,12.031,-28.794
3.010,0.303,-0.500,0.536,160.901,12.748,-28.840
3.020,0.277,-0.468,0.554,159.282,13.573,-27.969
3.020,0.259,-0.452,0.562,158.198,13.847,-26.366
3.020,0.248,-0.436,0.563,157.649,14.718,-24.718
3.030,0.233,-0.400,0.560,156.489,16.046,-22.351
3.030,0.226,-0.389,0.550,155.313,17.679,-19.847
3.040,0.215,-0.364,0.540,154.275,18.840,-16.824
3.040,0.223,-0.348,0.524,152.809,20.611,-14.183
3.050,0.230,-0.329,0.521,150.229,21.756,-11.924
3.050,0.224,-0.305,0.514,147.420,21.695,-9.588
3.050,0.223,-0.286,0.511,144.412,21.328,-7.679
3.060,0.247,-0.271,0.510,141.863,21.954,-5.863
3.060,0.268,-0.256,0.498,139.099,23.328,-4.809
3.070,0.270,-0.240,0.500,136.718,24.427,-3.924
3.070,0.263,-0.220,0.487,134.214,24.153,-3.221
3.070,0.258,-0.199,0.479,131.603,23.954,-1.985
3.080,0.265,-0.179,0.480,129.221,25.450,-0.962
3.080,0.275,-0.157,0.463,126.794,26.840,0.092
3.090,0.269,-0.141,0.438,124.244,26.748,0.641
3.090,0.261,-0.129,0.433,121.038,24.519,0.748
3.100,0.249,-0.109,0.412,117.252,21.481,0.641
3.100,0.243,-0.097,0.409,113.252,17.725,0.397
3.100,0.242,-0.082,0.415,109.496,13.664,0.046
3.110,0.235,-0.074,0.426,106.214,10.046,-0.061
3.110,0.222,-0.071,0.438,103.053,6.443,0.427
3.120,0.218,-0.063,0.458,100.260,3.252,1.191
3.120,0.234,-0.049,0.474,98.290,1.786,2.122
3.120,0.256,-0.043,0.487,95.145,1.573,2.809
3.130,0.275,-0.036,0.502,94.687,2.733,3.252
3.130,0.289,-0.030,0.515,91.771,4.458,3.542
3.140,0.295,-0.014,0.513,90.916,6.931,4.229
3.140,0.284,-0.008,0.536,89.405,9.359,4.855
3.140,0.283,0.012,0.526,87.863,12.076,5.954
3.150,0.274,0.023,0.525,86.641,14.595,7.374
3.150,0.266,0.032,0.523,85.634,16.260,8.366
3.150,0.275,0.050,0.529,84.183,17.573,9.618
3.160,0.283,0.063,0.520,82.626,20.336,10.718
3.160,0.291,0.077,0.503,81.038,22.947,11.634
3.170,0.300,0.083,0.508,79.237,24.656,12.137
3.170,0.300,0.089,0.506,77.099,26.092,12.351
3.170,0.295,0.100,0.489,74.718,26.656,12.031
3.180,0.293,0.107,0.491,72.305,26.153,11.832
3.180,0.282,0.112,0.481,69.435,24.183,11.069
3.190,0.274,0.113,0.490,66.656,20.947,9.939
3.190,0.265,0.116,0.477,62.992,16.565,8.656
3.190,0.264,0.135,0.484,59.649,12.321,7.176
3.200,0.262,0.137,0.491,57.053,7.405,5.267
3.200,0.251,0.134,0.506,54.427,2.092,3.710
3.210,0.240,0.142,0.508,51.542,-2.870,2.473
3.210,0.247,0.141,0.514,48.702,-6.412,1.817
3.210,0.235,0.149,0.534,46.046,-9.115,1.389
3.220,0.215,0.150,0.541,44.321,-11.069,1.573
3.220,0.215,0.147,0.547,42.489,-13.695,1.649
3.230,0.221,0.152,0.558,40.550,-15.634,2.214
3.230,0.218,0.148,0.570,38.137,-15.695,2.840
3.230,0.233,0.151,0.584,35.786,-13.740,3.420
3.240,0.248,0.148,0.605,34.214,-10.840,4.305
3.240,0.230,0.150,0.625,32.489,-8.458,5.511
3.250,0.241,0.154,0.654,31.313,-5.573,6.870
3.250,0.243,0.156,0.663,30.885,-1.496,8.061
3.250,0.255,0.157,0.663,30.885,2.595,9.328
3.260,0.266,0.161,0.678,31.099,6.901,10.076
3.260,0.269,0.164,0.680,31.435,11.237,10.656
3.270,0.274,0.177,0.666,31.344,15.282,11.130
3.270,0.256,0.184,0.663,31.069,18.473,11.679
3.270,0.245,0.191,0.654,30.992,20.595,12.122
3.280,0.241,0.193,0.639,30.550,22.427,12.779
3.280,0.228,0.202,0.623,29.008,23.450,13.511
3.280,0.218,0.213,0.594,27.053,23.771,13.908
3.290,0.218,0.217,0.588,24.779,23.802,14.611
3.290,0.206,0.223,0.567,22.244,23.740,15.053
3.300,0.206,0.230,0.576,19.863,23.206,15.969
3.300,0.210,0.229,0.577,16.931,23.313,17.115
3.300,0.213,0.229,0.561,13.954,23.267,17.435
3.310,0.234,0.222,0.588,11.038,22.489,17.359
3.310,0.257,0.220,0.601,8.031,22.214,16.275
3.320,0.267,0.211,0.616,5.481,22.641,15.130
3.320,0.268,0.204,0.638,3.328,22.733,14.076
3.320,0.254,0.208,0.646,1.176,22.031,12.885
3.330,0.245,0.201,0.653,-1.328,21.389,12.122
3.330,0.229,0.201,0.677,-3.359,20.046,11.511
3.340,0.228,0.205,0.678,-4.565,19.374,10.931
3.340,0.233,0.207,0.701,-5.756,18.855,10.412
3.340,0.229,0.200,0.710,-6.611,18.794,9.710
3.350,0.223,0.204,0.726,-7.542,18.489,9.374
3.350,0.211,0.209,0.734,-7.924,18.550,9.145
3.360,0.203,0.207,0.743,-8.290,18.275,9.176
3.360,0.202,0.216,0.738,-8.443,17.756,9.542
3.360,0.204,0.218,0.752,-8.550,17.008,9.618
3.370,0.206,0.216,0.768,-8.427,16.824,9.985
3.370,0.207,0.220,0.772,-8.000,16.687,10.565
3.380,0.213,0.223,0.770,-7.939,16.870,11.130
3.380,0.222,0.221,0.756,-8.534,16.748,11.618
3.380,0.233,0.219,0.770,-8.901,16.824,11.802
3.390,0.240,0.220,0.771,-8.840,16.718,12.137
3.390,0.257,0.218,0.789,-9.176,16.824,12.015
3.400,0.273,0.214,0.789,-9.588,17.725,11.802
3.400,0.264,0.209,0.790,-9.939,18.229,11.176
3.400,0.262,0.208,0.802,-10.351,17.435,10.656
3.410,0.261,0.213,0.809,-10.550,15.878,10.122
3.410,0.267,0.210,0.829,-10.534,15.954,9.252
3.420,0.272,0.205,0.823,-10.473,16.229,8.840
3.420,0.262,0.201,0.831,-10.244,14.916,8.305
3.420,0.246,0.206,0.826,-9.588,12.748,8.061
3.430,0.241,0.198,0.829,-9.359,11.206,8.153
3.430,0.236,0.209,0.837,-9.481,8.824,8.458
3.440,0.235,0.198,0.843,-9.511,6.412,8.595
3.440,0.243,0.199,0.839,-9.115,4.595,8.855
3.440,0.252,0.202,0.852,-8.504,3.206,8.840
3.450,0.257,0.209,0.859,-8.321,2.137,9.115
3.450,0.269,0.202,0.852,-7.664,1.527,9.130
3.450,0.283,0.202,0.859,-7.634,1.481,9.115
3.460,0.295,0.190,0.854,-7.664,1.511,8.580
3.460,0.308,0.187,0.858,-7.817,1.023,7.771
3.470,0.304,0.189,0.857,-7.802,0.168,7.069
3.470,0.305,0.194,0.865,-8.137,0.275,6.519
3.470,0.305,0.189,0.871,-8.198,1.313,6.443
3.480,0.319,0.185,0.884,-7.695,2.153,6.244
3.480,0.319,0.191,0.891,-7.084,2.718,5.802
3.490,0.316,0.182,0.893,-6.550,2.931,5.435
3.490,0.316,0.192,0.886,-5.863,3.908,5.252
3.490,0.315,0.188,0.877,-5.206,4.748,4.977
3.500,0.312,0.195,0.881,-4.504,5.420,4.779
3.500,0.304,0.189,0.883,-3.573,5.969,4.458
3.500,0.294,0.190,0.863,-2.885,5.527,4.198
3.510,0.290,0.196,0.849,-3.252,5.267,3.771
3.510,0.282,0.196,0.843,-3.420,4.870,3.573
3.520,0.289,0.187,0.834,-3.420,4.656,3.160
3.520,0.277,0.192,0.833,-3.863,3.618,2.534
3.520,0.274,0.183,0.813,-4.473,2.000,2.122
3.530,0.261,0.180,0.825,-5.191,0.458,1.557
3.530,0.266,0.179,0.824,-5.863,-1.084,1.099
3.530,0.266,0.177,0.813,-6.519,-1.939,0.641
3.540,0.273,0.168,0.820,-7.344,-2.550,0.382
3.540,0.270,0.158,0.833,-7.710,-2.947,-0.183
3.550,0.269,0.152,0.844,-8.351,-3.679,-0.534
3.550,0.264,0.151,0.859,-8.321,-3.802,-0.733
3.550,0.262,0.144,0.856,-8.305,-3.389,-1.023
3.560,0.258,0.147,0.863,-8.443,-3.618,-0.962
3.560,0.252,0.144,0.863,-8.519,-3.359,-1.023
3.570,0.256,0.141,0.874,-8.137,-2.595,-1.038
3.570,0.237,0.147,0.872,-8.229,-1.710,-0.702
3.570,0.231,0.148,0.868,-8.000,-0.595,-0.092
3.580,0.224,0.145,0.862,-7.664,0.183,0.534
3.580,0.220,0.146,0.861,-7.527,0.748,1.099
3.590,0.224,0.148,0.868,-6.641,0.687,1.542
3.590,0.217,0.137,0.859,-6.046,0.748,1.939
3.590,0.211,0.146,0.873,-5.527,1.389,2.183
3.600,0.209,0.141,0.858,-5.069,1.954,2.992
3.600,0.209,0.146,0.861,-4.824,2.504,3.099
3.610,0.205,0.134,0.857,-4.198,2.580,3.664
3.610,0.198,0.143,0.857,-4.031,2.595,4.443
3.610,0.195,0.148,0.851,-3.969,2.382,4.885
3.620,0.195,0.148,0.837,-4.489,1.618,5.206
3.620,0.197,0.143,0.831,-5.160,0.321,5.649
3.620,0.209,0.142,0.829,-6.122,-0.656,5.649
3.630,0.224,0.150,0.837,-6.977,-0.412,5.695
3.630,0.235,0.145,0.844,-7.481,0.473,5.649
3.640,0.228,0.146,0.853,-8.183,0.412,5.740
3.640,0.236,0.148,0.854,-8.748,0.260,5.939
3.640,0.236,0.154,0.846,-8.779,0.076,6.015
3.650,0.241,0.145,0.869,-8.916,0.595,5.969
3.650,0.249,0.142,0.853,-9.038,1.084,6.000
3.660,0.247,0.145,0.859,-8.962,1.008,5.771
3.660,0.245,0.145,0.858,-8.916,0.702,5.511
3.660,0.239,0.150,0.851,-8.916,-0.076,5.252
3.670,0.241,0.148,0.859,-8.382,-1.603,4.718
3.670,0.248,0.149,0.865,-7.725,-3.481,4.412
3.670,0.264,0.153,0.892,-7.099,-4.015,3.603
3.680,0.279,0.145,0.881,-6.565,-2.733,3.206
3.680,0.271,0.147,0.884,-5.603,-2.061,2.794
3.690,0.253,0.146,0.896,-4.580,-2.458,2.427
3.690,0.257,0.146,0.880,-3.710,-2.763,2.275
3.690,0.261,0.149,0.874,-3.130,-2.473,1.985
3.700,0.258,0.148,0.870,-2.595,-2.183,2.015
3.700,0.258,0.152,0.881,-2.397,-1.695,2.015
3.710,0.260,0.156,0.860,-2.489,-1.374,1.985
3.710,0.268,0.157,0.844,-2.855,-0.687,1.969
3.710,0.263,0.157,0.852,-3.084,0.458,1.832
3.720,0.262,0.156,0.837,-3.435,0.473,1.466
3.720,0.262,0.153,0.847,-3.817,-0.336,0.901
3.730,0.259,0.146,0.851,-3.817,-1.740,0.305
3.730,0.261,0.147,0.854,-4.076,-2.519,-0.244
3.730,0.253,0.148,0.860,-4.366,-2.168,-0.672
3.740,0.251,0.146,0.865,-4.153,-0.992,-0.962
3.740,0.231,0.147,0.873,-3.344,-0.809,-1.038
3.750,0.206,0.139,0.867,-2.794,-1.802,-0.534
3.750,0.196,0.140,0.854,-2.611,-3.084,-0.092
3.750,0.201,0.147,0.840,-2.824,-3.237,0.137
3.760,0.218,0.142,0.848,-3.176,-1.802,0.748
3.760,0.214,0.148,0.844,-2.672,-0.809,0.992
3.760,0.206,0.141,0.846,-3.160,-0.489,1.313
3.770,0.202,0.155,0.830,-3.802,-0.092,1.786
3.770,0.196,0.154,0.825,-4.153,1.038,2.412
3.780,0.186,0.150,0.823,-4.458,2.046,3.221
3.780,0.178,0.156,0.815,-4.794,2.672,3.908
3.780,0.179,0.154,0.806,-5.267,3.145,4.504
3.790,0.176,0.158,0.795,-5.634,2.641,5.160
3.790,0.177,0.155,0.805,-6.015,1.939,5.450
3.800,0.174,0.152,0.805,-6.412,1.679,6.122
3.800,0.183,0.150,0.787,-6.565,1.450,6.336
3.800,0.174,0.148,0.811,-6.794,0.580,6.763
3.810,0.172,0.146,0.808,-7.374,-0.580,7.221
3.810,0.169,0.139,0.804,-7.939,-1.863,7.618
3.810,0.167,0.135,0.823,-8.427,-3.191,8.412
3.820,0.174,0.135,0.818,-9.145,-4.290,9.267
3.820,0.181,0.131,0.835,-9.634,-4.870,9.817
3.830,0.190,0.131,0.836,-10.061,-5.053,10.702
3.830,0.214,0.130,0.845,-10.718,-4.977,11.115
3.830,0.228,0.127,0.847,-11.176,-4.321,11.435
3.840,0.235,0.121,0.851,-11.786,-3.725,11.420
3.840,0.246,0.116,0.863,-12.046,-2.977,11.405
3.850,0.254,0.119,0.896,-12.031,-2.168,11.573
3.850,0.258,0.101,0.900,-11.679,-1.084,11.756
3.860,0.264,0.110,0.908,-10.519,-0.015,11.863
3.860,0.275,0.103,0.926,-9.237,1.023,11.939
3.860,0.282,0.101,0.927,-8.046,1.695,11.679
3.870,0.286,0.099,0.930,-7.130,2.504,11.435
3.870,0.300,0.094,0.932,-5.847,3.405,11.038
3.870,0.294,0.098,0.942,-4.595,3.634,10.519
3.880,0.303,0.094,0.927,-3.634,3.771,9.985
3.880,0.300,0.101,0.924,-2.733,4.382,9.573
3.890,0.303,0.108,0.913,-2.580,4.366,9.252
3.890,0.295,0.111,0.911,-2.351,4.122,8.718
3.890,0.302,0.118,0.903,-1.954,4.107,8.122
3.900,0.306,0.112,0.905,-2.031,4.107,7.710
3.900,0.312,0.117,0.891,-2.336,4.397,6.794
3.910,0.313,0.119,0.893,-2.489,4.519,5.969
3.910,0.307,0.121,0.883,-2.901,4.519,5.176
3.910,0.309,0.120,0.894,-3.328,4.168,4.382
3.920,0.296,0.117,0.889,-3.328,3.924,3.466
3.920,0.290,0.118,0.898,-3.206,3.511,3.038
3.920,0.285,0.120,0.885,-3.038,3.206,2.519
3.930,0.280,0.118,0.902,-2.427,2.397,2.321
3.930,0.280,0.117,0.898,-2.137,1.573,2.153
3.940,0.286,0.119,0.899,-1.588,0.641,1.542
3.940,0.289,0.121,0.900,-0.809,0.687,1.237
3.940,0.282,0.119,0.894,-0.153,0.489,0.702
3.950,0.275,0.113,0.896,0.351,0.550,0.412
3.950,0.280,0.117,0.887,0.580,0.916,0.031
3.950,0.277,0.121,0.881,0.931,1.038,-0.275
3.960,0.270,0.121,0.872,0.947,1.206,-0.244
3.960,0.267,0.126,0.869,1.176,1.725,-0.412
3.970,0.269,0.129,0.863,1.053,2.397,-0.382
3.970,0.263,0.128,0.853,0.702,2.366,-0.656
3.970,0.266,0.137,0.843,0.489,2.473,-0.901
3.980,0.267,0.135,0.860,0.168,3.069,-1.191
3.980,0.259,0.136,0.863,-0.015,3.603,-1.405
3.990,0.255,0.135,0.858,0.000,4.031,-1.466
3.990,0.246,0.136,0.855,0.015,4.244,-1.221
3.990,0.243,0.133,0.864,0.290,4.504,-1.252
4.000,0.233,0.129,0.864,0.427,4.122,-1.344
4.000,0.227,0.131,0.861,0.565,4.092,-0.931
4.000,0.228,0.127,0.844,0.565,4.031,-0.931
4.010,0.227,0.130,0.844,0.351,3.832,-0.855
4.010,0.221,0.127,0.857,0.015,3.664,-0.748
4.020,0.225,0.127,0.848,-0.137,3.985,-0.550
