Time,acce_x,acce_y,acce_z,gyro_x,gyro_y,gyro_z
0.000010,0.48,0.12,0.91,-45.22,12.15,-13.45
0.000020,0.49,0.12,0.92,-38.56,9.42,-13.05
0.000030,0.50,0.12,0.95,-30.75,8.87,-13.18
0.000050,0.52,0.14,0.98,-23.82,7.22,-11.65
0.000060,0.53,0.15,1.03,-20.41,7.25,-8.73
0.000070,0.52,0.14,1.04,-20.06,6.79,-5.68
0.000090,0.52,0.14,1.03,-20.93,0.08,-3.98
0.000100,0.51,0.13,1.00,-18.58,-2.93,-1.19
0.000110,0.49,0.12,0.98,-14.50,-7.86,0.05
0.000130,0.50,0.10,0.96,-8.72,-10.23,0.90
0.000140,0.49,0.10,0.94,-5.24,-8.99,0.60
0.000150,0.48,0.10,0.93,-2.60,-8.38,-0.70
0.000170,0.50,0.09,0.93,-0.02,-5.19,-2.46
0.000180,0.50,0.10,0.93,3.73,-1.16,-3.51
0.000190,0.50,0.10,0.95,7.98,1.04,-2.84
0.000210,0.50,0.11,0.99,10.75,-0.41,-1.89
0.000220,0.51,0.12,1.02,10.47,0.17,1.79
0.000230,0.51,0.13,1.04,7.82,0.66,3.79
0.000240,0.50,0.12,1.03,4.75,-1.30,5.62
0.000260,0.48,0.12,1.00,3.85,-1.50,6.92
0.000270,0.47,0.10,0.99,4.79,-3.39,6.82
0.000280,0.47,0.10,0.98,6.14,-3.65,6.24
0.000300,0.47,0.10,0.96,7.59,-3.89,5.21
0.000310,0.47,0.10,0.97,7.68,-2.99,3.74
0.000320,0.46,0.11,0.97,7.45,-2.17,2.95
0.000340,0.47,0.11,0.96,6.81,-2.78,2.32
0.000350,0.48,0.11,0.98,5.73,-1.60,3.01
0.000360,0.47,0.12,0.97,3.50,-0.09,3.54
0.000380,0.46,0.12,0.95,1.56,-1.01,4.20
0.000390,0.47,0.11,0.95,1.18,-0.56,4.90
0.000400,0.46,0.11,0.96,1.97,-0.95,4.79
0.000420,0.45,0.11,0.96,2.29,0.69,4.73
0.000430,0.45,0.11,0.97,1.77,0.55,4.69
0.000440,0.44,0.11,0.96,1.08,-0.26,4.09
0.000450,0.44,0.11,0.97,1.39,-0.69,3.53
0.000470,0.43,0.11,0.98,2.44,-2.14,2.55
0.000480,0.43,0.10,0.99,3.24,-4.60,2.20
0.000490,0.42,0.10,0.99,3.08,-6.69,1.69
0.000510,0.43,0.10,0.98,2.96,-9.05,0.41
0.000520,0.44,0.10,0.98,3.77,-8.50,-0.55
0.000530,0.44,0.10,0.98,4.79,-7.21,-1.45
0.000550,0.46,0.10,0.97,5.60,-4.32,-1.66
0.000560,0.45,0.11,0.99,5.36,-3.31,-1.44
0.000570,0.45,0.11,1.00,5.01,-1.94,-1.65
0.000590,0.45,0.11,1.00,5.24,-1.40,-1.51
0.000600,0.45,0.12,0.99,5.07,-1.39,-2.12
0.000610,0.46,0.11,1.00,4.85,-0.32,-2.34
0.000630,0.46,0.12,1.00,4.21,-0.35,-2.87
0.000640,0.46,0.12,1.00,3.56,0.02,-2.87
0.000650,0.47,0.13,0.99,2.85,1.27,-2.40
0.000660,0.47,0.13,0.98,2.38,0.34,-0.95
0.000680,0.47,0.13,0.98,1.82,1.76,-0.58
0.000690,0.47,0.13,0.97,0.32,3.89,-0.41
0.000700,0.46,0.12,0.97,-0.67,4.37,-0.40
0.000720,0.45,0.13,0.97,-1.02,2.84,-0.26
0.000730,0.45,0.12,0.96,-0.23,4.05,-0.06
0.000740,0.44,0.12,0.98,-0.56,3.39,-0.46
0.000760,0.45,0.12,0.97,-0.61,3.42,0.05
0.000770,0.45,0.12,0.98,-0.43,3.13,-0.40
0.000780,0.44,0.11,0.98,-0.27,2.63,-0.90
0.000800,0.43,0.11,0.97,0.09,3.24,-2.72
0.000810,0.44,0.11,0.96,0.98,2.93,-4.02
0.000820,0.46,0.12,0.98,1.79,3.51,-4.08
0.000840,0.46,0.12,0.98,2.12,3.92,-3.50
0.000850,0.46,0.13,0.97,1.44,3.05,-3.25
0.000860,0.46,0.12,0.97,1.76,3.24,-2.61
0.000880,0.45,0.12,0.97,2.37,3.02,-2.40
0.000890,0.46,0.12,0.97,2.55,3.86,-2.95
0.000900,0.45,0.13,0.98,2.72,3.56,-3.15
0.000920,0.45,0.13,0.98,1.56,3.01,-3.33
0.000930,0.45,0.14,0.97,0.61,2.43,-2.85
0.000940,0.45,0.14,0.97,-0.35,-0.05,-2.93
0.000960,0.45,0.13,0.96,-0.73,0.70,-2.82
0.000970,0.45,0.14,0.97,-0.18,-1.31,-1.89
0.000980,0.45,0.13,0.98,-0.75,-0.60,-1.66
0.001000,0.44,0.13,0.98,-1.65,-0.15,-1.53
0.001010,0.43,0.14,0.97,-3.44,-1.07,-1.02
0.001020,0.42,0.13,0.96,-4.14,-4.99,-0.67
0.001040,0.42,0.13,0.95,-4.50,-6.72,-1.15
0.001050,0.41,0.13,0.93,-4.41,-6.12,-1.62
0.001060,0.40,0.13,0.93,-3.16,-6.18,-1.80
0.001080,0.41,0.13,0.92,-3.24,-5.54,-3.05
0.001090,0.43,0.14,0.90,-3.47,-1.65,-2.75
0.001100,0.44,0.15,0.88,-5.18,7.33,-2.93
0.001120,0.44,0.15,0.86,-6.12,20.40,-2.11
0.001130,0.40,0.14,0.84,-5.27,29.83,-0.44
0.001140,0.35,0.13,0.84,-3.59,24.92,1.30
0.001160,0.30,0.12,0.84,-1.60,13.98,0.08
0.001170,0.30,0.11,0.85,0.93,3.50,-2.37
0.001180,0.30,0.11,0.87,3.94,-3.50,-5.16
0.001200,0.32,0.13,0.90,6.55,-8.41,-7.56
0.001210,0.35,0.13,0.91,7.37,-11.22,-8.02
0.001220,0.37,0.13,0.90,6.82,-13.97,-7.34
0.001240,0.39,0.14,0.91,6.15,-15.54,-7.80
0.001250,0.41,0.16,0.90,7.91,-13.63,-7.37
0.001260,0.43,0.17,0.91,8.93,-9.51,-5.92
0.001280,0.43,0.19,0.91,9.21,-7.73,-3.54
0.001290,0.43,0.19,0.90,7.97,-8.03,-1.18
0.001300,0.42,0.20,0.90,5.69,-10.61,-1.10
0.001320,0.42,0.18,0.88,5.05,-14.53,0.02
0.001330,0.43,0.20,0.88,4.89,-16.27,0.53
0.001340,0.45,0.19,0.88,6.66,-10.73,2.69
0.001360,0.43,0.20,0.89,7.89,-10.52,1.92
0.001370,0.44,0.22,0.90,8.73,-5.91,4.99
0.001380,0.42,0.21,0.91,7.54,-6.41,7.76
0.001400,0.40,0.20,0.89,3.11,-9.22,7.66
0.001410,0.40,0.18,0.88,1.68,-11.25,6.55
0.001420,0.40,0.18,0.85,4.14,-7.33,6.58
0.001430,0.41,0.17,0.84,5.92,-4.06,3.85
0.001450,0.42,0.18,0.86,8.50,-1.68,2.92
0.001460,0.40,0.20,0.90,11.19,-4.08,2.82
0.001470,0.38,0.19,0.91,11.40,-9.42,4.12
0.001490,0.35,0.18,0.91,8.56,-16.53,1.39
0.001500,0.37,0.17,0.89,6.95,-17.88,-1.42
0.001510,0.38,0.18,0.86,7.56,-16.09,-5.68
0.001530,0.40,0.18,0.86,11.24,-12.20,-11.30
0.001540,0.40,0.20,0.87,14.55,-4.69,-16.34
0.001550,0.38,0.21,0.90,13.11,-5.39,-22.46
0.001570,0.37,0.23,0.96,10.06,-8.90,-26.90
0.001580,0.36,0.23,0.96,4.92,-16.85,-31.97
0.001600,0.40,0.21,0.91,2.64,-25.39,-33.94
0.001610,0.44,0.22,0.88,4.03,-27.65,-34.82
0.001620,0.47,0.24,0.87,6.69,-24.79,-37.45
0.001640,0.50,0.26,0.88,9.56,-18.06,-39.15
0.001650,0.49,0.30,0.92,8.78,-17.73,-37.19
0.001660,0.50,0.29,0.92,10.29,-19.65,-30.37
0.001680,0.45,0.27,0.93,8.02,-21.28,-28.46
0.001690,0.47,0.26,0.95,6.55,-19.98,-31.65
0.001700,0.50,0.26,0.98,9.16,-10.73,-31.48
0.001720,0.49,0.26,1.01,13.92,-1.88,-31.63
0.001730,0.50,0.28,1.05,14.49,-3.04,-33.11
0.001740,0.50,0.30,1.07,10.23,-7.13,-34.82
0.001760,0.49,0.30,1.05,8.08,-15.85,-33.68
0.001770,0.52,0.30,1.04,6.46,-22.73,-32.70
0.001780,0.55,0.30,1.02,7.57,-18.90,-30.02
0.001800,0.55,0.30,0.99,9.05,-16.61,-28.32
0.001810,0.57,0.32,0.99,7.50,-10.78,-26.55
0.001820,0.56,0.34,1.00,6.63,-9.07,-22.31
0.001840,0.54,0.34,0.99,6.63,-10.17,-18.40
0.001850,0.53,0.35,0.97,5.24,-10.23,-16.98
0.001860,0.52,0.34,0.95,3.79,-8.14,-18.72
0.001880,0.54,0.33,0.94,4.49,-6.92,-20.11
0.001890,0.57,0.33,0.94,5.07,-1.10,-19.36
0.001900,0.56,0.36,0.96,4.58,1.02,-16.87
0.001920,0.54,0.37,0.97,5.36,-3.62,-13.89
0.001930,0.53,0.38,0.97,5.24,-3.50,-10.32
0.001940,0.50,0.36,0.94,5.24,-6.72,-11.30
0.001960,0.49,0.34,0.94,4.08,-5.19,-14.60
0.001970,0.50,0.33,0.93,5.28,-3.42,-18.15
0.001980,0.54,0.33,0.96,8.00,-2.87,-20.53
0.002000,0.57,0.34,0.98,9.19,0.52,-19.45
0.002010,0.59,0.36,1.00,9.86,-2.52,-16.46
0.002020,0.58,0.40,1.00,8.89,-5.16,-10.95
0.002040,0.53,0.42,0.98,7.54,-11.60,-5.08
0.002050,0.50,0.41,0.91,8.60,-17.71,-2.85
0.002060,0.48,0.38,0.86,10.72,-13.79,-5.24
0.002080,0.48,0.36,0.86,13.77,0.12,-9.82
0.002090,0.53,0.36,0.90,13.27,16.73,-12.93
0.002100,0.54,0.39,0.95,13.69,21.08,-12.52
0.002120,0.53,0.43,0.98,9.57,18.23,-12.96
0.002130,0.55,0.47,0.97,6.46,8.26,-7.45
0.002140,0.54,0.47,0.93,10.50,2.64,2.67
0.002160,0.50,0.45,0.89,6.03,4.92,9.11
0.002170,0.46,0.42,0.84,7.77,15.54,10.90
0.002180,0.44,0.38,0.85,11.68,26.58,11.71
0.002200,0.41,0.38,0.89,17.04,27.02,7.28
0.002210,0.42,0.40,0.91,16.03,23.50,0.98
0.002220,0.41,0.39,0.92,14.21,7.25,-3.11
0.002240,0.47,0.39,0.89,11.28,-5.44,-4.89
0.002250,0.45,0.41,0.91,6.93,-9.95,-6.55
0.002260,0.44,0.41,0.89,9.92,-7.71,-5.74
0.002280,0.45,0.41,0.86,15.37,-0.12,-3.18
0.002290,0.42,0.42,0.86,12.61,-1.56,-7.66
0.002300,0.42,0.43,0.86,9.65,-2.87,-11.51
0.002320,0.44,0.45,0.88,12.05,-3.28,-10.18
0.002330,0.45,0.46,0.88,11.24,-1.48,-8.55
0.002340,0.43,0.45,0.87,7.47,-1.27,-7.48
0.002360,0.38,0.46,0.90,7.40,-2.55,-9.66
0.002370,0.36,0.45,0.89,4.55,-6.00,-14.34
0.002380,0.37,0.45,0.87,1.07,-13.25,-19.10
0.002400,0.36,0.45,0.86,-0.56,-16.00,-25.85
0.002410,0.38,0.47,0.88,-1.16,-15.88,-25.94
0.002420,0.38,0.48,0.89,-3.62,-15.40,-29.89
0.002440,0.39,0.48,0.87,-2.08,-13.01,-31.33
0.002450,0.40,0.48,0.88,-0.70,-11.92,-30.72
0.002470,0.38,0.50,0.90,-3.63,-11.73,-28.81
0.002480,0.39,0.46,0.88,-4.84,-4.41,-31.80
0.002490,0.40,0.44,0.90,-7.18,4.05,-38.34
0.002510,0.42,0.44,0.95,-12.43,5.86,-39.88
0.002520,0.43,0.47,0.96,-15.60,7.56,-34.76
0.002530,0.45,0.46,0.95,-14.75,5.22,-33.40
0.002550,0.46,0.47,0.95,-11.27,5.53,-35.33
0.002560,0.45,0.48,0.94,-10.06,3.11,-36.89
0.002570,0.46,0.49,0.93,-8.02,5.08,-36.73
0.002590,0.46,0.50,0.93,-8.85,7.27,-33.62
0.002600,0.44,0.52,0.92,-11.53,9.48,-31.25
0.002610,0.44,0.52,0.89,-16.70,12.84,-32.05
0.002630,0.43,0.53,0.86,-21.44,16.87,-31.74
0.002640,0.44,0.53,0.83,-21.08,18.18,-27.57
0.002650,0.42,0.52,0.82,-16.15,19.56,-22.75
0.002670,0.41,0.50,0.86,-13.48,18.44,-21.89
0.002680,0.38,0.49,0.90,-12.98,16.40,-20.49
0.002690,0.36,0.49,0.91,-11.60,13.63,-21.79
0.002710,0.36,0.50,0.91,-11.82,13.53,-23.79
0.002720,0.36,0.50,0.89,-14.14,11.34,-28.03
0.002740,0.36,0.50,0.87,-13.04,6.89,-30.08
0.002750,0.36,0.51,0.88,-10.50,4.78,-31.66
0.002760,0.39,0.50,0.92,-10.02,4.43,-29.08
0.002780,0.38,0.49,0.91,-6.87,5.39,-26.73
0.002790,0.37,0.48,0.92,-4.26,5.85,-25.54
0.002800,0.34,0.48,0.94,-7.73,5.27,-28.31
0.002820,0.35,0.48,0.94,-8.84,3.30,-30.55
0.002830,0.36,0.47,0.95,-11.42,2.02,-31.24
0.002840,0.37,0.48,0.96,-12.27,-0.79,-28.26
0.002860,0.35,0.47,0.98,-6.70,-3.68,-22.98
0.002870,0.32,0.47,0.97,0.32,-6.44,-24.98
0.002880,0.33,0.46,0.97,2.26,-6.41,-24.56
0.002900,0.33,0.47,0.97,0.92,-6.63,-24.87
0.002910,0.32,0.47,0.98,-1.60,-8.12,-26.53
0.002920,0.35,0.47,0.98,-9.37,-4.76,-24.82
0.002940,0.32,0.45,1.00,-14.05,-3.04,-24.60
0.002950,0.28,0.44,1.02,-23.02,-6.34,-30.78
0.002960,0.30,0.44,1.09,-42.09,-11.82,-40.08
0.002980,0.29,0.41,1.01,-15.77,-13.57,-38.03
0.002990,0.31,0.42,1.01,-8.52,-20.38,-40.44
0.003000,0.33,0.44,1.01,-2.98,-19.16,-38.87
0.003020,0.31,0.44,0.99,3.07,-19.66,-35.34
0.003030,0.32,0.45,0.97,3.28,-16.99,-35.15
0.003040,0.33,0.46,0.97,1.30,-13.36,-32.90
0.003060,0.33,0.45,0.93,0.63,-4.93,-29.24
0.003070,0.31,0.47,0.94,2.17,1.62,-26.17
0.003080,0.35,0.47,0.97,1.44,1.95,-20.60
0.003100,0.32,0.47,0.95,6.32,0.78,-15.37
0.003110,0.30,0.46,0.95,10.21,-0.85,-15.31
0.003120,0.31,0.46,0.94,13.82,-1.27,-11.65
0.003140,0.32,0.49,0.95,10.37,0.11,-8.73
0.003150,0.32,0.48,0.95,6.66,0.31,-8.50
0.003160,0.32,0.48,0.92,7.53,4.32,-4.44
0.003180,0.29,0.45,0.91,12.87,4.87,-2.89
0.003190,0.26,0.44,0.96,18.46,6.70,-5.01
0.003200,0.23,0.43,1.00,20.17,7.51,-8.12
0.003220,0.24,0.45,1.00,14.32,7.57,-16.38
0.003230,0.26,0.47,0.95,10.70,5.40,-21.08
0.003240,0.30,0.47,0.91,10.05,6.37,-22.67
0.003260,0.34,0.50,0.88,11.08,11.44,-19.13
0.003270,0.34,0.50,0.86,13.07,12.72,-14.67
0.003280,0.34,0.50,0.90,10.98,10.11,-13.45
0.003300,0.33,0.47,0.94,9.18,7.50,-12.46
0.003310,0.30,0.45,0.96,7.10,4.64,-14.66
0.003320,0.29,0.46,0.95,6.82,3.48,-15.88
0.003340,0.29,0.44,0.94,10.08,0.61,-17.16
0.003350,0.31,0.44,0.95,12.41,-0.23,-16.96
0.003360,0.33,0.41,0.98,14.03,-1.02,-16.79
0.003380,0.35,0.41,0.97,14.99,-2.24,-14.85
0.003390,0.36,0.39,0.98,15.88,-1.37,-11.50
0.003410,0.36,0.37,0.98,18.20,-4.32,-8.41
0.003420,0.34,0.36,1.01,18.00,-5.18,-5.19
0.003430,0.34,0.35,1.04,12.84,-3.66,-4.20
0.003450,0.32,0.36,1.03,6.50,-3.22,-4.79
0.003460,0.33,0.37,1.00,3.39,-3.79,-5.16
0.003470,0.33,0.37,0.98,4.56,-5.34,-2.70
0.003490,0.34,0.37,1.01,5.53,-5.48,2.41
0.003500,0.32,0.38,1.02,3.80,-2.73,7.92
0.003510,0.31,0.38,1.02,-0.37,-0.61,11.74
0.003530,0.30,0.40,0.99,-1.54,0.90,16.24
0.003540,0.29,0.41,0.97,0.81,1.86,21.88
0.003550,0.25,0.42,0.99,3.79,1.54,25.69
0.003560,0.21,0.42,1.01,2.26,-0.08,24.40
0.003580,0.18,0.42,1.02,0.18,-0.81,22.73
0.003590,0.16,0.42,1.01,-3.97,-2.08,17.24
0.003600,0.17,0.43,1.02,-9.19,-4.03,10.67
0.003620,0.21,0.44,0.99,-17.08,-3.69,8.14
0.003630,0.22,0.44,0.96,-20.00,-4.93,5.97
0.003640,0.24,0.44,0.97,-22.37,-3.79,5.44
0.003660,0.27,0.46,0.95,-25.19,-1.15,7.86
0.003670,0.28,0.47,0.93,-26.93,1.22,9.31
0.003680,0.30,0.49,0.92,-24.23,-1.54,10.43
0.003700,0.32,0.50,0.93,-21.79,-3.37,13.76
0.003710,0.32,0.51,0.97,-22.27,-3.33,16.50
0.003730,0.32,0.50,0.96,-22.61,-2.66,17.71
0.003740,0.33,0.50,0.95,-23.01,-4.89,16.73
0.003750,0.37,0.49,0.91,-22.58,-5.73,17.86
0.003770,0.41,0.49,0.92,-21.88,-7.63,20.18
0.003780,0.41,0.49,0.96,-23.18,-9.65,24.55
0.003790,0.41,0.49,0.97,-25.45,-8.67,30.82
0.003810,0.38,0.48,0.97,-24.49,-5.80,36.85
0.003820,0.35,0.47,0.96,-22.63,-3.47,39.02
0.003830,0.31,0.45,0.96,-21.94,-5.33,37.08
0.003850,0.30,0.44,0.95,-20.21,-6.87,34.85
0.003860,0.31,0.42,0.93,-20.53,-8.69,32.06
0.003870,0.33,0.42,0.94,-21.57,-5.42,34.06
0.003890,0.34,0.42,0.94,-22.69,0.08,37.37
0.003900,0.34,0.43,0.97,-24.21,5.44,40.00
0.003910,0.32,0.42,0.98,-25.39,8.56,40.41
0.003930,0.32,0.42,0.98,-23.73,7.53,39.34
0.003940,0.31,0.42,1.00,-23.08,5.63,36.76
0.003950,0.32,0.42,1.00,-22.53,4.23,35.37
0.003970,0.32,0.42,0.99,-22.87,5.34,34.84
0.003980,0.33,0.42,1.00,-22.29,6.14,33.18
0.003990,0.33,0.42,1.00,-21.50,5.62,32.23
0.004010,0.35,0.44,1.00,-20.64,4.35,33.62
0.004020,0.36,0.42,0.99,-19.36,5.45,36.37
0.004030,0.37,0.42,0.98,-15.45,7.47,42.24
0.004050,0.35,0.39,1.00,-12.90,6.34,46.44
0.004060,0.32,0.35,0.96,-9.42,8.69,48.23
0.004070,0.30,0.35,0.99,-8.20,11.34,46.34
0.004090,0.30,0.35,0.99,-10.27,12.92,43.44
0.004100,0.30,0.36,0.99,-12.84,11.07,37.18
0.004110,0.34,0.35,1.00,-13.02,8.27,34.55
0.004130,0.36,0.34,1.01,-11.28,5.34,34.66
0.004140,0.46,0.35,1.04,-10.84,7.53,38.15
0.004150,0.40,0.35,1.04,-7.86,6.75,40.43
0.004170,0.36,0.35,1.04,-6.50,8.95,41.36
0.004180,0.35,0.35,1.03,-6.66,6.14,39.34
0.004190,0.33,0.34,1.03,-3.86,-0.64,35.16
0.004210,0.33,0.33,1.03,-5.05,-8.43,28.63
0.004220,0.33,0.34,1.04,-4.98,-13.44,24.56
0.004230,0.33,0.36,1.04,-6.99,-16.70,19.31
0.004250,0.34,0.35,1.03,-6.79,-15.10,19.42
0.004260,0.33,0.35,1.03,-9.08,-19.53,15.22
0.004270,0.34,0.33,1.02,-8.37,-26.75,10.26
0.004290,0.35,0.31,0.99,-5.47,-35.39,6.40
0.004300,0.30,0.31,0.95,-0.11,-51.24,-2.56
0.004310,0.42,0.35,1.01,-7.01,-43.83,0.60
0.004330,0.51,0.36,0.98,-9.56,-28.53,13.88
0.004340,0.51,0.37,0.96,-8.79,-16.70,25.05
0.004350,0.48,0.35,0.93,-4.03,-9.54,35.50
0.004370,0.45,0.32,0.94,-3.04,-9.36,39.34
0.004380,0.43,0.30,0.97,-3.95,-8.78,40.46
0.004400,0.42,0.28,1.01,-6.03,-6.46,40.03
0.004410,0.41,0.28,1.03,-4.47,-7.83,38.26
0.004420,0.40,0.25,1.04,-4.84,-10.58,35.79
0.004440,0.41,0.25,1.04,-5.37,-12.43,32.34
0.004450,0.44,0.25,1.04,-7.36,-7.63,32.70
0.004460,0.42,0.24,1.03,-6.37,-5.63,30.38
0.004480,0.40,0.25,1.03,-8.93,-7.10,25.11
0.004490,0.39,0.27,1.03,-11.62,-12.00,19.60
0.004500,0.38,0.26,1.01,-13.69,-21.65,9.66
0.004520,0.42,0.27,1.00,-16.15,-28.32,0.49
0.004530,0.45,0.29,0.98,-15.63,-31.97,-2.49
0.004540,0.48,0.29,0.99,-15.01,-35.89,-4.67
0.004560,0.50,0.32,1.00,-15.51,-39.79,-4.66
0.004570,0.51,0.34,1.00,-17.97,-39.34,-1.53
0.004580,0.52,0.32,0.93,-20.11,-37.24,3.24
0.004600,0.51,0.31,0.87,-20.15,-36.37,6.38
0.004610,0.55,0.28,0.84,-17.54,-30.96,12.08
0.004620,0.55,0.27,0.86,-10.44,-19.54,19.50
0.004640,0.54,0.25,0.90,-7.13,-8.87,25.63
0.004650,0.51,0.25,0.94,-5.16,-3.31,29.28
0.004660,0.47,0.24,0.97,-4.64,-6.44,28.08
0.004680,0.47,0.23,0.98,-7.04,-8.56,24.64
0.004690,0.49,0.23,0.99,-8.82,-11.18,20.82
0.004700,0.51,0.22,0.98,-7.83,-10.73,20.93
0.004720,0.52,0.22,0.96,-3.08,-8.93,24.95
0.004730,0.49,0.22,0.97,-2.44,-8.99,26.02
0.004740,0.47,0.23,0.96,-3.19,-5.82,25.82
0.004760,0.44,0.22,0.95,-3.07,-9.01,23.04
0.004770,0.43,0.22,0.93,-7.08,-16.69,14.64
0.004780,0.46,0.22,0.91,-8.98,-20.90,9.86
0.004800,0.50,0.24,0.89,-7.04,-20.11,11.21
0.004810,0.50,0.24,0.89,-5.91,-15.37,14.11
0.004820,0.48,0.23,0.88,-5.19,-12.12,16.49
0.004840,0.47,0.23,0.87,-6.20,-9.94,17.37
0.004850,0.46,0.21,0.87,-7.39,-8.32,16.15
0.004870,0.47,0.21,0.85,-7.92,-4.98,13.66
0.004880,0.50,0.20,0.85,-5.28,-4.20,11.65
0.004890,0.55,0.21,0.88,-0.20,0.43,14.09
0.004910,0.58,0.22,0.91,2.73,10.70,19.47
0.004920,0.57,0.20,0.93,5.34,16.84,23.85
0.004930,0.55,0.20,0.95,4.32,16.50,25.83
0.004940,0.53,0.20,0.96,1.57,13.44,24.47
0.004960,0.52,0.19,0.97,-1.15,10.37,22.49
0.004970,0.52,0.19,0.96,-1.69,9.28,20.17
0.004980,0.52,0.18,0.94,-0.84,7.01,17.56
0.005000,0.54,0.19,0.96,-0.49,5.80,16.08
0.005010,0.55,0.18,0.98,1.68,9.02,18.34
0.005020,0.55,0.20,0.98,2.52,9.27,20.84
0.005040,0.52,0.20,0.98,-0.96,6.69,20.82
0.005050,0.52,0.19,0.96,-4.31,4.14,20.63
0.005060,0.51,0.18,0.94,-5.27,1.07,21.71
0.005080,0.49,0.17,0.92,-7.39,0.49,19.40
0.005090,0.51,0.18,0.93,-4.20,3.18,20.79
0.005100,0.50,0.18,0.93,-2.78,6.12,21.86
0.005120,0.49,0.17,0.93,-1.74,5.79,23.44
0.005130,0.50,0.16,0.93,-2.29,7.31,23.65
0.005140,0.50,0.15,0.93,-3.10,6.72,22.43
0.005160,0.47,0.16,0.93,-5.37,6.00,18.95
0.005170,0.47,0.15,0.92,-6.31,5.91,16.89
0.005180,0.48,0.15,0.94,-7.51,6.23,14.21
0.005200,0.49,0.15,0.93,-7.95,7.97,12.11
0.005210,0.48,0.16,0.94,-8.85,5.97,10.43
0.005220,0.51,0.16,0.94,-9.15,8.98,10.05
0.005240,0.50,0.16,0.94,-8.70,9.05,10.47
0.005250,0.50,0.15,0.93,-8.50,9.28,10.72
0.005260,0.49,0.15,0.92,-6.84,7.57,11.40
0.005280,0.48,0.12,0.92,-5.04,3.66,10.50
0.005290,0.48,0.11,0.91,-3.33,5.60,10.73
0.005300,0.45,0.10,0.90,-1.30,3.68,8.61
0.005320,0.44,0.09,0.93,-0.75,6.34,4.52
0.005330,0.43,0.09,0.95,-0.02,9.80,1.19
0.005340,0.39,0.08,0.92,0.29,6.64,-3.24
0.005360,0.40,0.10,0.95,0.34,2.17,-8.20
0.005370,0.43,0.11,0.96,3.16,-1.10,-9.76
0.005380,0.47,0.11,0.95,7.34,0.73,-6.79
0.005400,0.49,0.12,0.95,7.82,-2.61,-4.96
0.005410,0.50,0.12,0.96,7.01,-1.02,-2.66
0.005420,0.50,0.13,0.96,7.76,2.08,0.35
0.005440,0.50,0.13,0.97,8.37,4.06,0.82
0.005450,0.50,0.14,1.00,7.88,6.40,2.00
0.005460,0.49,0.14,1.02,4.50,7.86,1.94
0.005470,0.49,0.14,1.01,1.22,7.25,3.65
0.005490,0.47,0.14,1.00,-3.13,3.10,2.44
0.005500,0.47,0.13,0.97,-5.24,-1.91,1.95
0.005510,0.49,0.13,0.95,-5.15,-4.35,1.98
0.005530,0.48,0.12,0.93,-2.82,-6.35,1.66
0.005540,0.50,0.14,0.94,-1.73,-4.17,1.24
0.005550,0.51,0.14,0.95,-1.98,1.36,2.44
0.005570,0.49,0.14,0.96,-4.37,1.50,3.71
0.005580,0.48,0.13,0.95,-8.20,1.56,2.61
0.005590,0.46,0.12,0.95,-10.09,-2.69,0.84
0.005610,0.46,0.11,0.94,-10.02,-7.25,-2.56
0.005620,0.47,0.11,0.92,-10.15,-5.31,-6.23
0.005630,0.48,0.09,0.90,-9.77,-5.10,-10.37
0.005650,0.51,0.10,0.89,-8.70,-3.95,-14.90
0.005660,0.56,0.11,0.91,-5.97,-1.89,-16.67
0.005670,0.58,0.11,0.91,-3.76,-1.86,-14.61
0.005690,0.58,0.13,0.93,-3.47,-2.46,-10.78
0.005700,0.58,0.13,0.92,-3.59,-3.79,-7.74
0.005710,0.60,0.14,0.94,-4.52,0.37,-3.63
0.005730,0.59,0.15,0.94,-4.75,4.93,1.65
0.005740,0.58,0.14,0.94,-5.01,8.29,5.79
0.005750,0.54,0.14,0.94,-4.00,11.24,8.31
0.005770,0.51,0.13,0.96,-2.29,13.30,9.85
0.005780,0.48,0.12,0.96,-0.09,11.28,12.76
0.005790,0.46,0.12,0.97,0.73,8.34,14.58
0.005810,0.43,0.11,0.97,0.72,7.42,15.34
0.005820,0.41,0.10,0.95,-0.40,7.28,12.84
0.005830,0.41,0.10,0.94,-0.27,10.85,10.58
0.005850,0.38,0.10,0.92,1.01,12.81,8.95
0.005860,0.39,0.10,0.95,1.42,10.70,7.39
0.005870,0.37,0.10,0.97,1.74,10.81,3.85
0.005890,0.43,0.11,1.00,1.45,6.20,4.69
0.005900,0.44,0.12,1.00,-1.36,1.91,6.95
0.005910,0.44,0.10,0.95,-7.04,5.25,8.47
0.005930,0.41,0.09,0.94,-8.76,6.37,7.25
0.005940,0.40,0.08,0.94,-7.33,10.53,5.28
0.005950,0.40,0.09,0.95,-5.15,11.02,3.54
0.005970,0.42,0.09,0.95,-4.82,9.18,3.63
0.005980,0.40,0.09,0.95,-5.65,6.27,4.87
0.005990,0.40,0.09,0.95,-7.18,6.40,6.18
0.006010,0.39,0.08,0.95,-7.83,3.97,5.95
0.006020,0.40,0.08,0.94,-8.02,4.72,3.95
0.006030,0.42,0.09,0.94,-7.59,7.31,3.89
0.006050,0.40,0.07,0.93,-6.79,7.48,4.76
0.006060,0.40,0.07,0.94,-6.87,6.55,4.32
0.006070,0.37,0.07,0.94,-6.66,3.82,3.48
0.006080,0.38,0.06,0.93,-5.85,2.38,3.45
0.006100,0.38,0.07,0.92,-5.97,1.16,3.15
0.006110,0.37,0.07,0.93,-4.52,-1.53,2.31
0.006120,0.39,0.06,0.93,-2.84,-0.60,1.31
0.006140,0.40,0.07,0.94,-1.04,0.64,0.98
0.006150,0.40,0.07,0.96,-0.35,4.84,2.00
0.006160,0.38,0.06,0.96,-0.06,2.61,2.53
0.006180,0.38,0.05,0.96,-1.13,1.63,0.64
0.006190,0.39,0.07,0.96,-0.79,0.60,-0.09
0.006200,0.41,0.06,0.95,0.17,1.27,-1.08
0.006220,0.42,0.06,0.95,2.02,0.75,-1.65
0.006230,0.42,0.07,0.95,3.33,-1.36,-0.69
0.006240,0.42,0.06,0.96,4.52,-2.75,2.24
0.006260,0.42,0.06,0.95,4.52,-2.98,3.21
0.006270,0.42,0.06,0.95,3.51,-1.22,1.62
0.006280,0.42,0.06,0.95,3.74,0.70,0.93
0.006300,0.44,0.06,0.95,5.36,3.50,1.31
0.006310,0.44,0.07,0.95,7.36,4.06,2.64
0.006320,0.43,0.07,0.97,7.33,2.37,2.29
0.006340,0.42,0.07,0.97,6.35,-1.85,1.77
0.006350,0.43,0.08,0.95,5.34,-4.09,2.23
0.006360,0.44,0.08,0.95,4.69,-3.82,2.24
0.006380,0.44,0.09,0.95,3.74,-2.40,2.15
0.006390,0.44,0.09,0.94,4.81,-0.44,2.03
0.006400,0.44,0.09,0.96,4.76,1.62,2.02
0.006410,0.44,0.09,0.98,4.96,1.40,2.64
0.006430,0.43,0.09,0.98,3.77,-0.85,2.72
0.006440,0.44,0.09,0.98,2.90,-0.92,2.46
0.006450,0.45,0.09,0.98,2.23,-0.06,2.56
0.006470,0.46,0.09,0.98,2.75,1.36,3.28
0.006480,0.45,0.08,1.00,2.99,1.10,3.37
0.006490,0.44,0.09,1.02,3.11,-1.63,4.03
0.006510,0.43,0.09,1.02,3.02,-7.05,4.96
0.006520,0.43,0.08,1.01,1.53,-9.13,3.97
0.006530,0.43,0.08,1.00,1.65,-9.97,3.47
0.006550,0.43,0.08,1.00,2.06,-10.90,2.69
0.006560,0.45,0.08,1.00,1.92,-10.73,2.79
0.006570,0.43,0.07,1.02,3.92,-15.71,6.00
0.006590,0.48,0.09,1.05,2.55,-9.28,6.38
0.006600,0.43,0.09,1.06,0.84,-15.01,6.66
0.006610,0.43,0.10,1.05,-1.73,-18.47,6.21
0.006630,0.44,0.09,1.02,-3.05,-19.27,5.53
0.006640,0.44,0.09,0.99,-4.31,-15.77,3.89
0.006650,0.46,0.08,0.98,-4.47,-11.36,2.40
