Time,acce_x,acce_y,acce_z,gyro_x,gyro_y, gyro_z
0.000,0.172,0.061,0.870,1.985,0.763,-0.168
0.000,0.167,0.063,0.867,2.031,-0.153,-0.183
0.010,0.172,0.064,0.871,1.802,-0.412,-0.595
0.010,0.177,0.066,0.867,1.344,0.137,-0.809
0.010,0.174,0.067,0.858,0.885,0.015,-0.962
0.020,0.175,0.061,0.859,0.672,0.046,-1.191
0.020,0.170,0.073,0.853,0.046,-0.061,-1.160
0.020,0.168,0.074,0.865,-0.412,-0.397,-1.435
0.030,0.166,0.077,0.859,-0.702,-0.840,-1.374
0.030,0.160,0.077,0.858,-1.130,-1.053,-1.405
0.030,0.164,0.070,0.872,-1.038,-1.282,-1.603
0.040,0.166,0.073,0.860,-1.466,-0.962,-1.725
0.040,0.161,0.063,0.864,-1.496,-0.962,-1.740
0.040,0.153,0.065,0.860,-1.267,-0.656,-1.573
0.050,0.149,0.064,0.874,-1.573,-0.763,-1.389
0.050,0.151,0.056,0.870,-1.710,-1.160,-1.206
0.050,0.144,0.057,0.872,-1.588,-1.740,-0.885
0.060,0.147,0.059,0.871,-1.557,-1.359,-0.626
0.060,0.152,0.054,0.877,-1.664,-0.519,-0.137
0.070,0.154,0.052,0.879,-2.015,-0.183,-0.031
0.070,0.162,0.052,0.882,-2.351,0.550,-0.031
0.070,0.151,0.048,0.876,-2.580,0.458,-0.290
0.080,0.148,0.047,0.882,-2.611,-0.137,-0.427
0.080,0.149,0.051,0.880,-2.641,-0.626,-0.260
0.090,0.152,0.049,0.890,-2.748,-1.298,-0.458
0.090,0.157,0.049,0.897,-2.748,-1.420,-0.443
0.090,0.154,0.048,0.901,-2.305,-1.450,-0.580
0.100,0.138,0.049,0.890,-2.015,-1.863,-0.427
0.100,0.138,0.044,0.888,-1.771,-1.832,-0.183
0.110,0.150,0.045,0.887,-1.542,-1.817,-0.168
0.110,0.146,0.049,0.884,-1.328,-1.771,0.015
0.110,0.143,0.042,0.885,-1.084,-2.244,0.107
0.120,0.153,0.042,0.884,-1.298,-1.939,0.046
0.120,0.153,0.040,0.891,-1.542,-1.160,0.229
0.130,0.152,0.046,0.876,-1.359,-0.473,0.336
0.130,0.150,0.045,0.886,-1.847,-0.519,0.458
0.130,0.153,0.042,0.880,-1.847,-0.321,0.366
0.140,0.152,0.042,0.899,-1.618,-0.122,0.397
0.140,0.159,0.045,0.892,-1.374,0.458,0.626
0.150,0.153,0.041,0.890,-1.298,0.855,0.489
0.150,0.157,0.039,0.895,-0.901,1.084,0.397
0.150,0.157,0.037,0.901,-0.534,1.557,0.611
0.160,0.150,0.047,0.896,-0.153,1.099,0.382
0.160,0.155,0.042,0.890,-0.183,0.641,0.321
0.160,0.144,0.049,0.883,-0.412,0.076,0.412
0.170,0.152,0.052,0.896,-0.290,0.122,0.366
0.170,0.147,0.045,0.887,-0.229,-0.214,0.672
0.180,0.144,0.050,0.892,-0.321,-0.641,1.145
0.180,0.141,0.048,0.890,-0.427,-0.962,1.313
0.180,0.149,0.055,0.890,-0.473,-0.794,1.710
0.190,0.147,0.050,0.879,-0.443,-0.427,1.908
0.190,0.157,0.057,0.891,-0.244,-0.137,2.290
0.200,0.152,0.054,0.868,-0.321,0.122,2.504
0.200,0.157,0.054,0.877,-0.351,0.076,2.855
0.200,0.158,0.063,0.882,-0.855,0.626,2.840
0.210,0.176,0.059,0.870,-0.824,1.802,3.206
0.210,0.169,0.059,0.872,-0.916,2.840,3.115
0.210,0.170,0.062,0.867,-0.977,3.282,3.267
0.220,0.167,0.065,0.877,-1.115,3.176,3.176
0.220,0.170,0.066,0.877,-1.084,3.221,3.099
0.230,0.176,0.074,0.873,-1.206,3.557,2.412
0.230,0.175,0.073,0.873,-1.053,3.313,2.748
0.230,0.188,0.072,0.878,-1.191,3.237,2.061
0.240,0.182,0.067,0.872,-1.267,3.130,1.374
0.240,0.180,0.064,0.861,-1.481,2.168,0.779
0.240,0.175,0.060,0.871,-1.679,1.267,0.137
0.250,0.161,0.065,0.868,-1.908,-0.336,-0.412
0.250,0.159,0.055,0.869,-2.137,-2.290,-0.885
0.260,0.162,0.057,0.867,-2.305,-4.061,-0.870
0.260,0.169,0.050,0.889,-2.382,-3.878,-0.824
0.260,0.175,0.059,0.892,-1.939,-2.931,-0.855
0.270,0.173,0.053,0.892,-1.634,-2.427,-0.840
0.270,0.172,0.055,0.885,-1.511,-1.832,-0.702
0.280,0.164,0.049,0.886,-1.435,-1.008,-0.779
0.280,0.175,0.048,0.892,-1.145,0.000,-0.595
0.280,0.171,0.051,0.886,-0.901,1.053,-0.550
0.290,0.165,0.047,0.880,-1.145,1.847,-0.061
0.290,0.162,0.052,0.875,-0.885,2.718,0.321
0.300,0.165,0.051,0.876,-1.221,3.298,0.305
0.300,0.164,0.058,0.864,-1.359,3.924,0.702
0.300,0.164,0.058,0.869,-1.618,4.046,0.977
0.310,0.162,0.058,0.866,-1.756,3.878,0.885
0.310,0.169,0.053,0.865,-2.229,3.725,0.580
0.320,0.171,0.052,0.856,-2.427,3.374,0.244
0.320,0.171,0.055,0.852,-3.145,2.626,-0.321
0.320,0.173,0.049,0.865,-3.863,1.664,-1.084
0.330,0.165,0.051,0.863,-4.290,0.687,-1.679
0.330,0.161,0.049,0.872,-4.229,-1.267,-2.336
0.330,0.151,0.047,0.894,-4.611,-2.855,-2.809
0.340,0.153,0.046,0.894,-4.473,-3.664,-2.901
0.340,0.155,0.049,0.897,-4.305,-3.664,-2.763
0.350,0.145,0.043,0.904,-3.756,-3.557,-2.733
0.350,0.146,0.045,0.899,-3.221,-3.145,-2.519
0.350,0.141,0.041,0.904,-3.237,-2.931,-2.321
0.360,0.147,0.046,0.893,-2.840,-2.107,-1.954
0.360,0.145,0.049,0.892,-2.916,-0.916,-1.695
0.370,0.137,0.050,0.895,-2.534,0.122,-1.145
0.370,0.136,0.048,0.900,-2.412,0.443,-0.565
0.370,0.129,0.052,0.899,-1.924,0.931,0.122
0.380,0.136,0.052,0.888,-1.985,1.634,0.534
0.380,0.132,0.053,0.889,-1.939,1.817,1.282
0.390,0.132,0.056,0.886,-1.908,2.336,1.496
0.390,0.146,0.053,0.895,-1.756,3.191,1.740
0.390,0.148,0.055,0.888,-1.511,3.481,1.786
0.400,0.146,0.065,0.879,-1.466,3.389,1.710
0.400,0.139,0.055,0.881,-1.282,2.336,1.863
0.410,0.145,0.054,0.874,-1.420,1.634,1.756
0.410,0.155,0.062,0.869,-1.573,0.702,1.328
0.410,0.154,0.060,0.874,-1.832,1.206,1.328
0.420,0.156,0.067,0.883,-1.679,0.458,1.344
0.420,0.151,0.060,0.877,-1.618,-0.504,1.053
0.420,0.153,0.052,0.882,-1.511,-1.863,1.008
0.430,0.166,0.057,0.878,-1.969,-2.641,0.534
0.430,0.162,0.054,0.880,-1.969,-3.649,0.137
0.440,0.160,0.052,0.877,-2.076,-3.664,0.122
0.440,0.165,0.051,0.880,-2.397,-4.122,0.214
0.440,0.159,0.046,0.868,-2.611,-4.260,0.244
0.450,0.166,0.050,0.879,-2.565,-4.427,0.519
0.450,0.171,0.054,0.892,-2.962,-3.420,0.458
0.460,0.171,0.052,0.875,-2.870,-2.504,0.427
0.460,0.166,0.049,0.893,-2.565,-1.939,0.275
0.460,0.168,0.049,0.887,-2.733,-1.695,0.473
0.470,0.172,0.050,0.889,-2.565,-0.855,0.290
0.470,0.168,0.054,0.892,-2.489,-0.198,0.092
0.480,0.167,0.046,0.896,-2.214,0.336,0.076
0.480,0.167,0.048,0.891,-2.015,0.672,0.015
0.480,0.172,0.049,0.892,-1.725,1.313,0.000
0.490,0.168,0.052,0.898,-1.405,1.679,0.153
0.490,0.165,0.050,0.893,-1.313,1.832,0.137
0.490,0.171,0.052,0.883,-1.099,1.878,0.305
0.500,0.172,0.057,0.886,-1.069,2.046,0.153
0.500,0.175,0.048,0.872,-0.992,2.153,-0.061
0.510,0.175,0.055,0.882,-0.931,2.260,-0.092
0.510,0.179,0.059,0.875,-1.099,2.290,-0.198
0.510,0.164,0.057,0.872,-0.947,1.893,-0.580
0.520,0.170,0.047,0.863,-1.481,0.885,-0.885
0.520,0.169,0.052,0.856,-2.046,0.137,-0.916
0.530,0.175,0.060,0.858,-2.595,-0.122,-1.267
0.530,0.166,0.050,0.865,-2.962,-0.534,-1.649
0.530,0.163,0.048,0.863,-3.267,-1.145,-1.908
0.540,0.159,0.057,0.872,-3.557,-2.702,-2.305
0.540,0.155,0.059,0.864,-4.137,-3.603,-2.397
0.550,0.162,0.051,0.872,-4.351,-4.321,-2.519
0.550,0.155,0.049,0.885,-4.687,-4.794,-2.702
0.550,0.148,0.057,0.885,-4.519,-4.702,-2.519
0.560,0.148,0.053,0.878,-4.382,-4.290,-2.641
0.560,0.151,0.051,0.881,-4.305,-4.092,-2.412
0.570,0.148,0.055,0.896,-4.244,-3.786,-2.427
0.570,0.149,0.049,0.898,-3.863,-2.885,-2.046
0.570,0.138,0.048,0.896,-3.588,-2.031,-1.481
0.580,0.141,0.054,0.894,-3.359,-1.374,-1.008
0.580,0.142,0.050,0.899,-3.298,-0.015,-0.107
0.590,0.148,0.051,0.897,-2.931,1.237,0.519
0.590,0.150,0.044,0.896,-2.489,2.153,0.885
0.590,0.150,0.051,0.893,-2.046,2.794,1.069
0.600,0.157,0.047,0.891,-1.954,2.992,1.176
0.600,0.167,0.042,0.898,-1.679,3.740,0.977
0.600,0.169,0.050,0.889,-1.450,3.863,0.504
0.610,0.165,0.054,0.877,-1.511,3.389,0.153
0.610,0.155,0.050,0.878,-1.634,2.168,-0.107
0.620,0.157,0.056,0.879,-1.618,0.366,-0.412
0.620,0.156,0.055,0.880,-1.969,-0.931,-0.824
0.620,0.158,0.055,0.874,-2.290,-1.802,-0.855
0.630,0.156,0.060,0.873,-2.443,-2.244,-0.885
0.630,0.154,0.065,0.871,-2.458,-2.779,-0.870
0.640,0.158,0.057,0.867,-2.687,-2.672,-0.794
0.640,0.161,0.059,0.867,-2.779,-2.183,-0.672
0.640,0.161,0.069,0.868,-2.748,-1.313,-0.321
0.650,0.160,0.073,0.856,-2.733,-0.122,0.061
0.650,0.162,0.071,0.856,-3.023,0.855,0.382
0.660,0.160,0.071,0.860,-3.389,1.893,1.053
0.660,0.165,0.067,0.851,-3.863,3.160,1.099
0.660,0.172,0.072,0.859,-4.153,4.519,1.527
0.670,0.172,0.077,0.864,-4.168,5.695,1.756
0.670,0.175,0.067,0.853,-4.656,6.137,2.214
0.670,0.165,0.071,0.849,-4.931,6.473,2.137
0.680,0.168,0.070,0.863,-4.947,6.702,1.954
0.680,0.168,0.071,0.870,-4.870,6.656,1.847
0.690,0.179,0.066,0.862,-4.931,6.382,1.664
0.690,0.175,0.066,0.861,-4.473,5.618,1.069
0.690,0.171,0.065,0.860,-4.580,4.168,0.443
0.700,0.174,0.060,0.848,-4.656,3.069,-0.122
0.700,0.171,0.054,0.847,-5.008,1.985,-1.191
0.710,0.173,0.052,0.834,-5.679,0.901,-2.015
0.710,0.171,0.044,0.852,-6.656,-0.427,-2.534
0.710,0.155,0.040,0.847,-7.389,-1.740,-2.931
0.720,0.152,0.035,0.868,-8.198,-3.374,-3.099
0.720,0.146,0.038,0.876,-8.550,-4.565,-2.855
0.730,0.150,0.038,0.875,-8.672,-5.176,-2.550
0.730,0.158,0.037,0.890,-8.855,-5.771,-2.366
0.730,0.151,0.029,0.902,-8.794,-5.832,-1.908
0.740,0.167,0.029,0.904,-8.504,-4.733,-1.695
0.740,0.163,0.017,0.906,-7.725,-3.008,-1.466
0.750,0.164,0.022,0.911,-7.344,-1.969,-0.901
0.750,0.158,0.021,0.913,-6.687,-0.763,-0.336
0.750,0.160,0.028,0.904,-6.153,0.168,-0.183
0.760,0.167,0.028,0.902,-5.725,0.840,-0.168
0.760,0.164,0.033,0.892,-5.557,1.481,-0.153
0.760,0.165,0.038,0.889,-5.206,1.573,-0.168
0.770,0.163,0.040,0.879,-5.237,1.573,-0.580
0.770,0.163,0.042,0.873,-5.344,1.908,-0.763
0.780,0.158,0.048,0.870,-5.420,1.527,-0.947
0.780,0.149,0.056,0.858,-5.374,1.069,-1.313
0.780,0.145,0.059,0.856,-5.710,0.321,-1.450
0.790,0.149,0.062,0.859,-5.649,-0.061,-1.313
0.790,0.149,0.065,0.835,-5.924,-0.489,-1.496
0.800,0.137,0.073,0.845,-6.122,-0.794,-1.374
0.800,0.144,0.070,0.824,-6.443,-1.237,-1.115
0.800,0.135,0.077,0.833,-6.641,-1.496,-0.916
0.810,0.137,0.082,0.835,-6.855,-1.573,-0.412
0.810,0.133,0.083,0.827,-7.023,-1.374,0.214
0.820,0.145,0.077,0.803,-7.557,-0.473,0.687
0.820,0.154,0.073,0.799,-8.611,-0.275,0.458
0.820,0.154,0.070,0.783,-9.863,-0.763,0.351
0.830,0.162,0.070,0.790,-11.679,-1.115,-0.076
0.830,0.162,0.070,0.798,-13.374,-1.328,-0.382
0.840,0.170,0.054,0.813,-14.748,-2.015,-0.718
0.840,0.160,0.051,0.825,-16.137,-2.947,-0.611
0.840,0.153,0.034,0.835,-16.794,-3.374,-0.595
0.850,0.166,0.041,0.852,-17.099,-3.374,-0.351
0.850,0.158,0.036,0.863,-16.931,-3.130,-0.260
0.860,0.165,0.027,0.879,-16.519,-2.702,0.076
0.860,0.168,0.025,0.874,-15.924,-2.031,0.260
0.860,0.168,0.022,0.884,-15.115,-1.099,0.351
0.870,0.168,0.024,0.884,-14.595,0.076,0.489
0.870,0.171,0.022,0.883,-13.939,1.176,0.595
0.880,0.164,0.028,0.870,-13.481,2.122,0.748
0.880,0.168,0.028,0.875,-13.145,3.084,0.885
0.880,0.168,0.032,0.869,-12.870,3.710,0.885
0.890,0.171,0.032,0.867,-12.641,4.321,0.809
0.890,0.167,0.039,0.862,-12.504,4.580,0.473
0.900,0.168,0.042,0.853,-12.473,4.458,0.351
0.900,0.161,0.045,0.854,-12.672,3.969,0.061
0.900,0.159,0.045,0.853,-12.947,3.328,0.076
0.910,0.164,0.050,0.828,-12.931,3.130,-0.061
0.910,0.168,0.056,0.823,-13.252,2.580,-0.107
0.920,0.162,0.058,0.826,-13.206,1.893,-0.137
0.920,0.153,0.066,0.816,-13.115,0.794,-0.183
0.920,0.158,0.067,0.803,-13.542,0.183,-0.214
0.930,0.160,0.074,0.801,-13.817,-0.916,-0.290
0.930,0.159,0.082,0.782,-13.985,-1.221,-0.244
0.940,0.155,0.079,0.771,-14.458,-1.893,0.229
0.940,0.163,0.090,0.759,-14.565,-1.374,0.351
0.940,0.166,0.101,0.749,-15.252,-0.504,0.809
0.950,0.176,0.104,0.740,-15.542,0.779,1.191
0.950,0.173,0.118,0.713,-16.015,1.359,1.466
0.960,0.181,0.129,0.714,-16.977,1.649,1.740
0.960,0.179,0.136,0.682,-18.168,1.817,1.802
0.960,0.188,0.136,0.667,-19.389,2.290,1.863
0.970,0.193,0.154,0.655,-21.130,2.718,1.618
0.970,0.191,0.164,0.648,-22.733,2.336,1.756
0.970,0.200,0.164,0.631,-24.550,2.336,1.420
0.980,0.207,0.174,0.612,-26.198,2.565,1.267
0.980,0.217,0.184,0.604,-28.107,3.252,1.084
0.990,0.228,0.185,0.588,-30.336,3.618,0.794
0.990,0.233,0.188,0.581,-32.061,4.076,0.427
0.990,0.231,0.193,0.558,-34.412,4.855,0.214
1.000,0.233,0.199,0.547,-36.641,5.328,-0.443
1.000,0.240,0.204,0.522,-39.191,5.344,-0.992
1.010,0.245,0.193,0.504,-41.786,5.618,-1.481
1.010,0.256,0.198,0.502,-44.687,6.473,-2.183
1.010,0.267,0.197,0.490,-47.573,7.481,-2.885
1.020,0.281,0.194,0.472,-50.901,8.626,-3.969
1.020,0.297,0.201,0.469,-53.939,10.061,-4.779
1.030,0.309,0.197,0.459,-57.267,12.504,-5.969
1.030,0.306,0.193,0.458,-60.718,13.695,-7.252
1.030,0.305,0.182,0.445,-64.473,13.695,-8.809
1.040,0.308,0.172,0.441,-67.527,13.328,-10.733
1.040,0.304,0.158,0.437,-71.084,13.053,-12.565
1.050,0.294,0.135,0.435,-74.687,11.496,-14.076
1.050,0.279,0.120,0.429,-78.641,8.809,-15.435
1.060,0.276,0.098,0.428,-82.382,7.328,-16.366
1.060,0.260,0.086,0.441,-86.046,6.565,-17.145
1.060,0.243,0.057,0.451,-89.084,5.511,-17.252
1.070,0.231,0.037,0.473,-92.046,4.275,-17.359
1.070,0.225,0.026,0.484,-94.626,3.939,-17.145
1.080,0.228,0.012,0.511,-96.305,5.618,-16.427
1.080,0.222,-0.012,0.525,-97.160,7.130,-15.634
1.080,0.221,-0.017,0.527,-98.473,8.916,-14.534
1.090,0.217,-0.038,0.540,-99.374,12.015,-12.794
1.090,0.210,-0.050,0.553,-99.924,17.099,-10.794
1.100,0.213,-0.049,0.544,-100.366,22.718,-9.099
1.100,0.215,-0.059,0.537,-100.809,26.947,-7.405
1.100,0.229,-0.066,0.538,-101.649,31.389,-6.458
1.110,0.249,-0.077,0.540,-102.901,36.901,-6.260
1.110,0.292,-0.081,0.504,-104.168,42.580,-7.267
1.120,0.312,-0.085,0.497,-106.015,47.496,-9.130
1.120,0.317,-0.101,0.483,-108.046,51.374,-11.863
1.130,0.313,-0.111,0.455,-110.916,54.076,-14.763
1.130,0.299,-0.132,0.429,-114.489,56.260,-17.924
1.130,0.272,-0.147,0.413,-119.023,58.305,-20.519
1.140,0.232,-0.172,0.386,-124.351,59.603,-22.656
1.140,0.213,-0.196,0.368,-129.832,60.382,-24.321
1.150,0.187,-0.220,0.345,-135.603,62.763,-25.420
1.150,0.153,-0.246,0.335,-141.863,63.496,-27.008
1.160,0.123,-0.266,0.339,-149.023,62.504,-28.489
1.160,0.082,-0.304,0.346,-154.794,60.763,-29.374
1.170,0.034,-0.334,0.359,-160.901,58.092,-29.908
1.170,-0.022,-0.391,0.404,-165.618,53.496,-29.527
1.170,-0.080,-0.432,0.438,-169.328,47.832,-26.992
1.180,-0.118,-0.484,0.489,-172.305,43.893,-23.130
1.180,-0.135,-0.515,0.526,-174.397,41.053,-18.336
1.190,-0.136,-0.559,0.579,-175.450,39.496,-13.618
1.190,-0.125,-0.583,0.605,-175.802,39.298,-9.527
1.200,-0.074,-0.613,0.643,-175.176,42.046,-6.840
1.200,-0.031,-0.635,0.666,-173.786,45.679,-6.122
1.200,-0.002,-0.648,0.678,-172.092,49.099,-7.221
1.210,0.014,-0.663,0.672,-170.107,50.779,-9.634
1.210,0.006,-0.673,0.661,-169.588,49.710,-12.672
1.220,0.016,-0.681,0.641,-168.977,46.229,-16.672
1.220,0.010,-0.696,0.631,-168.901,40.504,-21.099
1.230,0.006,-0.715,0.637,-168.366,31.649,-25.389
1.230,-0.003,-0.726,0.634,-167.466,22.366,-28.870
1.240,-0.003,-0.742,0.612,-167.649,12.290,-31.786
1.240,0.014,-0.757,0.603,-168.992,2.244,-33.893
1.240,0.044,-0.771,0.607,-170.427,-5.023,-35.618
1.250,0.101,-0.781,0.616,-172.015,-8.962,-36.702
1.250,0.136,-0.789,0.618,-172.718,-10.031,-37.176
1.260,0.177,-0.793,0.635,-173.450,-7.664,-38.305
1.260,0.237,-0.784,0.630,-175.038,-1.298,-39.145
1.270,0.272,-0.788,0.632,-175.511,7.573,-40.947
1.270,0.269,-0.791,0.620,-175.191,15.649,-43.252
1.270,0.249,-0.785,0.587,-175.374,21.649,-45.389
1.280,0.206,-0.779,0.571,-175.466,26.183,-47.374
1.280,0.139,-0.788,0.557,-175.084,28.260,-48.580
1.290,0.076,-0.798,0.527,-173.756,27.130,-48.427
1.290,-0.002,-0.807,0.487,-173.618,23.099,-47.328
1.300,-0.047,-0.816,0.449,-174.473,17.328,-45.252
1.300,-0.076,-0.839,0.404,-175.557,12.565,-42.107
1.300,-0.082,-0.864,0.374,-177.969,8.901,-36.885
1.310,-0.031,-0.878,0.349,-181.649,8.107,-31.206
1.310,0.035,-0.909,0.351,-185.878,11.267,-26.489
1.320,0.101,-0.931,0.354,-190.290,17.847,-22.443
1.320,0.176,-0.976,0.385,-193.954,26.794,-20.137
1.330,0.236,-1.000,0.396,-197.527,37.435,-19.191
1.330,0.292,-1.039,0.421,-199.893,48.168,-20.061
1.340,0.327,-1.061,0.456,-202.244,58.046,-22.137
1.340,0.338,-1.083,0.475,-203.282,65.603,-25.863
1.340,0.326,-1.115,0.504,-202.214,68.656,-31.359
1.350,0.292,-1.147,0.516,-199.954,65.954,-37.908
1.350,0.238,-1.168,0.539,-197.328,58.397,-43.832
1.360,0.201,-1.184,0.519,-194.183,48.489,-49.435
1.360,0.166,-1.194,0.520,-190.443,35.420,-54.122
1.370,0.138,-1.200,0.504,-186.794,22.351,-58.168
1.370,0.130,-1.207,0.491,-183.008,9.588,-61.634
1.370,0.099,-1.219,0.459,-179.374,-1.588,-63.878
1.380,0.091,-1.226,0.434,-176.885,-9.756,-64.366
1.380,0.078,-1.243,0.418,-175.466,-15.191,-64.015
1.390,0.101,-1.243,0.385,-174.092,-16.427,-63.435
1.390,0.123,-1.242,0.349,-173.206,-14.779,-63.069
1.400,0.123,-1.248,0.325,-172.763,-11.954,-62.290
1.400,0.101,-1.264,0.290,-173.359,-9.237,-60.626
1.400,0.096,-1.268,0.257,-175.191,-4.656,-57.985
1.410,0.094,-1.281,0.233,-176.260,-0.015,-55.328
1.410,0.099,-1.287,0.220,-177.649,3.634,-53.038
1.420,0.093,-1.301,0.203,-178.947,5.389,-51.191
1.420,0.103,-1.304,0.193,-180.107,6.565,-49.908
1.430,0.127,-1.320,0.196,-181.450,7.130,-49.038
1.430,0.145,-1.329,0.205,-182.427,6.901,-48.748
1.430,0.166,-1.339,0.213,-183.160,7.282,-48.519
1.440,0.204,-1.346,0.228,-183.985,7.924,-49.664
1.440,0.224,-1.359,0.249,-183.344,6.947,-51.511
1.450,0.255,-1.369,0.269,-182.336,5.649,-54.015
1.450,0.280,-1.365,0.283,-181.191,4.870,-56.901
1.460,0.290,-1.368,0.302,-179.466,3.481,-60.443
1.460,0.297,-1.373,0.311,-177.817,2.061,-64.489
1.460,0.288,-1.364,0.323,-175.176,0.275,-67.725
1.470,0.277,-1.363,0.323,-172.626,-2.046,-70.458
1.470,0.263,-1.375,0.321,-169.603,-3.878,-72.656
1.480,0.264,-1.355,0.327,-166.122,-5.130,-74.718
1.480,0.260,-1.355,0.313,-161.344,-6.229,-78.061
1.490,0.221,-1.349,0.291,-156.870,-9.954,-82.015
1.490,0.180,-1.356,0.264,-153.359,-16.702,-84.840
1.500,0.146,-1.351,0.221,-150.962,-24.458,-87.115
1.500,0.117,-1.340,0.185,-149.588,-33.573,-88.870
1.500,0.085,-1.325,0.146,-149.954,-45.053,-89.756
1.510,0.065,-1.319,0.092,-151.786,-56.748,-89.252
1.510,0.057,-1.316,0.080,-154.885,-66.611,-87.450
1.520,0.080,-1.319,0.080,-158.794,-72.809,-84.580
1.520,0.108,-1.319,0.088,-162.107,-74.382,-80.931
1.530,0.126,-1.312,0.107,-163.740,-74.336,-76.733
1.530,0.135,-1.312,0.146,-164.611,-72.458,-71.710
1.530,0.144,-1.305,0.162,-164.519,-67.237,-65.206
1.540,0.159,-1.300,0.171,-163.786,-59.588,-59.176
1.540,0.171,-1.285,0.190,-161.756,-50.779,-52.885
1.550,0.178,-1.285,0.196,-158.733,-42.504,-47.679
1.550,0.170,-1.286,0.192,-154.489,-36.244,-43.344
1.560,0.159,-1.281,0.174,-150.718,-32.061,-39.878
1.560,0.151,-1.267,0.163,-146.641,-30.122,-36.290
1.570,0.135,-1.275,0.164,-142.107,-31.221,-32.687
1.570,0.120,-1.280,0.138,-137.466,-33.939,-30.321
1.570,0.129,-1.257,0.115,-134.336,-37.832,-27.695
1.580,0.129,-1.250,0.088,-132.061,-42.763,-25.344
1.580,0.131,-1.251,0.073,-129.939,-47.878,-22.351
1.590,0.152,-1.249,0.053,-127.908,-53.679,-19.603
1.590,0.166,-1.251,0.031,-126.214,-57.145,-17.084
1.600,0.188,-1.248,0.001,-125.481,-57.023,-14.275
1.600,0.220,-1.229,-0.003,-126.229,-54.137,-11.786
1.610,0.247,-1.219,-0.012,-126.885,-49.038,-10.412
1.610,0.257,-1.217,-0.020,-126.748,-44.809,-9.542
1.610,0.258,-1.201,-0.010,-126.641,-40.290,-8.412
1.620,0.256,-1.196,-0.022,-124.885,-33.695,-7.008
1.620,0.257,-1.188,-0.035,-122.611,-28.137,-6.031
1.630,0.248,-1.169,-0.047,-120.366,-24.702,-5.588
1.630,0.243,-1.159,-0.076,-117.740,-22.672,-5.802
1.640,0.239,-1.144,-0.107,-115.069,-19.679,-7.023
1.640,0.231,-1.146,-0.136,-111.176,-18.260,-8.443
1.650,0.214,-1.136,-0.165,-110.076,-22.107,-10.427
1.650,0.219,-1.121,-0.182,-108.534,-29.160,-9.695
1.650,0.204,-1.109,-0.205,-109.573,-39.786,-10.244
1.660,0.229,-1.102,-0.215,-111.695,-47.237,-11.298
1.660,0.280,-1.085,-0.220,-113.252,-49.924,-12.855
1.670,0.290,-1.089,-0.207,-112.092,-53.435,-15.405
1.670,0.307,-1.082,-0.224,-111.313,-55.908,-18.565
1.680,0.313,-1.072,-0.248,-111.344,-56.763,-21.359
1.680,0.314,-1.066,-0.282,-111.481,-55.527,-23.924
1.690,0.324,-1.057,-0.298,-112.870,-51.206,-26.137
1.690,0.330,-1.060,-0.311,-111.496,-41.817,-27.847
1.700,0.337,-1.062,-0.303,-112.458,-41.603,-29.603
1.700,0.290,-1.039,-0.322,-114.275,-48.626,-31.985
1.700,0.333,-1.036,-0.333,-116.992,-47.679,-33.771
1.710,0.332,-1.032,-0.329,-119.725,-44.702,-36.305
1.710,0.331,-1.056,-0.292,-120.076,-45.053,-39.053
1.720,0.309,-1.068,-0.283,-119.786,-45.847,-41.649
1.720,0.283,-1.067,-0.283,-119.664,-47.160,-43.435
1.730,0.264,-1.069,-0.268,-119.908,-42.000,-42.565
1.730,0.241,-1.088,-0.196,-116.489,-40.260,-40.931
1.740,0.235,-1.087,-0.221,-111.664,-37.328,-40.870
1.740,0.191,-1.060,-0.255,-109.725,-33.878,-39.924
1.740,0.174,-1.042,-0.259,-106.733,-34.412,-38.137
1.750,0.122,-1.039,-0.256,-101.802,-36.412,-37.145
1.750,0.083,-1.032,-0.271,-97.298,-41.145,-35.588
1.760,0.044,-1.007,-0.330,-94.550,-45.878,-32.366
1.760,0.048,-1.009,-0.371,-93.756,-45.420,-26.901
1.770,0.048,-0.995,-0.389,-91.908,-44.718,-21.008
1.770,0.064,-0.993,-0.414,-90.290,-43.863,-15.588
1.780,0.094,-0.978,-0.442,-90.702,-40.214,-10.458
1.780,0.142,-0.980,-0.444,-91.115,-35.908,-5.985
1.780,0.149,-0.983,-0.448,-90.870,-33.176,-2.565
1.790,0.168,-0.979,-0.456,-91.191,-28.382,0.092
1.790,0.229,-0.978,-0.458,-88.885,-17.649,2.550
1.800,0.258,-1.001,-0.456,-87.802,-14.519,5.008
1.800,0.222,-0.984,-0.463,-89.176,-20.076,6.626
1.810,0.272,-1.000,-0.474,-87.832,-13.298,8.840
1.810,0.274,-0.998,-0.487,-86.794,-5.527,10.183
1.810,0.237,-0.994,-0.503,-86.519,-4.901,11.634
1.820,0.242,-0.981,-0.524,-87.099,-4.000,13.053
1.820,0.257,-0.986,-0.521,-87.603,-0.351,13.466
1.830,0.256,-0.987,-0.526,-87.298,2.855,13.313
1.830,0.262,-0.988,-0.536,-86.855,2.687,12.458
1.840,0.265,-0.974,-0.578,-88.290,4.565,10.473
1.840,0.311,-0.959,-0.593,-89.282,6.611,9.832
1.840,0.279,-0.986,-0.573,-91.679,-4.244,9.817
1.850,0.273,-0.997,-0.554,-93.878,-14.534,8.183
1.850,0.394,-1.019,-0.540,-96.168,-12.183,6.122
1.860,0.416,-1.012,-0.523,-97.221,-9.786,3.298
1.860,0.418,-1.036,-0.484,-96.290,-13.450,0.351
1.870,0.431,-1.040,-0.462,-95.145,-14.153,-1.756
1.870,0.442,-1.036,-0.445,-92.580,-12.107,-3.863
1.870,0.450,-1.052,-0.427,-88.153,-9.939,-6.397
1.880,0.411,-1.044,-0.440,-84.122,-7.756,-8.214
1.880,0.392,-1.033,-0.442,-81.282,-6.824,-8.672
1.890,0.368,-1.034,-0.457,-78.336,-5.557,-9.023
1.890,0.342,-1.032,-0.456,-75.450,-4.427,-8.565
1.900,0.322,-1.030,-0.442,-72.733,-4.565,-7.939
1.900,0.317,-1.029,-0.447,-69.939,-5.145,-7.634
1.900,0.295,-1.028,-0.489,-66.489,-5.282,-7.695
1.910,0.290,-1.008,-0.479,-66.382,-7.603,-6.000
1.910,0.314,-1.014,-0.491,-64.977,-6.580,-6.061
1.920,0.340,-1.010,-0.500,-62.153,-4.992,-7.405
1.920,0.370,-1.016,-0.503,-59.511,-4.321,-8.412
1.920,0.335,-1.009,-0.508,-58.916,-11.023,-8.885
1.930,0.353,-1.013,-0.494,-57.542,-14.534,-8.489
1.930,0.390,-1.011,-0.511,-54.794,-10.763,-8.672
1.940,0.366,-1.003,-0.515,-53.084,-9.344,-8.718
1.940,0.348,-0.997,-0.504,-50.718,-11.481,-7.954
1.950,0.351,-0.999,-0.490,-48.260,-9.344,-7.282
1.950,0.357,-0.994,-0.501,-45.786,-4.229,-6.718
1.950,0.333,-0.986,-0.484,-43.374,-1.618,-5.878
1.960,0.318,-0.982,-0.482,-39.618,-0.168,-4.733
1.960,0.293,-0.981,-0.463,-36.046,1.527,-3.023
1.970,0.292,-0.974,-0.445,-32.550,4.260,-1.191
1.970,0.279,-0.982,-0.424,-28.244,4.534,0.565
1.980,0.274,-0.992,-0.407,-23.038,2.427,1.695
1.980,0.303,-0.989,-0.444,-18.870,3.282,2.748
1.980,0.322,-0.983,-0.461,-15.969,5.267,3.328
1.990,0.317,-0.995,-0.463,-12.748,3.511,3.878
1.990,0.330,-0.996,-0.477,-9.359,1.160,3.634
2.000,0.355,-0.993,-0.487,-7.328,1.771,3.435
2.000,0.366,-0.981,-0.516,-5.420,2.718,2.870
2.000,0.367,-0.977,-0.532,-3.863,2.260,2.260
2.010,0.366,-0.975,-0.562,-2.901,2.595,0.977
2.010,0.351,-0.967,-0.552,-3.115,0.473,0.275
2.020,0.359,-0.968,-0.549,-1.893,0.885,0.687
2.020,0.372,-0.963,-0.567,-0.809,5.099,0.198
2.020,0.342,-0.954,-0.586,-0.855,8.244,0.397
2.030,0.313,-0.942,-0.590,-1.237,9.130,1.573
2.030,0.309,-0.947,-0.587,-1.191,9.939,2.061
2.040,0.298,-0.935,-0.562,-0.229,11.496,2.687
2.040,0.295,-0.936,-0.560,0.565,12.916,3.298
2.040,0.286,-0.943,-0.567,1.115,13.221,4.137
2.050,0.292,-0.943,-0.568,1.893,11.511,4.656
2.050,0.309,-0.955,-0.562,2.473,10.412,4.595
2.060,0.330,-0.960,-0.545,3.298,9.634,3.832
2.060,0.358,-0.963,-0.551,4.351,9.695,2.672
2.060,0.360,-0.970,-0.519,4.595,6.702,0.718
2.070,0.367,-0.979,-0.508,6.489,2.519,-1.466
2.070,0.378,-0.982,-0.496,9.664,-0.427,-3.802
2.080,0.388,-0.975,-0.513,11.466,-1.634,-6.198
2.080,0.373,-0.966,-0.523,13.405,-2.550,-8.046
2.080,0.351,-0.965,-0.546,14.718,-5.237,-9.847
2.090,0.348,-0.969,-0.514,15.939,-9.389,-11.802
2.090,0.350,-0.969,-0.539,17.893,-9.634,-13.710
2.100,0.344,-0.963,-0.528,19.145,-9.191,-15.435
2.100,0.313,-0.962,-0.522,19.817,-10.168,-16.504
2.110,0.302,-0.958,-0.509,21.160,-10.885,-17.527
2.110,0.302,-0.967,-0.488,22.733,-10.366,-18.229
2.110,0.302,-0.976,-0.458,24.962,-9.023,-18.947
2.120,0.303,-0.970,-0.424,27.542,-7.237,-18.931
2.120,0.314,-0.976,-0.393,31.695,-4.046,-18.382
2.130,0.328,-1.000,-0.329,36.580,-0.229,-17.756
2.130,0.328,-1.016,-0.275,42.809,3.374,-17.328
2.140,0.343,-1.036,-0.203,49.176,6.031,-16.702
2.140,0.367,-1.054,-0.131,56.916,9.221,-15.969
2.140,0.404,-1.074,-0.080,65.878,13.527,-15.557
2.150,0.417,-1.100,-0.031,77.481,16.824,-16.885
2.150,0.434,-1.130,-0.004,91.008,18.733,-19.557
2.160,0.432,-1.154,0.005,104.779,20.198,-22.153
2.160,0.427,-1.180,0.016,116.840,21.252,-23.725
2.170,0.407,-1.198,0.003,128.519,19.023,-24.473
2.170,0.375,-1.207,0.004,138.427,14.229,-25.176
2.170,0.374,-1.236,0.002,149.328,13.634,-26.366
2.180,0.403,-1.257,0.003,160.718,19.344,-27.817
2.180,0.395,-1.279,-0.009,172.290,25.221,-29.038
2.190,0.368,-1.295,-0.022,182.565,27.084,-29.557
2.190,0.347,-1.306,-0.035,191.786,28.489,-29.740
2.200,0.344,-1.325,-0.087,199.420,31.511,-29.420
2.200,0.357,-1.331,-0.145,204.611,35.359,-29.252
2.200,0.351,-1.344,-0.186,207.374,39.023,-29.466
2.210,0.334,-1.342,-0.229,208.198,41.695,-29.282
2.210,0.320,-1.333,-0.281,207.511,42.885,-28.748
2.220,0.288,-1.340,-0.305,205.237,36.794,-27.420
2.220,0.253,-1.356,-0.328,198.611,28.763,-28.122
2.230,0.340,-1.362,-0.347,195.496,35.939,-28.656
2.230,0.350,-1.353,-0.344,191.511,44.275,-30.275
2.230,0.292,-1.365,-0.343,186.626,41.847,-31.756
2.240,0.256,-1.357,-0.326,180.748,36.397,-31.725
2.240,0.261,-1.374,-0.323,176.305,32.809,-32.000
2.250,0.255,-1.361,-0.277,171.359,29.160,-33.084
2.250,0.222,-1.361,-0.262,167.878,25.664,-31.924
2.260,0.196,-1.364,-0.228,163.740,20.656,-29.603
2.260,0.189,-1.373,-0.199,161.298,17.542,-27.115
2.260,0.181,-1.382,-0.161,159.359,15.237,-23.649
2.270,0.161,-1.396,-0.125,158.061,12.489,-19.160
2.270,0.143,-1.403,-0.110,157.878,10.809,-13.542
2.280,0.132,-1.410,-0.056,158.595,10.397,-6.458
2.280,0.139,-1.418,-0.021,160.168,12.641,1.618
2.290,0.160,-1.432,0.012,163.374,17.267,9.053
2.290,0.193,-1.440,0.053,168.198,23.710,15.710
2.290,0.215,-1.453,0.095,173.359,30.015,22.763
2.300,0.232,-1.461,0.132,179.313,35.008,29.221
2.300,0.257,-1.480,0.161,185.893,39.893,35.450
2.310,0.310,-1.489,0.172,193.389,45.725,40.336
2.310,0.375,-1.505,0.176,200.702,51.450,44.122
2.320,0.419,-1.512,0.161,207.969,56.489,46.137
2.320,0.460,-1.519,0.144,213.832,60.595,47.313
2.320,0.481,-1.534,0.117,218.244,63.542,47.954
2.330,0.512,-1.535,0.096,221.221,65.267,47.618
2.330,0.529,-1.536,0.069,223.802,66.702,46.763
2.340,0.548,-1.536,0.059,225.802,67.115,44.336
2.340,0.552,-1.532,0.040,227.511,65.221,41.908
2.340,0.552,-1.534,0.028,228.534,61.053,37.954
2.350,0.546,-1.528,0.005,229.573,55.359,33.298
2.350,0.532,-1.528,-0.018,230.290,48.275,28.137
2.360,0.502,-1.527,-0.051,230.611,39.450,23.130
2.360,0.470,-1.521,-0.082,230.305,28.687,18.275
2.370,0.420,-1.513,-0.127,229.115,16.412,13.847
2.370,0.363,-1.491,-0.179,224.702,2.794,11.786
2.370,0.300,-1.479,-0.215,218.809,-7.878,14.092
2.380,0.281,-1.457,-0.240,211.756,-14.855,20.061
2.380,0.295,-1.441,-0.218,205.420,-16.794,25.710
2.390,0.351,-1.422,-0.194,200.412,-15.252,30.947
2.390,0.393,-1.423,-0.186,196.962,-10.840,35.313
2.400,0.273,-1.445,-0.217,189.786,-29.099,42.550
2.400,0.366,-1.374,-0.156,185.206,-27.969,45.206
2.400,0.556,-1.416,-0.126,186.580,-3.099,44.489
2.410,0.512,-1.377,-0.095,184.641,5.176,42.550
2.410,0.506,-1.366,-0.094,183.893,6.870,40.916
2.420,0.528,-1.371,-0.104,183.206,10.580,36.733
2.420,0.506,-1.350,-0.087,182.061,9.588,32.382
2.430,0.490,-1.353,-0.065,181.863,5.893,28.443
2.430,0.451,-1.344,-0.041,181.099,0.427,26.031
2.430,0.439,-1.348,-0.033,179.939,-7.115,24.473
2.440,0.437,-1.332,-0.028,179.023,-15.160,22.305
2.440,0.456,-1.335,-0.008,178.916,-21.130,18.137
2.450,0.458,-1.326,0.010,179.160,-27.603,14.809
2.450,0.434,-1.307,0.024,179.634,-33.130,11.557
2.450,0.418,-1.300,0.041,181.023,-36.412,11.374
2.460,0.394,-1.284,0.040,181.374,-42.534,12.183
2.460,0.452,-1.263,0.033,182.672,-38.656,10.382
2.470,0.496,-1.232,0.053,185.038,-25.740,8.611
2.470,0.492,-1.233,0.095,189.573,-14.519,8.000
2.480,0.482,-1.229,0.116,194.061,-2.626,8.336
2.480,0.475,-1.227,0.131,196.672,8.183,9.802
2.480,0.471,-1.213,0.130,198.321,17.389,11.786
2.490,0.482,-1.198,0.168,200.260,27.237,13.710
2.490,0.482,-1.177,0.174,202.198,36.595,15.053
2.500,0.490,-1.158,0.198,204.122,44.687,15.893
2.500,0.481,-1.142,0.220,206.076,51.328,16.351
2.500,0.472,-1.129,0.221,207.679,54.931,15.893
2.510,0.454,-1.112,0.211,208.809,55.878,14.382
2.510,0.434,-1.107,0.204,208.763,53.695,12.153
2.520,0.404,-1.093,0.181,207.634,47.634,9.496
2.520,0.368,-1.076,0.190,205.939,40.122,6.916
2.530,0.324,-1.070,0.210,204.351,30.198,4.824
2.530,0.291,-1.054,0.231,202.580,18.092,3.466
2.530,0.289,-1.039,0.219,200.153,6.947,2.595
2.540,0.293,-1.026,0.248,198.229,-1.252,1.710
2.540,0.308,-1.026,0.246,196.763,-7.878,1.267
2.550,0.323,-1.005,0.274,195.130,-12.565,0.702
2.550,0.350,-0.992,0.288,194.336,-14.397,0.580
2.550,0.385,-0.968,0.304,194.168,-12.015,0.656
2.560,0.407,-0.956,0.322,193.420,-7.221,0.962
2.560,0.434,-0.935,0.350,192.977,-0.840,0.901
2.570,0.459,-0.921,0.366,193.099,6.626,-0.061
2.570,0.471,-0.909,0.394,193.160,13.573,-1.237
2.570,0.455,-0.878,0.387,192.718,18.534,-3.160
2.580,0.446,-0.864,0.388,191.969,20.611,-5.298
2.580,0.427,-0.844,0.382,191.328,22.565,-7.786
2.590,0.394,-0.836,0.383,190.534,22.733,-9.802
2.590,0.344,-0.818,0.398,189.038,20.473,-11.053
2.600,0.298,-0.794,0.402,188.076,17.145,-11.603
2.600,0.267,-0.795,0.400,186.931,13.130,-11.817
2.600,0.232,-0.785,0.402,185.603,7.634,-11.954
2.610,0.212,-0.762,0.406,183.557,2.504,-11.374
2.610,0.212,-0.747,0.401,181.481,-0.779,-10.550
2.620,0.215,-0.731,0.414,179.267,-2.565,-9.511
2.620,0.224,-0.711,0.402,177.221,-3.771,-8.901
2.620,0.223,-0.697,0.410,174.321,-4.702,-8.214
2.630,0.218,-0.674,0.426,171.863,-4.702,-6.962
2.630,0.216,-0.673,0.434,169.771,-4.061,-5.038
2.640,0.215,-0.658,0.443,167.466,-2.947,-3.160
2.640,0.228,-0.641,0.457,165.237,-0.763,-0.687
2.650,0.240,-0.627,0.483,163.435,1.481,1.466
2.650,0.262,-0.605,0.503,162.931,4.183,3.038
2.650,0.289,-0.594,0.518,163.176,7.710,4.244
2.660,0.314,-0.587,0.524,163.313,10.977,4.748
2.660,0.325,-0.581,0.521,162.779,12.931,4.519
2.670,0.341,-0.569,0.520,162.626,13.511,3.450
2.670,0.342,-0.552,0.533,162.382,13.450,2.229
2.670,0.337,-0.535,0.553,162.473,12.183,0.992
2.680,0.335,-0.518,0.566,163.053,10.076,-0.275
2.680,0.334,-0.513,0.567,163.710,8.275,-1.511
2.690,0.334,-0.496,0.561,164.214,7.069,-2.687
2.690,0.323,-0.481,0.558,164.489,5.328,-4.061
2.690,0.327,-0.473,0.547,164.290,2.519,-5.282
2.700,0.334,-0.461,0.534,163.634,0.641,-6.733
2.700,0.355,-0.446,0.516,162.458,0.443,-8.229
2.710,0.357,-0.448,0.512,160.580,1.115,-9.893
2.710,0.362,-0.444,0.474,157.893,1.573,-11.710
2.720,0.365,-0.429,0.461,153.588,2.718,-13.832
2.720,0.375,-0.398,0.454,149.084,3.756,-15.924
2.720,0.362,-0.376,0.465,144.550,4.794,-17.466
2.730,0.344,-0.361,0.481,140.687,7.450,-18.885
2.730,0.336,-0.341,0.514,139.145,12.015,-19.359
2.740,0.275,-0.332,0.523,137.191,9.618,-17.603
2.740,0.226,-0.310,0.541,134.153,4.076,-14.977
2.740,0.248,-0.305,0.547,133.435,5.359,-12.427
2.750,0.265,-0.304,0.578,134.214,8.656,-11.618
2.750,0.263,-0.303,0.579,134.351,10.153,-10.214
2.760,0.263,-0.286,0.581,134.137,12.122,-8.214
2.760,0.261,-0.280,0.590,134.611,14.122,-6.794
2.770,0.266,-0.275,0.596,135.557,16.260,-6.107
2.770,0.264,-0.262,0.598,135.771,17.954,-5.359
2.770,0.258,-0.230,0.584,134.809,18.397,-4.443
2.780,0.254,-0.226,0.570,134.275,19.145,-3.847
2.780,0.238,-0.218,0.560,133.359,19.237,-2.901
2.790,0.226,-0.200,0.549,131.740,18.504,-1.939
2.790,0.217,-0.178,0.547,129.618,16.458,-0.947
2.790,0.227,-0.159,0.554,127.603,14.504,0.015
2.800,0.240,-0.134,0.549,125.847,14.031,-0.076
2.800,0.256,-0.116,0.538,124.351,13.481,-0.595
2.810,0.260,-0.085,0.526,122.305,12.183,-1.298
2.810,0.297,-0.054,0.525,121.359,17.405,-3.191
2.820,0.265,-0.058,0.507,119.817,15.267,-2.916
2.820,0.182,-0.032,0.491,115.191,3.359,-2.901
2.820,0.219,-0.006,0.482,112.046,0.092,-2.779
2.830,0.247,0.017,0.489,109.863,0.977,-3.145
2.830,0.231,0.041,0.482,107.832,-0.855,-3.099
2.840,0.226,0.055,0.480,105.237,-2.046,-2.718
2.840,0.221,0.083,0.460,102.061,-1.939,-1.969
2.840,0.215,0.090,0.447,98.718,-1.634,-1.573
2.850,0.207,0.098,0.440,96.626,-1.985,-0.702
2.850,0.199,0.110,0.427,93.298,-1.847,0.504
2.860,0.200,0.112,0.421,89.252,-1.725,1.893
2.860,0.198,0.106,0.427,85.649,-0.763,3.176
2.860,0.200,0.113,0.423,81.344,-0.260,4.504
2.870,0.204,0.123,0.434,76.840,-0.260,5.679
2.870,0.206,0.125,0.431,72.519,0.244,7.038
2.880,0.213,0.125,0.451,68.718,1.557,7.405
2.880,0.198,0.130,0.481,65.252,1.359,9.802
2.880,0.194,0.138,0.502,62.229,0.916,11.542
2.890,0.219,0.152,0.512,59.847,1.420,12.916
2.890,0.226,0.162,0.523,57.878,3.466,13.924
2.890,0.237,0.170,0.540,56.214,4.656,14.870
2.900,0.238,0.178,0.548,54.611,5.603,15.847
2.900,0.253,0.185,0.549,53.496,6.916,15.557
2.910,0.253,0.196,0.552,52.321,8.137,16.015
2.910,0.267,0.202,0.544,50.550,9.237,15.924
2.910,0.267,0.208,0.549,49.328,9.374,15.649
2.920,0.274,0.215,0.552,47.145,10.107,14.489
2.920,0.276,0.231,0.560,45.023,10.275,14.656
2.930,0.283,0.217,0.558,43.389,10.824,13.649
2.930,0.287,0.225,0.561,42.107,11.053,12.931
2.930,0.276,0.224,0.566,40.153,10.565,12.153
2.940,0.272,0.225,0.552,37.817,9.282,11.679
2.940,0.277,0.236,0.554,35.023,8.168,11.344
2.950,0.274,0.232,0.565,32.992,6.885,10.916
2.950,0.267,0.232,0.562,30.550,5.496,10.382
2.950,0.265,0.225,0.556,28.397,3.298,9.298
2.960,0.262,0.229,0.567,25.634,0.107,9.084
2.960,0.268,0.235,0.572,22.489,-2.183,8.305
2.960,0.264,0.225,0.570,19.542,-4.305,8.214
2.970,0.259,0.224,0.590,16.672,-6.015,8.534
2.970,0.242,0.218,0.617,14.321,-7.374,9.603
2.980,0.260,0.213,0.627,12.015,-6.931,10.901
2.980,0.270,0.211,0.656,10.305,-5.710,12.321
2.980,0.280,0.206,0.665,8.947,-3.817,13.542
2.990,0.298,0.204,0.690,7.740,-1.771,14.580
2.990,0.305,0.212,0.712,7.038,0.519,15.191
3.000,0.326,0.209,0.715,6.351,3.282,15.389
3.000,0.338,0.212,0.725,6.198,6.534,15.328
3.000,0.352,0.219,0.736,6.198,9.710,15.267
3.010,0.345,0.215,0.733,6.015,11.710,14.626
3.010,0.348,0.209,0.731,5.847,13.725,13.481
3.020,0.331,0.223,0.745,5.603,14.412,13.740
3.020,0.320,0.219,0.734,5.695,14.153,13.191
3.020,0.316,0.224,0.735,5.634,14.672,12.641
3.030,0.308,0.215,0.720,4.885,14.397,12.092
3.030,0.300,0.221,0.724,3.725,14.046,12.198
3.040,0.299,0.221,0.727,2.779,13.435,11.893
3.040,0.312,0.220,0.712,1.313,13.282,11.405
3.040,0.312,0.219,0.726,-0.107,13.252,10.947
3.050,0.318,0.217,0.734,-2.015,12.565,10.183
3.050,0.316,0.219,0.727,-3.878,12.427,9.588
3.050,0.307,0.223,0.733,-5.496,11.786,8.977
3.060,0.309,0.223,0.737,-6.947,10.992,8.626
3.060,0.314,0.223,0.743,-8.443,11.527,8.382
3.070,0.308,0.219,0.756,-9.847,12.550,7.771
3.070,0.292,0.218,0.750,-10.992,12.397,7.130
3.070,0.280,0.213,0.750,-12.092,11.710,6.687
3.080,0.277,0.208,0.782,-12.977,11.008,6.153
3.080,0.266,0.201,0.781,-14.000,8.870,5.389
3.090,0.246,0.193,0.784,-14.763,5.924,4.718
3.090,0.244,0.191,0.801,-15.435,3.481,3.282
3.090,0.229,0.191,0.825,-15.252,0.611,4.366
3.100,0.230,0.180,0.828,-15.069,-1.176,4.458
3.100,0.235,0.171,0.824,-15.023,-2.382,4.748
3.110,0.230,0.167,0.834,-14.992,-3.267,5.053
3.110,0.225,0.155,0.847,-14.687,-3.893,5.481
3.110,0.228,0.160,0.852,-14.351,-3.832,6.229
3.120,0.231,0.150,0.860,-13.817,-2.260,7.069
3.120,0.241,0.146,0.867,-13.176,-0.168,7.878
3.130,0.241,0.149,0.857,-12.427,1.511,8.656
3.130,0.240,0.146,0.867,-11.939,3.130,9.664
3.130,0.242,0.147,0.863,-11.557,4.885,10.595
3.140,0.254,0.146,0.861,-11.069,6.107,11.099
3.140,0.252,0.137,0.859,-11.328,7.908,11.588
3.150,0.261,0.142,0.847,-11.435,9.176,11.893
3.150,0.258,0.144,0.845,-11.481,10.000,12.427
3.150,0.257,0.138,0.851,-11.481,9.786,12.351
3.160,0.264,0.136,0.852,-11.695,9.130,12.183
3.160,0.268,0.126,0.847,-11.863,8.366,11.618
3.170,0.268,0.125,0.858,-12.229,6.565,10.794
3.170,0.272,0.117,0.864,-12.901,4.427,10.412
3.170,0.277,0.114,0.874,-13.008,3.282,9.817
3.180,0.289,0.120,0.875,-12.840,2.550,9.069
3.180,0.291,0.113,0.899,-12.366,1.328,8.046
3.190,0.294,0.116,0.886,-11.893,0.122,7.069
3.190,0.298,0.106,0.893,-11.282,-0.779,5.664
3.190,0.297,0.107,0.902,-10.412,-1.359,4.580
3.200,0.295,0.111,0.906,-9.282,-2.290,3.542
3.200,0.286,0.115,0.902,-8.611,-2.351,3.206
3.210,0.275,0.118,0.896,-7.191,-1.817,3.313
3.210,0.276,0.111,0.896,-6.015,-1.115,3.389
3.210,0.271,0.119,0.889,-4.687,-0.351,3.435
3.220,0.269,0.116,0.879,-3.878,0.214,4.092
3.220,0.264,0.121,0.867,-3.008,0.977,4.855
3.220,0.268,0.114,0.857,-3.160,2.565,5.588
3.230,0.267,0.124,0.851,-2.824,4.107,6.321
3.230,0.280,0.120,0.835,-2.702,6.137,6.656
3.240,0.288,0.126,0.843,-2.931,7.939,6.504
3.240,0.286,0.118,0.833,-3.053,8.809,6.473
3.240,0.277,0.121,0.823,-3.908,8.962,6.382
3.250,0.284,0.116,0.822,-4.611,9.511,6.153
3.250,0.287,0.113,0.814,-5.420,10.260,5.374
3.260,0.283,0.114,0.820,-6.260,9.237,4.580
3.260,0.273,0.105,0.816,-7.359,7.435,3.542
3.260,0.265,0.095,0.815,-8.473,5.221,2.412
3.270,0.267,0.097,0.812,-9.191,3.099,1.405
3.270,0.249,0.093,0.833,-10.198,0.901,0.382
3.270,0.251,0.090,0.834,-11.038,-1.527,-0.534
3.280,0.236,0.082,0.854,-11.191,-3.924,-1.008
3.280,0.227,0.079,0.862,-11.267,-5.771,-1.176
3.290,0.227,0.075,0.876,-11.221,-6.427,-0.718
3.290,0.228,0.073,0.885,-10.580,-5.847,0.031
3.290,0.226,0.076,0.891,-9.634,-4.901,1.115
3.300,0.225,0.074,0.905,-8.595,-3.679,1.954
3.300,0.235,0.075,0.908,-7.435,-1.817,3.237
3.310,0.235,0.073,0.917,-6.305,0.672,4.214
3.310,0.238,0.075,0.926,-5.130,3.252,5.389
3.310,0.244,0.082,0.917,-3.969,5.282,6.550
3.320,0.238,0.090,0.908,-2.580,6.824,7.313
3.320,0.245,0.084,0.906,-1.985,7.542,8.092
3.330,0.244,0.092,0.890,-1.206,8.824,8.595
3.330,0.250,0.090,0.876,-0.733,9.740,8.748
3.330,0.256,0.101,0.870,-0.168,9.634,8.137
3.340,0.253,0.096,0.844,-0.198,8.260,7.191
3.340,0.253,0.096,0.843,-0.702,5.420,6.214
3.340,0.250,0.091,0.830,-1.557,3.328,4.962
3.350,0.254,0.089,0.825,-2.443,0.916,3.710
3.350,0.255,0.094,0.822,-3.298,-1.756,2.611
3.360,0.245,0.092,0.834,-4.198,-4.733,1.725
3.360,0.242,0.093,0.832,-4.840,-7.008,1.130
3.360,0.244,0.089,0.838,-5.160,-8.443,0.687
3.370,0.247,0.086,0.848,-5.664,-9.435,0.901
3.370,0.244,0.086,0.849,-6.107,-9.435,1.038
3.380,0.249,0.085,0.847,-6.458,-8.931,1.252
3.380,0.247,0.088,0.854,-6.565,-7.359,1.634
3.380,0.255,0.092,0.858,-6.443,-4.992,2.427
3.390,0.255,0.096,0.843,-6.366,-2.794,3.038
3.390,0.251,0.094,0.859,-6.412,-0.656,3.771
3.400,0.241,0.100,0.856,-6.122,0.809,4.687
3.400,0.245,0.097,0.860,-6.137,2.015,5.618
3.400,0.244,0.104,0.865,-5.634,2.962,6.122
3.410,0.246,0.098,0.861,-5.725,3.252,6.275
3.410,0.252,0.098,0.857,-5.374,3.298,6.336
3.410,0.260,0.091,0.852,-5.008,3.160,6.290
3.420,0.265,0.090,0.856,-5.160,2.443,6.244
3.420,0.271,0.092,0.860,-5.359,1.344,5.756
3.430,0.264,0.094,0.857,-5.847,0.595,5.420
3.430,0.270,0.094,0.857,-5.832,0.061,5.053
3.430,0.285,0.090,0.869,-6.076,-0.366,4.824
3.440,0.276,0.085,0.860,-6.046,-0.748,4.305
3.440,0.278,0.083,0.864,-6.107,-1.023,3.847
3.450,0.279,0.086,0.854,-6.366,-1.267,3.466
3.450,0.278,0.085,0.861,-6.595,-1.176,3.267
3.450,0.278,0.087,0.863,-6.672,-1.145,2.992
3.460,0.278,0.081,0.865,-6.733,-0.901,3.053
3.460,0.279,0.089,0.877,-6.473,0.412,2.824
3.460,0.276,0.089,0.886,-6.076,1.679,3.344
3.470,0.273,0.088,0.881,-5.924,2.214,3.573
3.470,0.273,0.088,0.878,-5.282,3.023,3.664
3.480,0.275,0.090,0.885,-4.641,3.664,3.756
3.480,0.276,0.089,0.893,-4.122,4.153,3.664
3.480,0.279,0.087,0.879,-3.740,4.015,3.389
3.490,0.273,0.089,0.892,-3.099,3.374,3.542
3.490,0.280,0.093,0.883,-2.626,2.565,3.023
3.500,0.282,0.090,0.889,-2.305,2.168,2.702
3.500,0.283,0.088,0.882,-2.290,1.817,2.214
3.500,0.280,0.087,0.875,-2.473,1.649,1.679
3.510,0.279,0.093,0.871,-2.748,1.496,1.374
3.510,0.272,0.090,0.856,-3.115,1.344,1.084
3.510,0.279,0.082,0.858,-3.221,1.267,0.931
3.520,0.270,0.088,0.869,-3.374,0.931,1.099
3.520,0.263,0.086,0.863,-3.573,0.198,1.237
3.530,0.263,0.086,0.864,-3.817,-0.443,1.115
3.530,0.265,0.084,0.867,-4.122,-0.443,1.191
3.530,0.282,0.092,0.875,-4.168,0.611,1.252
3.540,0.275,0.088,0.877,-4.198,1.786,1.282
3.540,0.278,0.092,0.875,-4.214,2.580,1.130
3.540,0.266,0.089,0.874,-4.153,3.008,1.267
3.550,0.271,0.085,0.871,-4.107,3.740,1.344
3.550,0.266,0.088,0.871,-4.076,4.687,1.359
3.560,0.252,0.091,0.867,-4.015,5.053,1.557
3.560,0.251,0.091,0.880,-3.893,5.191,1.924
3.560,0.245,0.088,0.873,-3.771,5.084,2.214
3.570,0.244,0.092,0.871,-3.710,4.412,2.305
3.570,0.249,0.100,0.867,-3.466,3.969,2.427
3.580,0.243,0.092,0.857,-3.985,3.053,2.229
3.580,0.242,0.084,0.854,-4.168,1.985,2.260
3.580,0.241,0.086,0.855,-4.809,0.641,2.153
3.590,0.238,0.092,0.852,-5.374,-0.901,1.985
3.590,0.236,0.081,0.857,-5.756,-1.252,2.061
3.590,0.242,0.083,0.864,-6.305,-1.221,2.275
3.600,0.247,0.080,0.857,-6.244,-1.221,2.137
3.600,0.254,0.074,0.868,-6.321,-1.405,2.061
3.610,0.249,0.081,0.877,-6.183,-1.756,1.786
3.610,0.264,0.068,0.884,-6.275,-2.366,1.374
3.610,0.263,0.072,0.893,-5.893,-1.481,1.008
3.620,0.267,0.071,0.898,-5.466,-0.794,0.656
3.620,0.258,0.065,0.905,-4.885,-1.176,0.351
3.630,0.259,0.071,0.908,-4.031,-0.672,0.244
3.630,0.259,0.069,0.901,-3.328,0.046,0.595
3.630,0.248,0.069,0.901,-2.855,0.748,0.992
3.640,0.253,0.070,0.909,-2.214,1.282,1.313
3.640,0.251,0.074,0.900,-1.771,2.550,1.618
3.650,0.250,0.076,0.887,-1.344,3.542,1.985
3.650,0.247,0.078,0.883,-0.901,4.489,2.244
3.650,0.241,0.082,0.881,-0.870,5.160,2.443
3.660,0.249,0.083,0.871,-0.733,5.618,2.931
3.660,0.241,0.083,0.872,-0.962,5.740,3.328
3.660,0.242,0.084,0.861,-1.176,6.244,3.344
3.670,0.242,0.081,0.867,-1.710,5.969,3.847
3.670,0.247,0.092,0.863,-2.122,6.061,4.015
3.680,0.249,0.090,0.864,-2.779,6.748,3.939
3.680,0.250,0.092,0.865,-3.374,6.702,3.924
3.680,0.248,0.089,0.855,-3.496,6.198,3.832
3.690,0.237,0.078,0.858,-3.435,5.084,3.573
3.690,0.237,0.082,0.860,-3.740,4.534,3.389
3.690,0.247,0.076,0.856,-3.832,4.214,2.824
3.700,0.243,0.072,0.868,-4.046,2.565,2.275
3.700,0.250,0.064,0.870,-4.672,0.855,0.840
3.710,0.245,0.071,0.872,-4.550,-0.855,0.962
3.710,0.247,0.073,0.884,-4.489,-1.466,0.779
3.710,0.251,0.074,0.890,-4.107,-1.481,0.443
3.720,0.240,0.073,0.888,-3.649,-2.427,0.153
3.720,0.237,0.061,0.900,-3.115,-3.634,0.580
3.730,0.249,0.067,0.895,-2.321,-3.115,0.718
3.730,0.253,0.070,0.902,-1.649,-2.809,0.977
3.730,0.258,0.061,0.891,-1.221,-2.031,0.992
3.740,0.260,0.069,0.896,-0.901,-1.053,1.023
3.740,0.260,0.072,0.885,-0.931,-0.229,1.084
3.750,0.261,0.075,0.885,-0.718,0.809,1.298
3.750,0.253,0.071,0.890,-0.336,1.542,1.420
3.750,0.253,0.070,0.888,-0.473,2.321,1.466
3.760,0.251,0.075,0.886,-0.244,2.611,1.557
3.760,0.243,0.074,0.875,-0.275,3.206,1.588
3.760,0.249,0.075,0.872,0.122,3.649,1.878
3.770,0.245,0.076,0.876,0.260,3.863,2.092
3.770,0.242,0.081,0.866,0.336,4.473,2.260
3.780,0.233,0.073,0.862,0.718,4.321,2.534
3.780,0.232,0.082,0.862,0.748,3.939,2.977
3.780,0.237,0.082,0.851,0.427,4.305,3.176
3.790,0.244,0.079,0.851,0.489,5.237,3.802
3.790,0.248,0.082,0.856,-0.244,5.878,4.061
3.790,0.246,0.073,0.854,-0.656,6.336,4.702
3.800,0.252,0.077,0.847,-1.267,6.962,4.962
3.800,0.261,0.074,0.850,-1.618,7.817,4.885
3.810,0.261,0.070,0.851,-2.092,8.092,4.763
3.810,0.266,0.067,0.857,-2.443,8.000,4.061
3.810,0.269,0.063,0.870,-2.962,7.084,3.389
3.820,0.272,0.069,0.869,-3.359,5.618,2.351
3.820,0.263,0.064,0.881,-3.527,3.969,1.206
3.820,0.270,0.062,0.891,-3.649,2.427,0.427
3.830,0.275,0.062,0.885,-3.771,1.511,-1.130
3.830,0.261,0.066,0.891,-3.405,-0.260,-1.267
3.840,0.251,0.066,0.902,-2.733,-2.198,-1.634
3.840,0.252,0.065,0.894,-1.939,-3.389,-1.679
3.840,0.247,0.065,0.891,-1.344,-3.832,-1.817
3.850,0.246,0.076,0.899,-0.504,-3.649,-1.588
3.850,0.244,0.072,0.896,0.015,-2.840,-0.992
3.860,0.241,0.074,0.891,0.580,-1.603,-0.595
3.860,0.242,0.074,0.888,0.901,-0.183,0.046
3.860,0.245,0.077,0.873,1.069,1.542,0.733
3.870,0.247,0.075,0.880,1.206,3.420,1.282
3.870,0.239,0.078,0.864,1.420,4.351,1.863
3.880,0.241,0.078,0.856,0.947,4.366,2.611
3.880,0.249,0.079,0.863,0.718,4.580,3.221
3.880,0.259,0.082,0.873,0.015,5.679,3.511
3.890,0.266,0.079,0.863,-0.351,6.519,3.893
3.890,0.252,0.082,0.865,-0.763,6.916,4.061
3.890,0.265,0.083,0.864,-1.099,6.412,4.214
3.900,0.260,0.077,0.869,-1.282,6.443,4.137
3.900,0.268,0.077,0.872,-1.130,6.366,4.031
3.910,0.266,0.078,0.872,-1.176,5.832,3.725
3.910,0.272,0.085,0.875,-1.206,5.435,3.099
3.910,0.270,0.075,0.870,-1.069,4.336,2.412
3.920,0.266,0.077,0.888,-0.702,2.565,1.557
3.920,0.269,0.076,0.884,-0.794,0.290,0.565
3.920,0.260,0.085,0.889,-0.916,-1.069,-0.183
3.930,0.254,0.084,0.893,-0.733,-2.534,-0.763
3.930,0.245,0.087,0.894,-0.672,-3.786,-1.038
3.940,0.238,0.095,0.891,-0.565,-4.763,-0.779
3.940,0.234,0.092,0.890,-0.718,-5.496,-0.443
3.940,0.230,0.095,0.888,-0.489,-6.122,0.122
3.950,0.224,0.098,0.887,-0.458,-6.046,0.885
3.950,0.218,0.094,0.884,-0.198,-5.450,2.092
3.960,0.225,0.092,0.891,0.168,-4.351,3.435
3.960,0.236,0.095,0.895,0.580,-2.855,4.794
3.960,0.240,0.092,0.892,1.023,-0.931,6.122
3.970,0.249,0.092,0.898,1.328,1.405,7.420
3.970,0.257,0.099,0.887,1.740,3.710,8.595
3.980,0.260,0.092,0.890,2.183,5.802,9.679
3.980,0.266,0.089,0.886,2.489,7.878,10.595
3.980,0.276,0.092,0.871,2.733,9.527,11.206
3.990,0.279,0.091,0.870,2.947,11.832,11.664
3.990,0.285,0.092,0.864,3.298,13.191,12.321
3.990,0.287,0.085,0.861,3.328,14.321,12.718
4.000,0.295,0.079,0.858,3.313,15.191,12.748
4.000,0.288,0.085,0.853,3.618,15.099,12.397
4.010,0.282,0.074,0.843,3.710,14.824,11.908
4.010,0.290,0.080,0.840,3.420,14.366,11.237
4.010,0.294,0.074,0.832,3.527,13.924,10.824
4.020,0.287,0.077,0.819,3.282,13.191,9.847
4.020,0.281,0.076,0.812,2.931,11.252,9.282
4.030,0.271,0.080,0.812,2.305,10.076,8.641
4.030,0.278,0.077,0.817,1.969,9.084,7.954
4.030,0.263,0.074,0.807,1.282,8.305,7.756
4.040,0.264,0.072,0.805,0.748,7.221,7.649
