Time,acce_x,acce_y,acce_z,gyro_x,gyro_y, gyro_z
0.000,0.277,0.060,0.856,-0.870,2.000,-0.443
0.000,0.274,0.062,0.853,-1.191,1.573,-0.458
0.010,0.275,0.060,0.851,-1.176,1.374,-0.229
0.010,0.276,0.061,0.853,-1.344,1.344,-0.214
0.010,0.270,0.061,0.857,-1.634,1.069,-0.198
0.020,0.280,0.062,0.852,-1.863,1.099,-0.305
0.020,0.279,0.057,0.852,-2.122,0.779,-0.305
0.020,0.274,0.058,0.852,-2.427,0.244,-0.305
0.030,0.282,0.055,0.858,-2.519,-0.473,-0.244
0.030,0.284,0.058,0.867,-2.534,-0.794,-0.443
0.030,0.283,0.050,0.856,-2.366,-1.038,-0.519
0.040,0.283,0.056,0.871,-2.565,-1.878,-0.580
0.040,0.283,0.055,0.878,-2.611,-1.649,-0.687
0.040,0.287,0.047,0.867,-2.458,-1.099,-0.733
0.050,0.286,0.048,0.881,-1.954,-0.672,-0.840
0.050,0.287,0.046,0.881,-1.740,-0.412,-0.763
0.050,0.290,0.043,0.885,-1.069,0.214,-0.763
0.060,0.291,0.051,0.882,-0.733,0.794,-0.779
0.060,0.290,0.050,0.882,-0.321,1.008,-0.885
0.070,0.291,0.058,0.887,-0.061,1.115,-1.038
0.070,0.275,0.054,0.874,-0.092,1.145,-1.145
0.070,0.278,0.043,0.875,-0.092,0.687,-1.252
0.080,0.275,0.057,0.874,-0.031,0.076,-1.542
0.080,0.276,0.056,0.867,-0.214,-0.229,-1.496
0.090,0.278,0.055,0.876,-0.382,-0.656,-1.649
0.090,0.283,0.053,0.872,-0.458,-0.229,-1.511
0.090,0.280,0.054,0.872,-0.351,-0.031,-1.527
0.100,0.278,0.054,0.876,-0.122,-0.092,-1.282
0.100,0.278,0.063,0.878,-0.229,-0.794,-1.282
0.110,0.277,0.055,0.865,-0.351,-0.626,-1.664
0.110,0.278,0.060,0.863,-0.397,-0.336,-1.496
0.110,0.272,0.055,0.870,-0.504,-0.550,-1.405
0.120,0.271,0.054,0.873,-0.656,-0.916,-1.466
0.120,0.271,0.052,0.874,-0.382,-0.779,-1.053
0.130,0.276,0.050,0.878,-0.153,-0.336,-0.992
0.130,0.268,0.058,0.879,0.122,-0.489,-0.962
0.130,0.272,0.052,0.884,0.183,-0.763,-0.748
0.140,0.287,0.057,0.875,0.321,0.122,-0.824
0.140,0.278,0.057,0.880,0.626,0.779,-0.718
0.150,0.280,0.058,0.878,0.931,1.252,-0.611
0.150,0.276,0.061,0.878,1.237,1.115,-0.504
0.150,0.274,0.053,0.869,1.282,0.962,-0.672
0.160,0.279,0.055,0.875,1.695,1.160,-0.824
0.160,0.282,0.053,0.867,1.725,1.084,-0.718
0.160,0.281,0.063,0.863,1.466,0.885,-1.145
0.170,0.284,0.058,0.861,1.389,0.977,-1.344
0.170,0.275,0.055,0.867,1.145,0.611,-1.405
0.180,0.271,0.055,0.859,1.023,0.076,-1.298
0.180,0.270,0.052,0.862,1.069,-0.550,-1.298
0.180,0.267,0.060,0.849,0.931,-0.962,-1.008
0.190,0.264,0.058,0.865,0.916,-1.237,-0.763
0.190,0.269,0.061,0.865,0.977,-1.420,-0.733
0.200,0.268,0.059,0.866,0.626,-1.511,-0.366
0.200,0.280,0.063,0.860,1.115,-0.947,-0.382
0.200,0.275,0.065,0.866,1.191,-0.595,-0.443
0.210,0.278,0.066,0.867,1.389,-0.061,-0.275
0.210,0.276,0.065,0.859,1.542,0.702,-0.275
0.210,0.279,0.070,0.859,1.588,0.794,-0.015
0.220,0.274,0.062,0.844,1.618,1.115,-0.137
0.220,0.270,0.063,0.845,1.649,1.573,0.153
0.230,0.272,0.073,0.837,1.298,2.015,0.244
0.230,0.270,0.067,0.830,0.977,2.275,0.305
0.230,0.271,0.070,0.836,0.992,1.847,0.412
0.240,0.274,0.070,0.841,0.794,1.420,0.366
0.240,0.273,0.067,0.838,0.305,0.458,0.168
0.240,0.279,0.071,0.842,-0.168,0.107,0.244
0.250,0.294,0.071,0.839,-0.473,0.321,0.366
0.250,0.280,0.070,0.829,-0.504,0.763,0.504
0.260,0.276,0.070,0.844,-0.534,0.779,0.641
0.260,0.283,0.065,0.835,-0.916,0.748,0.687
0.260,0.290,0.073,0.831,-1.282,0.702,0.672
0.270,0.285,0.073,0.823,-1.557,0.534,0.412
0.270,0.290,0.073,0.837,-2.214,0.733,0.412
0.280,0.295,0.076,0.838,-2.473,1.237,0.382
0.280,0.294,0.071,0.839,-2.947,1.328,0.137
0.280,0.296,0.063,0.837,-3.298,0.916,-0.137
0.290,0.282,0.064,0.846,-3.359,0.198,-0.336
0.290,0.284,0.062,0.843,-3.695,-0.656,-0.412
0.290,0.286,0.065,0.843,-3.634,-0.626,-0.473
0.300,0.285,0.066,0.857,-3.496,0.076,-0.489
0.300,0.282,0.062,0.851,-3.634,-0.397,-0.656
0.310,0.274,0.058,0.847,-3.832,-1.389,-0.687
0.310,0.273,0.056,0.852,-3.924,-1.481,-0.748
0.310,0.276,0.060,0.851,-3.511,-1.267,-0.687
0.320,0.276,0.059,0.864,-3.710,-1.344,-0.733
0.320,0.276,0.055,0.856,-3.389,-1.176,-0.702
0.330,0.269,0.046,0.868,-2.962,-1.298,-0.626
0.330,0.261,0.048,0.880,-2.748,-1.924,-0.748
0.330,0.265,0.049,0.874,-2.382,-1.786,-0.779
0.340,0.265,0.053,0.885,-2.214,-1.496,-0.473
0.340,0.264,0.050,0.887,-2.031,-1.084,-0.382
0.350,0.272,0.045,0.891,-2.061,-0.885,0.076
0.350,0.270,0.047,0.893,-1.771,-1.023,0.229
0.350,0.267,0.047,0.891,-1.511,-0.641,0.397
0.360,0.273,0.051,0.897,-1.374,-0.153,0.641
0.360,0.276,0.059,0.890,-1.176,0.748,0.763
0.370,0.278,0.053,0.889,-0.840,1.313,0.885
0.370,0.279,0.054,0.878,-0.595,1.603,1.084
0.370,0.272,0.062,0.882,-0.504,0.992,1.084
0.380,0.275,0.052,0.882,-0.885,0.840,0.947
0.380,0.275,0.055,0.884,-0.702,0.824,0.947
0.390,0.276,0.059,0.886,-0.840,0.718,0.977
0.390,0.271,0.054,0.881,-0.672,0.351,0.977
0.390,0.282,0.061,0.888,-0.702,0.244,0.977
0.400,0.280,0.060,0.886,-0.656,-0.061,0.977
0.400,0.283,0.054,0.885,-0.611,-0.458,0.931
0.400,0.279,0.060,0.896,-0.198,-0.229,0.992
0.410,0.287,0.055,0.896,0.046,0.061,0.733
0.410,0.291,0.052,0.892,0.290,0.595,0.672
0.420,0.286,0.057,0.897,0.855,0.763,0.626
0.420,0.283,0.053,0.897,1.466,0.779,0.672
0.420,0.283,0.059,0.898,1.924,0.992,0.351
0.430,0.290,0.055,0.896,2.290,1.038,0.321
0.430,0.287,0.052,0.888,2.382,1.420,0.122
0.430,0.286,0.063,0.877,2.641,1.008,0.122
0.440,0.284,0.065,0.886,2.641,0.290,-0.198
0.440,0.283,0.061,0.874,2.305,-0.275,-0.015
0.450,0.278,0.060,0.867,2.519,0.595,0.046
0.450,0.284,0.065,0.876,2.366,1.298,0.290
0.450,0.278,0.061,0.865,2.748,1.435,0.321
0.460,0.273,0.071,0.868,2.504,1.450,0.382
0.460,0.280,0.065,0.856,2.458,1.557,0.397
0.460,0.278,0.068,0.852,2.229,1.863,0.641
0.470,0.280,0.073,0.852,2.092,1.847,0.534
0.470,0.272,0.073,0.847,1.893,1.374,0.718
0.480,0.271,0.073,0.842,1.771,1.069,0.748
0.480,0.267,0.070,0.838,1.817,0.290,0.809
0.480,0.272,0.075,0.845,1.511,0.275,0.977
0.490,0.282,0.071,0.843,1.252,-0.015,0.824
0.490,0.281,0.069,0.832,1.191,-0.107,0.733
0.490,0.281,0.071,0.841,1.099,-0.443,0.565
0.500,0.288,0.075,0.833,0.702,-0.275,0.626
0.500,0.279,0.070,0.843,0.366,-0.031,0.641
0.510,0.279,0.075,0.828,0.168,-0.214,0.626
0.510,0.275,0.075,0.835,0.061,-0.397,0.595
0.510,0.269,0.068,0.841,-0.092,-1.130,0.656
0.520,0.284,0.072,0.837,-0.534,-1.832,0.443
0.520,0.280,0.070,0.848,-1.038,-2.198,0.153
0.530,0.282,0.072,0.841,-1.374,-2.321,0.076
0.530,0.272,0.068,0.836,-1.481,-2.015,0.153
0.530,0.274,0.062,0.834,-1.908,-2.046,0.290
0.540,0.270,0.060,0.844,-2.015,-1.954,0.641
0.540,0.270,0.061,0.847,-2.153,-1.618,0.565
0.540,0.269,0.062,0.846,-2.305,-0.916,1.130
0.550,0.270,0.061,0.843,-2.412,-0.260,1.450
0.550,0.277,0.057,0.840,-2.321,0.198,1.496
0.560,0.276,0.067,0.846,-2.733,-0.076,1.527
0.560,0.276,0.066,0.850,-2.931,0.015,1.481
0.560,0.279,0.059,0.855,-3.023,0.244,1.389
0.570,0.280,0.060,0.855,-2.824,-0.336,1.450
0.570,0.269,0.060,0.856,-2.885,-0.733,1.267
0.580,0.278,0.059,0.858,-2.656,-0.534,1.374
0.580,0.285,0.060,0.856,-2.427,-0.870,1.405
0.580,0.280,0.061,0.857,-2.626,-0.977,1.298
0.590,0.291,0.063,0.850,-2.290,-0.718,0.901
0.590,0.287,0.056,0.858,-2.107,-1.878,0.992
0.600,0.291,0.064,0.863,-2.260,-2.779,0.672
0.600,0.297,0.062,0.854,-2.443,-3.557,0.504
0.600,0.292,0.067,0.867,-2.595,-3.038,0.153
0.610,0.305,0.064,0.856,-2.840,-2.427,0.366
0.610,0.295,0.066,0.869,-2.687,-2.137,0.092
0.610,0.298,0.058,0.855,-2.794,-1.939,-0.183
0.620,0.301,0.061,0.857,-2.580,-1.863,-0.244
0.620,0.306,0.067,0.860,-2.427,-1.786,-0.672
0.630,0.299,0.063,0.859,-2.641,-1.282,-0.855
0.630,0.300,0.069,0.858,-2.611,-0.794,-0.947
0.630,0.299,0.059,0.863,-2.656,0.031,-1.359
0.640,0.292,0.059,0.860,-2.565,0.260,-1.435
0.640,0.283,0.064,0.863,-2.366,0.198,-1.557
0.650,0.282,0.062,0.874,-2.565,0.687,-1.405
0.650,0.276,0.058,0.872,-2.229,0.794,-1.191
0.650,0.266,0.065,0.867,-1.863,0.015,-1.008
0.660,0.264,0.058,0.876,-1.893,-0.641,-0.763
0.660,0.268,0.063,0.877,-1.878,-0.977,-0.427
0.670,0.268,0.060,0.871,-1.939,-0.473,-0.244
0.670,0.272,0.059,0.877,-1.695,-0.183,-0.351
0.670,0.274,0.062,0.870,-1.618,0.092,-0.092
0.680,0.272,0.059,0.863,-1.389,0.626,-0.137
0.680,0.275,0.062,0.871,-1.176,1.206,-0.061
0.690,0.267,0.064,0.872,-1.267,1.267,0.229
0.690,0.265,0.059,0.864,-1.069,2.031,0.397
0.690,0.266,0.067,0.856,-1.069,2.137,0.580
0.700,0.261,0.062,0.859,-1.466,2.092,0.916
0.700,0.266,0.069,0.851,-1.649,2.137,0.992
0.710,0.267,0.064,0.854,-1.603,2.305,1.130
0.710,0.268,0.070,0.858,-2.061,2.183,0.977
0.710,0.274,0.062,0.862,-1.908,2.489,1.084
0.720,0.269,0.064,0.873,-1.985,2.336,1.099
0.720,0.268,0.067,0.851,-1.802,2.046,1.145
0.720,0.278,0.071,0.864,-1.817,2.076,1.267
0.730,0.276,0.066,0.871,-1.664,1.771,1.313
0.730,0.281,0.062,0.868,-1.496,1.115,1.099
0.740,0.280,0.060,0.858,-1.542,0.672,1.084
0.740,0.288,0.062,0.864,-1.450,0.855,0.763
0.740,0.289,0.067,0.871,-1.313,1.023,0.702
0.750,0.294,0.067,0.865,-1.176,1.527,0.489
0.750,0.285,0.070,0.870,-1.069,1.450,0.397
0.750,0.289,0.072,0.866,-0.977,0.901,0.305
0.760,0.289,0.073,0.862,-0.901,0.809,0.321
0.760,0.289,0.067,0.867,-1.008,0.718,0.061
0.770,0.290,0.071,0.858,-0.962,0.168,-0.061
0.770,0.287,0.076,0.847,-0.977,0.107,-0.366
0.770,0.291,0.079,0.862,-1.359,-0.076,-0.504
0.780,0.292,0.069,0.852,-1.313,-0.229,-0.672
0.780,0.292,0.076,0.858,-1.695,-0.244,-0.916
0.790,0.286,0.072,0.858,-1.817,-0.809,-0.947
0.790,0.273,0.069,0.857,-2.137,-1.298,-0.916
0.790,0.273,0.073,0.859,-2.260,-1.405,-0.794
0.800,0.271,0.066,0.866,-2.275,-2.000,-0.382
0.800,0.279,0.067,0.857,-2.214,-1.679,-0.214
0.810,0.274,0.074,0.865,-2.244,-0.947,-0.031
0.810,0.275,0.074,0.860,-2.275,-0.473,0.382
0.810,0.277,0.075,0.864,-2.229,0.107,0.641
0.820,0.271,0.068,0.855,-2.198,0.641,0.870
0.820,0.275,0.071,0.851,-2.000,0.992,0.916
0.830,0.276,0.075,0.855,-2.321,1.099,1.069
0.830,0.272,0.077,0.839,-2.458,1.908,1.405
0.830,0.275,0.081,0.842,-2.397,1.969,1.634
0.840,0.266,0.082,0.846,-2.611,1.374,1.664
0.840,0.280,0.083,0.836,-3.069,1.328,1.756
0.840,0.284,0.081,0.841,-3.160,1.313,1.725
0.850,0.286,0.073,0.847,-3.389,1.435,1.573
0.850,0.290,0.071,0.847,-3.771,1.267,1.374
0.860,0.291,0.071,0.857,-3.985,0.977,1.359
0.860,0.298,0.070,0.860,-4.061,0.687,0.947
0.860,0.294,0.059,0.864,-4.198,0.611,0.565
0.870,0.291,0.056,0.861,-4.214,0.427,0.336
0.870,0.289,0.057,0.866,-4.244,0.260,0.214
0.870,0.281,0.061,0.872,-4.092,0.046,0.397
0.880,0.273,0.058,0.875,-3.817,-0.473,0.137
0.880,0.271,0.055,0.887,-3.527,-1.191,0.183
0.890,0.277,0.052,0.887,-3.237,-0.824,0.168
0.890,0.284,0.042,0.890,-3.206,-0.382,0.229
0.890,0.277,0.056,0.887,-2.290,0.229,0.351
0.900,0.281,0.054,0.888,-2.015,0.153,0.443
0.900,0.278,0.053,0.874,-1.771,0.382,-0.015
0.910,0.280,0.055,0.875,-1.527,0.519,0.366
0.910,0.275,0.060,0.877,-1.603,0.763,0.183
0.910,0.280,0.059,0.874,-1.435,0.489,0.412
0.920,0.272,0.054,0.878,-1.573,0.336,0.626
0.920,0.281,0.053,0.881,-1.679,0.168,0.611
0.930,0.278,0.052,0.886,-1.435,0.321,0.595
0.930,0.281,0.057,0.877,-1.496,0.229,0.656
0.930,0.286,0.051,0.873,-1.527,0.046,0.626
0.940,0.278,0.057,0.873,-1.313,0.412,0.672
0.940,0.278,0.058,0.878,-1.374,0.504,0.763
0.940,0.288,0.062,0.863,-1.389,0.550,0.565
0.950,0.287,0.062,0.863,-1.481,0.397,0.580
0.950,0.289,0.056,0.866,-1.344,0.611,0.550
0.960,0.291,0.067,0.870,-1.328,0.763,0.519
0.960,0.280,0.065,0.858,-1.298,0.641,0.626
0.960,0.285,0.058,0.858,-1.069,0.840,0.626
0.970,0.291,0.052,0.864,-0.824,1.023,0.427
0.970,0.288,0.053,0.856,-1.023,1.328,0.382
0.970,0.295,0.055,0.850,-1.099,1.145,0.061
0.980,0.291,0.054,0.854,-1.313,1.099,-0.336
0.980,0.292,0.051,0.875,-1.328,1.008,-0.550
0.990,0.289,0.056,0.869,-1.344,1.130,-0.519
0.990,0.291,0.050,0.873,-1.237,0.977,-0.656
0.990,0.282,0.042,0.882,-0.779,1.267,-0.656
1.000,0.286,0.056,0.884,-0.656,1.511,-0.504
1.000,0.292,0.052,0.868,-0.382,1.863,-0.702
1.010,0.287,0.058,0.877,0.031,2.397,-0.718
1.010,0.285,0.055,0.870,0.046,1.878,-0.733
1.010,0.276,0.057,0.865,0.183,1.878,-0.855
1.020,0.285,0.060,0.848,0.153,2.137,-0.733
1.020,0.284,0.060,0.852,-0.076,2.351,-0.580
1.030,0.278,0.064,0.847,-0.290,2.198,-0.534
1.030,0.277,0.070,0.844,-0.672,1.969,-0.427
1.030,0.276,0.071,0.846,-1.252,1.725,-0.290
1.040,0.280,0.065,0.839,-1.527,1.282,-0.122
1.040,0.284,0.072,0.839,-1.771,1.069,-0.015
1.040,0.293,0.072,0.841,-1.908,1.160,-0.229
1.050,0.291,0.064,0.836,-2.137,1.634,-0.534
1.050,0.300,0.072,0.830,-2.336,1.374,-0.687
1.060,0.298,0.066,0.845,-2.153,2.061,-1.008
1.060,0.298,0.071,0.849,-2.366,2.366,-1.099
1.060,0.295,0.067,0.843,-2.351,2.214,-1.084
1.070,0.288,0.075,0.832,-2.366,2.046,-1.252
1.070,0.287,0.075,0.831,-2.794,2.351,-1.237
1.080,0.286,0.071,0.828,-3.145,2.779,-0.931
1.080,0.285,0.078,0.824,-3.420,3.313,-1.099
1.080,0.286,0.075,0.823,-3.771,3.740,-1.084
1.090,0.283,0.074,0.836,-4.015,3.969,-0.885
1.090,0.290,0.076,0.831,-4.260,4.351,-0.977
1.100,0.283,0.079,0.824,-4.550,4.275,-0.763
1.100,0.283,0.081,0.826,-4.916,4.244,-0.840
1.100,0.295,0.082,0.829,-5.252,4.565,-1.237
1.110,0.299,0.078,0.821,-5.634,5.176,-1.405
1.110,0.296,0.079,0.813,-5.969,5.695,-1.802
1.110,0.296,0.074,0.817,-6.183,6.183,-1.893
1.120,0.286,0.073,0.817,-6.061,6.000,-2.229
1.120,0.288,0.080,0.825,-6.244,6.137,-2.244
1.130,0.282,0.079,0.810,-6.290,6.412,-2.366
1.130,0.284,0.086,0.827,-6.351,6.855,-2.397
1.130,0.282,0.076,0.831,-6.198,7.344,-2.366
1.140,0.284,0.081,0.812,-5.878,7.634,-2.794
1.140,0.274,0.082,0.823,-5.740,7.725,-2.443
1.150,0.267,0.078,0.813,-5.710,8.275,-2.718
1.150,0.279,0.090,0.803,-5.802,8.336,-2.687
1.150,0.275,0.091,0.807,-5.740,8.779,-2.855
1.160,0.282,0.088,0.800,-5.618,9.817,-3.023
1.160,0.286,0.088,0.798,-5.267,11.221,-3.389
1.170,0.281,0.093,0.812,-4.885,11.725,-3.481
1.170,0.280,0.091,0.801,-4.702,12.000,-3.740
1.170,0.293,0.089,0.798,-4.183,12.763,-4.534
1.180,0.297,0.094,0.798,-3.924,12.687,-4.763
1.180,0.288,0.099,0.800,-3.282,13.191,-5.405
1.190,0.283,0.099,0.789,-2.351,14.137,-5.328
1.190,0.271,0.102,0.771,-2.656,15.038,-4.763
1.190,0.274,0.105,0.757,-2.290,16.168,-4.275
1.200,0.277,0.109,0.739,-2.244,17.634,-3.573
1.200,0.273,0.119,0.728,-2.809,18.611,-3.267
1.210,0.269,0.121,0.709,-4.076,19.038,-3.771
1.210,0.270,0.136,0.678,-4.443,18.031,-2.855
1.210,0.266,0.125,0.655,-6.137,19.328,-2.672
1.220,0.268,0.136,0.635,-8.595,20.626,-2.412
1.220,0.240,0.131,0.625,-10.641,19.267,-2.443
1.230,0.237,0.129,0.587,-13.679,17.267,-2.611
1.230,0.226,0.125,0.571,-17.878,14.443,-3.176
1.230,0.214,0.129,0.556,-22.229,11.252,-3.588
1.240,0.204,0.124,0.548,-27.053,7.344,-4.275
1.240,0.193,0.119,0.541,-31.939,3.206,-4.794
1.250,0.186,0.109,0.552,-35.969,-0.779,-5.008
1.250,0.173,0.108,0.567,-39.863,-4.947,-5.130
1.250,0.170,0.092,0.596,-43.176,-8.641,-5.038
1.260,0.170,0.078,0.614,-45.298,-11.344,-4.687
1.260,0.167,0.069,0.629,-46.641,-13.282,-4.336
1.270,0.163,0.064,0.632,-47.649,-13.878,-3.618
1.270,0.158,0.055,0.639,-48.519,-14.305,-2.718
1.270,0.159,0.058,0.638,-48.885,-14.015,-1.756
1.280,0.153,0.050,0.644,-48.855,-13.237,-0.779
1.280,0.158,0.050,0.644,-48.824,-11.786,0.977
1.290,0.155,0.043,0.628,-49.038,-9.634,2.550
1.290,0.147,0.040,0.619,-49.649,-7.298,4.458
1.300,0.145,0.042,0.606,-49.832,-4.198,6.489
1.300,0.144,0.036,0.592,-50.412,-1.313,8.153
1.300,0.143,0.036,0.593,-50.626,1.954,10.122
1.310,0.141,0.034,0.572,-50.519,4.931,11.878
1.310,0.134,0.028,0.555,-50.931,8.290,13.496
1.320,0.124,0.035,0.539,-51.252,10.763,15.267
1.320,0.115,0.026,0.505,-52.290,12.290,16.885
1.320,0.109,0.025,0.488,-53.450,12.702,18.137
1.330,0.108,0.023,0.479,-54.947,12.397,19.252
1.330,0.106,0.021,0.452,-57.115,10.794,20.168
1.340,0.099,0.022,0.442,-59.221,8.214,20.733
1.340,0.105,0.012,0.440,-61.756,5.221,21.450
1.340,0.110,0.016,0.432,-64.183,2.305,21.985
1.350,0.124,0.005,0.430,-66.473,0.229,22.733
1.350,0.136,-0.001,0.428,-68.840,-1.237,23.099
1.360,0.148,-0.009,0.412,-71.618,-2.733,23.374
1.360,0.156,-0.022,0.429,-73.817,-4.534,23.573
1.360,0.177,-0.021,0.412,-76.427,-5.099,23.771
1.370,0.205,-0.032,0.415,-79.496,-5.511,23.786
1.370,0.236,-0.041,0.416,-82.672,-4.977,23.176
1.380,0.260,-0.045,0.405,-86.076,-3.908,22.061
1.380,0.287,-0.054,0.397,-89.954,-3.160,20.366
1.380,0.309,-0.054,0.392,-94.107,-3.038,17.893
1.390,0.328,-0.070,0.384,-98.137,-4.397,14.855
1.390,0.348,-0.063,0.375,-103.542,-8.183,10.458
1.400,0.357,-0.086,0.358,-107.771,-13.786,3.893
1.400,0.352,-0.101,0.356,-110.534,-23.527,-3.298
1.410,0.332,-0.118,0.360,-114.031,-37.878,-11.435
1.410,0.322,-0.118,0.349,-119.191,-56.382,-19.786
1.410,0.302,-0.133,0.346,-125.954,-75.466,-28.580
1.420,0.315,-0.175,0.253,-133.817,-90.702,-37.527
1.420,0.222,-0.154,0.374,-136.687,-118.183,-41.924
1.430,0.230,-0.195,0.491,-135.405,-146.779,-44.916
1.430,0.278,-0.203,0.450,-134.702,-164.931,-46.870
1.440,0.311,-0.220,0.408,-136.824,-170.733,-47.313
1.440,0.359,-0.215,0.382,-141.389,-168.031,-43.771
1.450,0.346,-0.224,0.413,-140.992,-166.855,-38.550
1.450,0.368,-0.257,0.436,-138.458,-162.397,-33.817
1.460,0.439,-0.241,0.416,-138.565,-144.260,-27.527
1.460,0.511,-0.250,0.372,-140.214,-115.023,-20.153
1.460,0.536,-0.254,0.344,-145.634,-82.336,-12.244
1.470,0.536,-0.274,0.314,-150.351,-58.061,-5.573
1.470,0.530,-0.262,0.332,-155.603,-35.160,-1.069
1.480,0.590,-0.295,0.334,-156.977,-3.710,2.519
1.480,0.569,-0.305,0.320,-159.359,21.466,5.618
1.490,0.510,-0.319,0.301,-163.557,36.656,8.260
1.490,0.469,-0.337,0.283,-167.008,45.313,9.679
1.490,0.452,-0.370,0.282,-169.939,52.351,10.000
1.500,0.417,-0.389,0.271,-172.092,55.420,9.374
1.500,0.374,-0.417,0.275,-173.924,51.542,8.198
1.510,0.319,-0.441,0.269,-176.321,42.443,7.695
1.510,0.274,-0.479,0.261,-178.611,30.183,7.313
1.520,0.257,-0.500,0.260,-180.733,17.053,7.588
1.520,0.248,-0.533,0.255,-183.298,3.023,8.473
1.520,0.240,-0.564,0.260,-185.710,-9.511,9.664
1.530,0.233,-0.624,0.280,-188.794,-21.252,11.603
1.530,0.243,-0.674,0.307,-191.725,-30.962,13.954
1.540,0.247,-0.719,0.343,-194.534,-38.214,17.298
1.540,0.274,-0.771,0.399,-196.595,-41.298,21.130
1.540,0.301,-0.820,0.430,-197.405,-40.779,24.931
1.550,0.342,-0.869,0.490,-197.405,-36.015,28.504
1.550,0.366,-0.906,0.510,-196.366,-28.885,31.756
1.560,0.382,-0.940,0.510,-195.511,-19.313,34.046
1.560,0.383,-0.970,0.505,-194.809,-10.260,35.725
1.570,0.380,-1.000,0.503,-194.244,-1.847,36.290
1.570,0.351,-1.032,0.482,-194.473,4.305,37.191
1.570,0.353,-1.038,0.445,-195.954,7.038,37.221
1.580,0.371,-1.060,0.442,-198.565,11.328,36.458
1.580,0.366,-1.077,0.430,-200.992,16.137,35.939
1.590,0.345,-1.123,0.430,-202.244,20.000,35.664
1.590,0.305,-1.146,0.422,-204.214,21.420,35.145
1.600,0.247,-1.174,0.367,-211.969,11.328,37.069
1.600,0.172,-1.159,0.407,-219.160,-3.313,36.840
1.600,0.267,-1.240,0.424,-216.885,-2.916,37.527
1.610,0.275,-1.239,0.434,-216.397,-4.885,36.794
1.610,0.264,-1.266,0.406,-218.137,-12.443,36.290
1.620,0.287,-1.287,0.385,-222.794,-20.672,35.893
1.620,0.316,-1.303,0.388,-226.397,-27.206,35.374
1.630,0.323,-1.344,0.419,-228.611,-32.061,34.718
1.630,0.316,-1.363,0.436,-230.809,-35.023,35.420
1.630,0.307,-1.390,0.419,-233.344,-35.298,37.115
1.640,0.287,-1.397,0.488,-233.954,-38.214,40.427
1.640,0.270,-1.451,0.472,-235.969,-50.153,42.977
1.650,0.286,-1.406,0.431,-238.305,-55.588,46.931
1.650,0.413,-1.454,0.518,-233.985,-45.115,49.267
1.660,0.483,-1.445,0.517,-231.130,-31.725,50.763
1.660,0.495,-1.427,0.487,-230.015,-20.229,51.115
1.670,0.490,-1.452,0.457,-228.489,-11.466,50.107
1.670,0.503,-1.478,0.423,-228.779,-1.771,48.809
1.670,0.497,-1.428,0.416,-228.916,5.649,47.328
1.680,0.540,-1.459,0.438,-223.878,16.504,43.252
1.680,0.539,-1.442,0.389,-221.725,30.076,39.802
1.690,0.492,-1.434,0.351,-221.130,40.626,35.634
1.690,0.439,-1.448,0.337,-220.824,43.679,32.336
1.700,0.366,-1.446,0.310,-221.649,41.267,29.221
1.700,0.387,-1.444,0.302,-227.237,38.733,28.702
1.700,0.555,-1.458,0.366,-233.618,57.435,30.809
1.710,0.735,-1.498,0.388,-229.695,130.076,32.550
1.710,0.610,-1.536,0.352,-232.611,185.878,30.794
1.720,0.290,-1.515,0.432,-228.397,175.939,29.450
1.720,0.226,-1.497,0.524,-221.924,166.229,31.695
1.730,0.383,-1.489,0.472,-214.153,184.168,29.237
1.730,0.376,-1.476,0.514,-210.840,191.573,25.038
1.730,0.283,-1.556,0.433,-202.198,182.366,5.130
1.740,0.056,-1.556,0.718,-208.656,156.427,17.664
1.740,0.331,-1.440,0.301,-207.832,165.313,10.519
1.750,0.281,-1.455,0.447,-206.321,154.244,4.107
1.750,0.213,-1.444,0.532,-198.534,128.947,-3.145
1.760,0.234,-1.435,0.473,-193.756,104.443,-10.137
1.760,0.206,-1.442,0.512,-183.847,65.389,-17.954
1.760,0.258,-1.372,0.436,-179.679,41.481,-19.817
1.770,0.241,-1.376,0.434,-175.603,21.893,-20.198
1.770,0.316,-1.377,0.414,-170.733,14.305,-20.198
1.780,0.358,-1.351,0.402,-167.298,15.481,-20.504
1.780,0.370,-1.329,0.376,-163.313,17.511,-21.405
1.790,0.362,-1.308,0.352,-161.344,17.466,-22.656
1.790,0.385,-1.296,0.323,-160.382,22.122,-23.237
1.790,0.371,-1.273,0.286,-158.153,29.176,-23.145
1.800,0.334,-1.273,0.254,-156.733,36.504,-22.458
1.800,0.269,-1.277,0.195,-156.107,38.427,-20.733
1.810,0.147,-1.220,0.182,-156.870,22.794,-18.626
1.810,0.146,-1.245,0.137,-155.023,14.046,-16.046
1.820,0.187,-1.237,0.132,-152.641,14.748,-14.229
1.820,0.186,-1.238,0.115,-150.092,15.008,-14.122
1.820,0.151,-1.228,0.065,-148.412,10.611,-14.351
1.830,0.120,-1.223,0.034,-147.466,-2.000,-13.756
1.830,0.105,-1.212,0.035,-146.901,-16.809,-13.435
1.840,0.128,-1.202,0.014,-145.435,-25.634,-14.565
1.840,0.129,-1.210,0.001,-143.420,-36.504,-17.344
1.850,0.071,-1.205,-0.033,-140.809,-55.313,-19.298
1.850,0.047,-1.204,-0.062,-140.458,-74.183,-19.954
1.860,0.079,-1.187,-0.116,-142.382,-86.275,-21.115
1.860,0.114,-1.191,-0.118,-143.298,-98.366,-21.481
1.860,0.137,-1.193,-0.107,-144.687,-104.870,-20.733
1.870,0.189,-1.178,-0.111,-146.031,-101.649,-19.908
1.870,0.227,-1.157,-0.088,-148.611,-98.153,-19.206
1.880,0.285,-1.211,-0.070,-145.282,-92.824,-22.153
1.880,0.304,-1.207,-0.005,-142.458,-87.588,-22.229
1.890,0.307,-1.215,0.015,-138.641,-80.947,-22.397
1.890,0.324,-1.212,0.005,-134.977,-72.595,-22.427
1.900,0.294,-1.222,0.027,-129.466,-66.626,-22.840
1.900,0.291,-1.215,0.059,-124.550,-59.863,-22.015
1.910,0.287,-1.222,0.082,-118.107,-53.344,-20.962
1.910,0.266,-1.221,0.113,-111.344,-48.198,-18.947
1.910,0.252,-1.224,0.113,-104.031,-43.679,-16.336
1.920,0.246,-1.220,0.125,-96.656,-39.160,-13.756
1.920,0.236,-1.208,0.144,-88.458,-36.916,-11.679
1.930,0.376,-1.240,0.214,-83.130,-8.321,-0.855
1.930,0.152,-1.206,0.186,-69.664,-17.939,-2.092
1.940,0.265,-1.206,0.133,-65.695,-16.305,0.931
1.940,0.291,-1.175,0.136,-57.466,-3.282,0.962
1.940,0.358,-1.200,0.143,-50.702,8.931,1.710
1.950,0.272,-1.176,0.134,-45.206,8.000,2.931
1.950,0.221,-1.165,0.096,-38.809,2.366,2.992
1.960,0.198,-1.162,0.045,-34.748,-4.015,3.573
1.960,0.187,-1.143,0.001,-31.374,-11.756,3.725
1.960,0.222,-1.125,-0.041,-29.740,-17.023,4.061
1.970,0.245,-1.114,-0.075,-27.786,-20.397,3.420
1.970,0.236,-1.108,-0.102,-26.137,-26.947,2.290
1.980,0.226,-1.105,-0.130,-25.450,-35.954,0.611
1.980,0.223,-1.094,-0.165,-25.771,-44.550,-0.458
1.990,0.272,-1.085,-0.191,-26.794,-48.962,-0.977
1.990,0.277,-1.077,-0.207,-27.847,-51.038,-1.466
1.990,0.273,-1.072,-0.222,-29.084,-54.824,-2.076
2.000,0.291,-1.064,-0.245,-30.901,-57.221,-2.885
2.000,0.298,-1.064,-0.251,-33.038,-54.183,-3.084
2.010,0.315,-1.052,-0.253,-34.198,-48.351,-1.969
2.010,0.310,-1.056,-0.247,-35.863,-43.252,-0.992
2.020,0.307,-1.050,-0.238,-36.748,-37.893,0.305
2.020,0.310,-1.049,-0.240,-37.038,-31.374,2.183
2.020,0.313,-1.054,-0.224,-36.672,-24.779,3.710
2.030,0.305,-1.045,-0.219,-36.046,-18.489,4.962
2.030,0.311,-1.056,-0.202,-34.687,-12.473,6.550
2.040,0.311,-1.052,-0.191,-33.099,-7.374,7.588
2.040,0.305,-1.050,-0.190,-31.221,-3.466,8.305
2.050,0.294,-1.058,-0.192,-28.824,-1.588,8.366
2.050,0.285,-1.053,-0.199,-26.901,-0.901,8.198
2.050,0.282,-1.053,-0.203,-25.359,-0.321,8.153
2.060,0.260,-1.046,-0.207,-23.389,-1.084,8.229
2.060,0.249,-1.044,-0.215,-21.023,-4.061,7.954
2.070,0.255,-1.043,-0.208,-19.481,-8.427,7.313
2.070,0.259,-1.035,-0.219,-18.534,-12.214,6.275
2.070,0.269,-1.036,-0.228,-17.542,-14.031,5.756
2.080,0.275,-1.039,-0.222,-16.504,-15.740,5.069
2.080,0.280,-1.043,-0.227,-15.008,-17.252,4.611
2.090,0.279,-1.038,-0.231,-13.679,-16.824,4.931
2.090,0.270,-1.036,-0.233,-12.351,-17.176,5.252
2.100,0.278,-1.037,-0.241,-11.359,-16.885,5.313
2.100,0.278,-1.033,-0.248,-10.473,-16.107,5.832
2.100,0.288,-1.027,-0.246,-9.924,-14.962,6.183
2.110,0.292,-1.023,-0.263,-9.099,-12.977,6.794
2.110,0.286,-1.019,-0.263,-8.244,-12.702,6.595
2.120,0.275,-1.018,-0.281,-7.679,-12.992,6.305
2.120,0.276,-1.008,-0.284,-7.191,-13.466,6.000
2.130,0.279,-1.013,-0.294,-6.290,-14.336,5.389
2.130,0.270,-1.012,-0.294,-5.573,-15.115,4.656
2.130,0.253,-1.000,-0.311,-5.038,-17.344,4.534
2.140,0.249,-0.992,-0.321,-5.130,-19.374,4.718
2.140,0.261,-0.994,-0.336,-5.237,-20.733,4.947
2.150,0.252,-0.996,-0.324,-5.252,-21.603,4.733
2.150,0.264,-1.003,-0.327,-5.435,-22.626,4.748
2.150,0.271,-0.995,-0.329,-5.695,-23.542,4.565
2.160,0.283,-0.992,-0.327,-5.756,-22.641,4.412
2.160,0.296,-1.000,-0.321,-5.618,-21.740,4.412
2.170,0.308,-1.000,-0.326,-5.511,-19.817,4.000
2.170,0.309,-0.998,-0.318,-5.206,-18.092,3.405
2.180,0.322,-1.004,-0.319,-4.931,-16.076,3.115
2.180,0.324,-1.011,-0.307,-4.260,-13.771,2.382
2.180,0.318,-1.000,-0.309,-3.511,-12.473,1.557
2.190,0.323,-1.001,-0.319,-3.084,-11.725,1.313
2.190,0.302,-1.000,-0.331,-2.824,-11.756,0.931
2.200,0.311,-0.997,-0.325,-2.702,-11.511,0.672
2.200,0.313,-0.995,-0.330,-2.382,-10.763,0.244
2.200,0.313,-0.993,-0.328,-1.908,-10.046,-0.229
2.210,0.309,-0.994,-0.325,-1.191,-10.061,-1.328
2.210,0.312,-1.001,-0.329,-0.763,-10.046,-2.336
2.220,0.299,-0.994,-0.333,0.397,-10.412,-3.420
2.220,0.293,-0.993,-0.344,1.130,-11.206,-4.015
2.230,0.274,-0.993,-0.355,1.069,-12.458,-3.924
2.230,0.276,-0.989,-0.362,0.611,-13.023,-4.122
2.230,0.274,-0.987,-0.368,0.366,-13.679,-4.321
2.240,0.277,-0.983,-0.367,-0.260,-13.908,-4.626
2.240,0.277,-0.994,-0.381,-0.626,-14.809,-5.191
2.250,0.276,-0.991,-0.371,-1.389,-15.496,-5.389
2.250,0.286,-0.989,-0.377,-2.061,-14.611,-4.992
2.260,0.285,-0.990,-0.383,-2.763,-13.008,-4.947
2.260,0.287,-0.994,-0.371,-2.916,-10.962,-4.840
2.260,0.282,-0.999,-0.362,-2.840,-9.282,-4.382
2.270,0.272,-0.989,-0.333,-2.290,-7.420,-4.290
2.270,0.283,-0.995,-0.352,-1.481,-5.603,-4.015
2.280,0.269,-0.997,-0.338,-0.229,-4.412,-4.061
2.280,0.269,-0.999,-0.337,0.748,-4.473,-4.214
2.280,0.259,-1.004,-0.352,1.328,-5.802,-4.702
2.290,0.258,-0.988,-0.351,1.695,-6.947,-5.160
2.290,0.268,-0.977,-0.360,2.504,-7.847,-5.496
2.300,0.271,-0.983,-0.359,3.298,-8.733,-5.603
2.300,0.268,-0.980,-0.365,3.756,-9.176,-5.725
2.300,0.272,-0.982,-0.364,4.260,-9.053,-5.420
2.310,0.280,-0.986,-0.373,4.229,-7.405,-4.458
2.310,0.278,-0.993,-0.359,4.824,-5.771,-3.847
2.320,0.289,-0.998,-0.359,5.023,-5.756,-3.557
2.320,0.294,-0.994,-0.355,5.420,-5.908,-4.076
2.330,0.304,-0.989,-0.356,5.786,-5.359,-4.672
2.330,0.306,-0.992,-0.350,5.557,-5.237,-5.511
2.330,0.310,-0.989,-0.351,5.664,-5.389,-6.351
2.340,0.304,-0.996,-0.353,5.939,-5.328,-7.344
2.340,0.297,-0.994,-0.356,6.244,-5.649,-8.611
2.350,0.300,-0.990,-0.365,5.924,-5.466,-9.496
2.350,0.271,-0.984,-0.367,6.611,-6.687,-9.847
2.350,0.238,-0.994,-0.362,7.954,-9.405,-9.740
2.360,0.257,-0.983,-0.368,8.412,-9.924,-10.122
2.360,0.260,-0.986,-0.384,8.168,-9.374,-10.015
2.370,0.249,-0.989,-0.377,7.969,-10.718,-10.031
2.370,0.250,-0.982,-0.366,8.153,-12.244,-8.305
2.370,0.260,-0.992,-0.363,7.679,-11.542,-9.847
2.380,0.270,-0.994,-0.359,7.527,-10.947,-8.840
2.380,0.265,-0.992,-0.327,7.267,-10.092,-8.214
2.390,0.282,-1.010,-0.321,7.878,-9.282,-8.168
2.390,0.304,-1.014,-0.305,8.275,-7.847,-7.298
2.400,0.326,-1.025,-0.284,8.855,-5.573,-5.756
2.400,0.344,-1.033,-0.267,9.374,-1.466,-4.977
2.400,0.370,-1.038,-0.245,10.382,1.863,-4.122
2.410,0.392,-1.050,-0.217,11.756,5.130,-3.832
2.410,0.422,-1.050,-0.191,13.939,9.191,-3.450
2.420,0.456,-1.057,-0.169,16.443,14.595,-4.382
2.420,0.460,-1.062,-0.155,19.176,20.244,-4.718
2.420,0.455,-1.060,-0.160,21.771,24.977,-5.023
2.430,0.461,-1.056,-0.142,24.565,28.137,-6.290
2.430,0.466,-1.057,-0.136,28.046,31.374,-8.855
2.440,0.444,-1.062,-0.139,32.198,33.863,-11.450
2.440,0.410,-1.058,-0.153,35.908,33.008,-13.481
2.440,0.371,-1.059,-0.172,38.901,29.878,-15.130
2.450,0.340,-1.060,-0.188,41.115,26.977,-15.756
2.450,0.318,-1.054,-0.186,43.634,22.534,-16.076
2.460,0.319,-1.063,-0.174,45.435,16.366,-16.794
2.460,0.334,-1.068,-0.164,47.420,10.122,-18.061
2.470,0.346,-1.069,-0.158,49.099,3.878,-20.107
2.470,0.364,-1.079,-0.147,50.840,-1.664,-22.076
2.470,0.391,-1.090,-0.138,52.809,-7.740,-24.611
2.480,0.406,-1.090,-0.121,54.290,-13.740,-26.947
2.480,0.430,-1.098,-0.111,56.260,-19.435,-29.725
2.490,0.472,-1.105,-0.097,58.076,-23.634,-32.641
2.490,0.498,-1.107,-0.098,59.038,-27.298,-36.214
2.500,0.536,-1.102,-0.104,59.374,-29.038,-39.786
2.500,0.563,-1.108,-0.103,59.435,-27.863,-43.298
2.500,0.571,-1.112,-0.099,60.275,-25.908,-47.649
2.510,0.571,-1.111,-0.095,61.038,-23.863,-52.183
2.510,0.544,-1.109,-0.104,62.183,-21.786,-55.115
2.520,0.508,-1.105,-0.104,63.237,-18.718,-57.237
2.520,0.483,-1.110,-0.115,64.046,-15.130,-58.672
2.530,0.438,-1.113,-0.121,64.595,-16.015,-60.687
2.530,0.409,-1.114,-0.130,63.695,-19.038,-61.908
2.540,0.378,-1.121,-0.124,62.595,-21.359,-62.534
2.540,0.330,-1.143,-0.113,61.618,-24.718,-62.031
2.540,0.279,-1.168,-0.092,60.519,-29.908,-60.382
2.550,0.240,-1.180,-0.067,59.878,-35.878,-56.702
2.550,0.223,-1.206,-0.029,58.305,-40.718,-51.573
2.560,0.256,-1.221,0.014,56.870,-41.771,-45.695
2.560,0.350,-1.238,0.072,56.092,-37.817,-41.985
2.570,0.434,-1.252,0.143,57.435,-32.244,-41.740
2.570,0.473,-1.271,0.185,62.641,-25.634,-44.458
2.570,0.459,-1.288,0.220,68.885,-22.641,-47.542
2.580,0.419,-1.299,0.250,75.191,-21.786,-47.878
2.580,0.400,-1.327,0.263,84.046,-18.290,-51.115
2.590,0.370,-1.312,0.268,92.687,-19.435,-52.473
2.590,0.328,-1.336,0.266,100.504,-24.580,-54.244
2.600,0.301,-1.329,0.240,107.878,-29.786,-54.672
2.600,0.269,-1.330,0.224,114.046,-34.595,-54.092
2.600,0.282,-1.337,0.214,118.794,-37.786,-52.626
2.610,0.290,-1.345,0.197,122.977,-39.542,-50.550
2.610,0.323,-1.347,0.201,126.443,-38.885,-48.183
2.620,0.356,-1.344,0.194,129.679,-36.153,-44.198
2.620,0.394,-1.359,0.191,132.534,-29.115,-41.832
2.630,0.439,-1.353,0.180,134.626,-18.656,-39.298
2.630,0.471,-1.346,0.184,136.626,-6.901,-35.664
2.630,0.516,-1.354,0.177,139.053,7.038,-34.321
2.640,0.545,-1.338,0.166,141.344,21.527,-32.321
2.640,0.548,-1.345,0.181,144.855,34.947,-30.901
2.650,0.529,-1.334,0.182,148.519,45.221,-29.634
2.650,0.517,-1.330,0.184,152.321,51.802,-28.626
2.660,0.515,-1.314,0.180,155.237,56.489,-28.702
2.660,0.529,-1.307,0.163,157.023,60.656,-29.405
2.660,0.511,-1.306,0.153,159.374,60.702,-30.763
2.670,0.495,-1.303,0.159,161.740,56.290,-33.573
2.670,0.487,-1.296,0.147,163.863,50.595,-37.023
2.680,0.478,-1.290,0.142,165.160,44.855,-40.275
2.680,0.452,-1.287,0.141,165.893,37.237,-42.504
2.690,0.404,-1.293,0.150,166.626,29.206,-43.527
2.690,0.399,-1.297,0.170,167.374,23.634,-43.511
2.690,0.396,-1.291,0.185,168.840,19.145,-43.145
2.700,0.396,-1.297,0.196,169.710,15.908,-41.710
2.700,0.429,-1.299,0.192,169.588,14.779,-40.076
2.710,0.472,-1.307,0.207,170.427,17.710,-38.916
2.710,0.524,-1.297,0.209,171.191,22.183,-38.947
2.720,0.553,-1.303,0.215,171.954,27.099,-40.260
2.720,0.553,-1.291,0.220,172.595,31.740,-42.092
2.720,0.548,-1.293,0.217,173.954,35.298,-43.527
2.730,0.525,-1.290,0.222,175.420,37.389,-45.053
2.730,0.503,-1.283,0.224,176.947,37.954,-46.397
2.740,0.462,-1.287,0.242,178.076,35.985,-47.679
2.740,0.437,-1.275,0.242,179.420,31.817,-49.542
2.740,0.417,-1.275,0.252,180.931,25.679,-51.115
2.750,0.386,-1.277,0.256,182.733,18.595,-51.863
2.750,0.366,-1.283,0.256,184.153,11.603,-51.405
2.760,0.376,-1.278,0.260,185.130,5.008,-51.038
2.760,0.406,-1.276,0.272,186.092,1.008,-50.687
2.770,0.439,-1.277,0.289,187.328,0.580,-50.260
2.770,0.478,-1.261,0.299,188.198,2.504,-48.626
2.770,0.524,-1.263,0.300,188.901,6.412,-47.969
2.780,0.558,-1.262,0.306,189.695,12.153,-47.939
2.780,0.594,-1.258,0.284,190.366,18.855,-48.901
2.790,0.600,-1.246,0.274,190.595,25.359,-49.969
2.790,0.606,-1.237,0.273,189.985,31.817,-50.550
2.800,0.577,-1.236,0.300,190.611,34.748,-50.809
2.800,0.574,-1.220,0.279,191.374,38.366,-51.328
2.800,0.568,-1.203,0.266,190.916,44.122,-50.580
2.810,0.546,-1.193,0.259,190.473,47.328,-49.115
2.810,0.515,-1.180,0.253,189.237,50.565,-46.595
2.820,0.507,-1.169,0.254,187.985,54.748,-43.664
2.820,0.490,-1.165,0.265,187.618,57.511,-40.534
2.830,0.480,-1.162,0.289,187.527,59.954,-36.901
2.830,0.496,-1.159,0.301,187.267,63.939,-32.916
2.830,0.527,-1.161,0.324,186.870,69.710,-30.000
2.840,0.571,-1.146,0.353,187.573,76.687,-28.489
2.840,0.576,-1.142,0.362,188.321,79.985,-28.229
2.850,0.589,-1.120,0.391,188.427,82.229,-28.733
2.850,0.604,-1.107,0.396,190.000,86.198,-30.534
2.850,0.580,-1.098,0.413,191.740,88.977,-32.244
2.860,0.539,-1.089,0.419,193.588,88.382,-33.450
2.860,0.492,-1.071,0.421,195.511,85.924,-33.832
2.870,0.427,-1.056,0.410,197.298,80.550,-33.221
2.870,0.391,-1.034,0.415,198.656,73.282,-31.908
2.880,0.376,-1.022,0.409,200.015,66.092,-30.733
2.880,0.392,-0.997,0.410,200.748,58.351,-30.458
2.880,0.396,-0.989,0.395,201.084,50.672,-31.206
2.890,0.403,-0.970,0.380,200.763,43.053,-32.107
2.890,0.414,-0.951,0.365,199.832,36.153,-33.115
2.900,0.427,-0.937,0.352,197.863,30.672,-34.565
2.900,0.436,-0.918,0.342,195.695,26.885,-36.290
2.910,0.431,-0.892,0.332,192.977,23.221,-36.992
2.910,0.428,-0.873,0.339,190.427,20.626,-36.824
2.910,0.439,-0.853,0.331,187.053,20.473,-36.137
2.920,0.453,-0.831,0.323,183.756,22.244,-35.924
2.920,0.457,-0.810,0.320,180.794,23.893,-35.786
2.930,0.454,-0.789,0.331,178.244,25.786,-35.359
2.930,0.439,-0.760,0.339,175.725,26.870,-34.275
2.940,0.433,-0.738,0.338,173.573,28.687,-33.084
2.940,0.428,-0.721,0.333,171.176,30.550,-31.603
2.940,0.414,-0.707,0.342,169.328,31.725,-30.397
2.950,0.403,-0.692,0.351,167.908,32.321,-29.664
2.950,0.391,-0.672,0.354,165.832,31.802,-28.840
2.960,0.373,-0.658,0.360,163.496,30.427,-27.618
2.960,0.372,-0.644,0.384,161.725,29.618,-26.153
2.970,0.365,-0.625,0.399,160.458,29.832,-24.305
2.970,0.365,-0.616,0.400,159.313,30.076,-22.198
2.970,0.356,-0.595,0.411,158.260,30.244,-19.542
2.980,0.361,-0.580,0.408,156.534,30.779,-17.298
2.980,0.372,-0.562,0.400,154.229,32.031,-15.527
2.990,0.386,-0.542,0.408,152.611,33.481,-14.290
2.990,0.393,-0.526,0.404,150.931,34.641,-13.298
3.000,0.390,-0.506,0.413,149.221,33.420,-12.779
3.000,0.382,-0.493,0.424,147.679,31.908,-12.336
3.000,0.386,-0.475,0.411,146.000,31.450,-11.695
3.010,0.377,-0.470,0.408,143.969,29.740,-11.023
3.010,0.381,-0.449,0.403,141.374,27.206,-10.534
3.020,0.388,-0.430,0.408,138.748,24.489,-10.198
3.020,0.382,-0.420,0.418,136.473,21.511,-9.725
3.030,0.390,-0.409,0.429,134.214,17.405,-9.756
3.030,0.413,-0.395,0.430,132.519,14.122,-11.084
3.030,0.429,-0.386,0.441,130.550,10.656,-13.450
3.040,0.427,-0.377,0.445,128.519,6.229,-16.351
3.040,0.427,-0.359,0.446,126.550,1.863,-18.947
3.050,0.412,-0.347,0.461,125.099,-2.260,-21.344
3.050,0.397,-0.337,0.460,124.107,-4.718,-23.191
3.050,0.389,-0.309,0.464,122.870,-4.718,-24.565
3.060,0.357,-0.295,0.453,121.267,-4.962,-24.763
3.060,0.318,-0.289,0.464,120.473,-4.809,-23.466
3.070,0.300,-0.277,0.463,119.481,-3.649,-21.359
3.070,0.281,-0.262,0.454,118.137,-2.504,-18.366
3.080,0.275,-0.242,0.443,116.473,-0.489,-14.687
3.080,0.274,-0.233,0.459,114.916,2.870,-10.718
3.080,0.288,-0.214,0.446,113.374,6.855,-6.947
3.090,0.302,-0.198,0.422,110.672,11.084,-3.618
3.090,0.328,-0.180,0.413,107.863,15.893,-1.053
3.100,0.355,-0.171,0.416,105.145,20.885,0.840
3.100,0.365,-0.155,0.406,101.969,25.603,1.924
3.100,0.361,-0.145,0.398,99.053,28.275,2.550
3.110,0.348,-0.129,0.387,94.214,28.748,2.779
3.110,0.325,-0.117,0.396,91.954,27.832,3.206
3.120,0.300,-0.114,0.415,88.947,24.931,3.771
3.120,0.280,-0.093,0.427,86.397,20.412,4.809
3.120,0.284,-0.087,0.444,84.672,16.611,5.435
3.130,0.280,-0.063,0.442,83.237,13.313,6.473
3.130,0.290,-0.050,0.432,81.634,10.046,7.206
3.140,0.294,-0.037,0.428,80.015,7.130,8.214
3.140,0.305,-0.028,0.419,78.656,5.176,8.412
3.140,0.308,-0.010,0.414,77.145,3.740,8.458
3.150,0.324,0.001,0.396,75.023,2.565,8.626
3.150,0.323,0.009,0.379,72.534,1.282,8.794
3.160,0.325,0.023,0.385,69.786,0.550,9.176
3.160,0.327,0.033,0.386,66.641,0.687,9.832
3.160,0.327,0.031,0.377,63.221,0.504,10.198
3.170,0.306,0.029,0.383,59.969,0.550,11.359
3.170,0.290,0.026,0.395,57.053,0.824,13.267
3.180,0.278,0.027,0.410,54.519,0.779,15.511
3.180,0.276,0.014,0.429,52.198,0.382,17.634
3.180,0.280,0.016,0.449,49.664,0.870,19.145
3.190,0.284,0.017,0.460,47.191,1.176,20.840
3.190,0.297,0.018,0.477,44.992,1.038,22.382
3.190,0.308,0.015,0.493,43.527,1.206,23.481
3.200,0.314,0.017,0.505,41.756,1.527,24.397
3.200,0.314,0.021,0.506,39.649,2.076,25.527
3.210,0.309,0.023,0.531,38.000,2.153,27.069
3.210,0.304,0.026,0.539,36.382,2.153,28.672
3.210,0.308,0.025,0.554,34.855,2.824,30.519
3.220,0.322,0.023,0.572,33.496,3.847,32.122
3.220,0.333,0.028,0.575,32.137,5.084,33.908
3.230,0.344,0.036,0.580,31.221,6.244,35.603
3.230,0.371,0.040,0.598,30.244,7.466,37.176
3.230,0.389,0.038,0.606,29.511,9.603,38.397
3.240,0.422,0.045,0.613,28.473,11.878,38.687
3.240,0.447,0.050,0.601,27.221,14.183,38.595
3.250,0.472,0.042,0.605,25.985,16.595,37.511
3.250,0.486,0.041,0.600,24.290,18.092,35.649
3.250,0.487,0.043,0.598,21.725,19.206,33.649
3.260,0.479,0.041,0.610,19.328,19.298,31.679
3.260,0.452,0.037,0.633,17.328,19.069,30.412
3.270,0.428,0.036,0.664,16.275,18.382,30.153
3.270,0.407,0.028,0.659,15.847,17.557,30.168
3.270,0.383,0.030,0.685,15.237,17.023,31.023
3.280,0.373,0.026,0.682,14.870,17.130,32.305
3.280,0.365,0.026,0.688,14.672,17.710,33.588
3.290,0.355,0.029,0.703,14.641,18.107,35.053
3.290,0.350,0.027,0.699,14.397,19.832,36.962
3.290,0.349,0.024,0.699,14.137,22.198,38.855
3.300,0.351,0.025,0.709,13.160,24.534,41.145
3.300,0.358,0.020,0.709,11.939,27.038,42.901
3.310,0.372,0.016,0.714,10.656,29.130,44.122
3.310,0.375,0.027,0.721,9.252,30.580,45.344
3.310,0.377,0.027,0.728,7.344,31.847,46.534
3.320,0.393,0.023,0.749,6.366,32.763,47.130
3.320,0.402,0.027,0.759,5.282,34.244,47.450
3.330,0.415,0.019,0.768,4.412,34.962,47.496
3.330,0.418,0.018,0.776,3.542,35.252,47.191
3.330,0.422,0.020,0.785,2.916,34.748,46.458
3.340,0.428,0.027,0.799,2.382,34.198,45.588
3.340,0.440,0.025,0.805,2.427,33.313,44.336
3.340,0.445,0.026,0.811,2.489,32.504,42.824
3.350,0.458,0.035,0.815,2.565,32.107,41.359
3.350,0.464,0.036,0.823,3.115,32.290,39.618
3.360,0.471,0.035,0.824,3.573,32.092,37.740
3.360,0.472,0.044,0.828,4.198,31.939,35.679
3.360,0.471,0.051,0.830,4.885,32.443,33.588
3.370,0.469,0.049,0.835,5.252,35.191,30.779
3.370,0.608,0.095,0.865,9.908,51.435,28.031
3.380,0.478,0.039,0.853,10.412,49.679,27.557
3.380,0.308,0.060,0.803,9.145,32.977,26.611
3.380,0.331,0.058,0.805,7.435,24.595,27.374
3.390,0.358,0.071,0.811,6.809,21.985,27.481
3.390,0.383,0.068,0.844,7.557,20.260,27.130
3.400,0.376,0.070,0.838,7.817,17.130,26.947
3.400,0.374,0.073,0.817,7.237,12.397,26.687
3.400,0.395,0.074,0.819,6.962,10.092,26.458
3.410,0.418,0.073,0.821,6.733,9.496,25.817
3.410,0.426,0.077,0.827,6.885,8.992,25.130
3.420,0.430,0.074,0.830,7.176,7.863,24.504
3.420,0.438,0.073,0.830,6.824,7.191,23.634
3.420,0.449,0.081,0.823,6.672,7.435,22.656
3.430,0.451,0.078,0.840,6.366,7.771,21.328
3.430,0.449,0.071,0.833,5.725,7.725,20.046
3.430,0.429,0.072,0.838,5.130,7.313,19.237
3.440,0.425,0.078,0.845,4.962,6.656,18.565
3.440,0.408,0.070,0.853,5.069,5.847,18.000
3.450,0.407,0.081,0.863,5.344,4.794,18.198
3.450,0.413,0.082,0.863,5.649,4.519,18.183
3.450,0.427,0.087,0.849,6.244,5.542,17.924
3.460,0.425,0.088,0.853,6.855,6.382,17.649
3.460,0.433,0.090,0.849,7.924,7.603,17.160
3.460,0.436,0.092,0.836,8.275,9.130,16.763
3.470,0.429,0.094,0.823,8.763,10.397,16.153
3.470,0.426,0.097,0.824,9.282,11.282,15.618
3.480,0.420,0.100,0.812,9.466,12.260,15.328
3.480,0.417,0.112,0.807,9.267,13.588,14.901
3.480,0.412,0.105,0.783,8.473,14.229,14.687
3.490,0.397,0.103,0.782,7.786,14.580,14.015
3.490,0.396,0.105,0.781,6.916,14.412,13.634
3.500,0.391,0.106,0.763,5.634,14.046,12.794
3.500,0.387,0.104,0.760,4.443,13.817,11.389
3.500,0.382,0.109,0.749,2.733,12.168,11.115
3.510,0.382,0.105,0.761,1.435,9.908,10.153
3.510,0.365,0.104,0.770,0.198,7.282,8.992
3.520,0.368,0.094,0.774,-0.626,4.000,7.573
3.520,0.361,0.100,0.790,-1.771,0.351,6.962
3.520,0.374,0.094,0.790,-2.840,-2.061,5.740
3.530,0.371,0.099,0.783,-3.420,-3.847,5.389
3.530,0.369,0.092,0.801,-3.771,-5.695,4.840
3.530,0.368,0.092,0.807,-3.634,-7.176,4.427
3.540,0.368,0.083,0.810,-3.573,-7.527,4.427
3.540,0.356,0.079,0.810,-3.298,-7.725,4.473
3.550,0.367,0.083,0.814,-3.206,-7.359,4.824
3.550,0.374,0.085,0.813,-3.130,-6.046,5.160
3.550,0.380,0.092,0.818,-2.840,-3.771,5.542
3.560,0.376,0.098,0.813,-2.504,-1.511,6.092
3.560,0.367,0.095,0.809,-1.878,-0.168,6.763
3.570,0.369,0.093,0.815,-1.664,0.656,7.359
3.570,0.368,0.097,0.806,-1.405,2.168,7.924
3.570,0.376,0.096,0.805,-1.038,5.069,8.519
3.580,0.382,0.099,0.782,-0.550,6.595,8.748
3.580,0.375,0.097,0.778,-0.687,6.779,8.565
3.580,0.379,0.102,0.774,-1.237,7.420,8.427
3.590,0.371,0.100,0.768,-1.969,7.985,8.504
3.590,0.383,0.097,0.760,-2.794,7.496,7.756
3.600,0.383,0.095,0.770,-3.679,6.702,7.099
3.600,0.365,0.092,0.778,-4.137,4.504,6.336
3.600,0.379,0.079,0.765,-4.672,3.511,5.603
3.610,0.380,0.094,0.775,-7.527,2.947,5.817
3.610,0.373,0.091,0.768,-8.794,2.076,5.130
3.620,0.365,0.076,0.798,-9.130,-1.008,4.427
3.620,0.373,0.075,0.801,-9.863,-2.275,4.015
3.620,0.384,0.080,0.788,-10.794,-2.336,3.786
3.630,0.370,0.074,0.779,-11.588,-3.405,2.947
3.630,0.382,0.067,0.806,-12.565,-5.008,2.718
3.640,0.378,0.060,0.812,-12.947,-5.191,2.443
3.640,0.390,0.060,0.824,-13.267,-5.099,2.046
3.640,0.386,0.048,0.826,-13.435,-4.977,2.000
3.650,0.397,0.043,0.832,-13.435,-5.008,1.786
3.650,0.399,0.045,0.844,-13.466,-4.443,1.634
3.660,0.400,0.042,0.842,-13.267,-3.725,0.992
3.660,0.395,0.043,0.854,-12.656,-3.573,0.137
3.660,0.399,0.038,0.848,-12.534,-3.084,-0.504
3.670,0.397,0.037,0.837,-12.382,-2.901,-1.573
3.670,0.387,0.030,0.857,-12.229,-2.626,-2.260
3.680,0.373,0.026,0.860,-11.649,-2.962,-2.336
3.680,0.362,0.019,0.862,-11.008,-3.450,-2.611
3.680,0.362,0.025,0.863,-10.031,-4.260,-2.275
3.690,0.366,0.017,0.868,-9.191,-4.611,-2.321
3.690,0.356,0.015,0.883,-8.534,-5.557,-2.107
3.700,0.369,0.012,0.878,-7.985,-6.107,-2.382
3.700,0.375,0.011,0.878,-7.756,-5.649,-2.809
3.700,0.383,0.007,0.872,-7.221,-4.809,-3.588
3.710,0.383,0.015,0.869,-7.435,-4.656,-4.321
3.710,0.369,-0.001,0.864,-7.542,-4.626,-4.855
3.720,0.359,0.001,0.868,-7.435,-5.282,-5.053
3.720,0.356,0.006,0.876,-7.023,-5.740,-5.008
3.720,0.353,0.004,0.875,-7.069,-6.260,-5.221
3.730,0.348,0.007,0.868,-7.145,-6.718,-5.664
3.730,0.348,-0.007,0.874,-6.992,-6.977,-5.649
3.740,0.336,0.002,0.863,-6.748,-7.817,-5.588
3.740,0.331,0.002,0.887,-6.794,-8.779,-5.573
3.740,0.336,0.002,0.875,-6.366,-8.763,-5.466
3.750,0.322,0.000,0.872,-5.542,-8.336,-5.206
3.750,0.312,0.003,0.863,-4.840,-9.191,-4.473
3.760,0.315,0.011,0.884,-4.656,-9.771,-4.046
3.760,0.327,0.006,0.876,-3.954,-8.366,-3.298
3.760,0.331,0.008,0.867,-3.389,-6.153,-2.504
3.770,0.335,0.005,0.869,-2.809,-4.275,-1.878
3.770,0.331,0.003,0.870,-2.214,-3.450,-1.542
3.780,0.320,0.005,0.854,-2.244,-2.672,-0.763
3.780,0.326,0.006,0.867,-2.275,-1.191,0.366
3.780,0.328,0.002,0.858,-2.168,0.351,1.389
3.790,0.333,0.007,0.854,-2.260,1.130,2.015
3.790,0.335,0.007,0.837,-2.443,1.435,2.321
3.800,0.348,0.008,0.840,-2.809,1.313,2.656
3.800,0.362,0.007,0.861,-3.069,1.786,2.489
3.800,0.373,0.010,0.843,-2.565,3.237,2.198
3.810,0.373,0.008,0.844,-2.489,3.740,2.046
3.810,0.359,0.018,0.845,-2.779,3.267,1.756
3.810,0.361,0.015,0.839,-3.176,2.534,1.359
3.820,0.367,0.015,0.838,-3.084,2.168,0.748
3.820,0.364,0.015,0.829,-3.176,1.145,0.366
3.830,0.358,0.021,0.837,-3.084,-1.008,-0.107
3.830,0.366,0.027,0.840,-3.481,-2.366,-0.626
3.830,0.358,0.027,0.835,-3.695,-2.718,-0.687
3.840,0.368,0.021,0.842,-3.603,-2.794,-0.855
3.840,0.362,0.021,0.833,-3.679,-2.336,-0.901
3.850,0.364,0.014,0.833,-3.908,-1.908,-0.687
3.850,0.354,0.019,0.837,-3.817,-1.496,-0.489
3.850,0.360,0.023,0.837,-4.092,-1.008,-0.260
3.860,0.360,0.014,0.840,-3.985,-0.458,0.031
3.860,0.363,0.020,0.844,-3.985,0.809,0.443
3.870,0.354,0.011,0.843,-4.076,1.695,0.824
3.870,0.358,0.021,0.844,-4.351,1.985,1.359
3.870,0.369,0.020,0.853,-4.092,2.809,1.710
3.880,0.372,0.017,0.849,-4.046,3.298,1.954
3.880,0.374,0.017,0.855,-4.000,3.740,1.969
3.880,0.381,0.023,0.856,-3.695,4.534,2.122
3.890,0.382,0.010,0.865,-3.389,5.374,1.924
3.890,0.383,0.020,0.853,-2.763,5.420,1.847
3.900,0.372,0.011,0.845,-2.718,4.901,1.634
3.900,0.369,0.016,0.845,-2.656,3.725,1.313
3.900,0.368,0.020,0.851,-2.489,2.992,0.702
3.910,0.365,0.017,0.847,-2.748,1.649,0.382
3.910,0.366,0.012,0.848,-2.809,1.160,0.076
3.910,0.365,0.014,0.852,-2.885,0.962,0.107
3.920,0.363,0.012,0.845,-2.855,0.260,0.183
3.920,0.359,0.015,0.844,-2.870,-0.458,0.153
3.930,0.354,0.012,0.850,-3.084,-1.023,-0.153
3.930,0.361,0.012,0.841,-3.298,-1.740,-0.397
3.930,0.366,0.009,0.844,-3.908,-1.496,-0.580
3.940,0.360,0.005,0.842,-4.183,-1.771,-0.718
3.940,0.350,0.010,0.851,-4.580,-2.519,-0.779
3.950,0.355,0.002,0.859,-4.748,-2.809,-0.565
3.950,0.346,-0.002,0.867,-4.916,-2.382,-0.336
3.950,0.351,0.004,0.871,-4.779,-2.092,0.107
3.960,0.348,-0.003,0.890,-4.534,-1.847,0.382
3.960,0.352,-0.008,0.881,-3.985,-1.557,0.427
3.970,0.357,-0.010,0.885,-3.573,-0.992,0.489
3.970,0.355,-0.012,0.889,-2.626,-0.076,0.626
3.970,0.350,-0.015,0.897,-1.771,0.718,0.702
3.980,0.353,-0.018,0.894,-0.977,1.344,0.931
3.980,0.350,-0.007,0.898,-0.229,1.450,1.023
3.990,0.345,-0.009,0.893,0.427,1.359,1.359
3.990,0.345,-0.015,0.884,1.206,1.954,1.481
3.990,0.350,-0.003,0.877,1.389,2.137,1.817
4.000,0.349,-0.004,0.876,1.756,2.198,1.985
4.000,0.355,0.001,0.874,1.817,2.290,2.092
4.010,0.358,-0.002,0.856,1.954,3.023,2.076
4.010,0.365,0.005,0.851,1.969,4.137,1.954
4.010,0.359,0.006,0.840,1.695,4.397,1.802
4.020,0.365,0.006,0.849,1.420,4.504,1.527
4.020,0.367,0.010,0.842,1.115,4.687,1.130
4.020,0.352,0.007,0.839,0.687,4.626,0.840
4.030,0.355,0.001,0.842,1.176,4.824,0.382
4.030,0.346,0.008,0.849,0.824,4.595,0.870
4.040,0.340,0.002,0.863,1.221,4.107,1.038
